"date","time","group","subject","build","blocknum","trialnum","blockcode","trialcode","pretrialpause","posttrialpause","trialduration","trialtimeout","response","correct","latency","stimulusnumber1","stimulusitem1","stimulusonset1","stimulusnumber2","stimulusitem2","stimulusonset2"
"022420","15:15:19","32","32","5.0.14.0","2","1","trial1","naming","0","0","0","0","apple","0","3335","1","White_Screen.jpg","35","30","Cherry.jpg","35"
"022420","15:15:19","32","32","5.0.14.0","2","2","trial1","naming","0","0","0","0","milkshake","0","4641","1","White_Screen.jpg","0","3","Milkshake_Chocolate.jpg","0"
"022420","15:15:19","32","32","5.0.14.0","2","3","trial1","naming","0","0","0","0","steering wheel","0","4170","1","White_Screen.jpg","1","51","Wheel_Steering.jpg","1"
"022420","15:15:19","32","32","5.0.14.0","2","4","trial1","naming","0","0","0","0","candelabra","0","4364","1","White_Screen.jpg","1","71","LumiereBeautyBeast.jpg","1"
"022420","15:15:19","32","32","5.0.14.0","2","5","trial1","naming","0","0","0","0","keg","0","2396","1","White_Screen.jpg","2","145","Keg.jpg","2"
"022420","15:15:19","32","32","5.0.14.0","2","6","trial1","naming","0","0","0","0","mat","0","4708","1","White_Screen.jpg","0","136","DVDPlayer.jpg","0"
"022420","15:15:19","32","32","5.0.14.0","2","7","trial1","naming","0","0","0","0","shears","0","3542","1","White_Screen.jpg","2","43","HedgeShears.jpg","2"
"022420","15:15:19","32","32","5.0.14.0","2","8","trial1","naming","0","0","0","0","drumset","0","3265","1","White_Screen.jpg","2","72","Drum_Set.jpg","2"
"022420","15:15:19","32","32","5.0.14.0","2","9","trial1","naming","0","0","0","0","skateb","0","10000","1","White_Screen.jpg","2","125","Snowboard.jpg","2"
"022420","15:15:19","32","32","5.0.14.0","2","10","trial1","naming","0","0","0","0","onion","0","3171","1","White_Screen.jpg","0","148","OnionRed.jpg","0"
"022420","15:15:19","32","32","5.0.14.0","2","11","trial1","naming","0","0","0","0","press","0","4877","1","White_Screen.jpg","3","98","Embosser.jpg","3"
"022420","15:15:19","32","32","5.0.14.0","2","12","trial1","naming","0","0","0","0","muffin","0","4844","1","White_Screen.jpg","1","27","Bread_Melon.jpg","1"
"022420","15:15:19","32","32","5.0.14.0","2","13","trial1","naming","0","0","0","0","truck","0","3438","1","White_Screen.jpg","1","57","Truck_Army.jpg","1"
"022420","15:15:19","32","32","5.0.14.0","2","14","trial1","naming","0","0","0","0","purse","0","2605","1","White_Screen.jpg","1","187","Bag_Doctor.jpg","1"
"022420","15:15:19","32","32","5.0.14.0","2","15","trial1","naming","0","0","0","0","lighter","0","5385","1","White_Screen.jpg","0","79","FlintIgniter.jpg","0"
"022420","15:15:19","32","32","5.0.14.0","2","16","trial1","naming","0","0","0","0","thermostat","0","4984","1","White_Screen.jpg","5","73","Thermostat_Digital.jpg","5"
"022420","15:15:19","32","32","5.0.14.0","2","17","trial1","naming","0","0","0","0","shoe","0","2156","1","White_Screen.jpg","1","76","Shoe_Men.jpg","1"
"022420","15:15:19","32","32","5.0.14.0","2","18","trial1","naming","0","0","0","0","atv","0","2720","1","White_Screen.jpg","1","157","AllTerrain.jpg","1"
"022420","15:15:19","32","32","5.0.14.0","2","19","trial1","naming","0","0","0","0","frying pan","0","3536","1","White_Screen.jpg","2","70","PanCooking.jpg","2"
"022420","15:15:19","32","32","5.0.14.0","2","20","trial1","naming","0","0","0","0","milkshake","0","3205","1","White_Screen.jpg","1","34","Milkshake_Strawberry.jpg","1"
"022420","15:15:19","32","32","5.0.14.0","2","21","trial1","naming","0","0","0","0","dog","0","2126","1","White_Screen.jpg","2","135","Dog_CockerSpaniel.jpg","2"
"022420","15:15:19","32","32","5.0.14.0","2","22","trial1","naming","0","0","0","0","bellows","0","2826","1","White_Screen.jpg","1","42","Bellows.jpg","1"
"022420","15:15:19","32","32","5.0.14.0","2","23","trial1","naming","0","0","0","0","makeup","0","4389","1","White_Screen.jpg","3","16","Makeup_Compact.jpg","3"
"022420","15:15:19","32","32","5.0.14.0","2","24","trial1","naming","0","0","0","0","abacus","0","2683","1","White_Screen.jpg","2","56","Abacus.jpg","2"
"022420","15:15:19","32","32","5.0.14.0","2","25","trial1","naming","0","0","0","0","lips","0","1876","1","White_Screen.jpg","0","92","Lips_Real.jpg","0"
"022420","15:15:19","32","32","5.0.14.0","2","26","trial1","naming","0","0","0","0","bone","0","3178","1","White_Screen.jpg","2","183","DogToy.jpg","2"
"022420","15:15:19","32","32","5.0.14.0","2","27","trial1","naming","0","0","0","0","milkshake","0","3467","1","White_Screen.jpg","1","104","Milkshake_StrawberryStraw.jpg","1"
"022420","15:15:19","32","32","5.0.14.0","2","28","trial1","naming","0","0","0","0","cornucopia","0","3819","1","White_Screen.jpg","1","25","Cornucopia.jpg","1"
"022420","15:15:19","32","32","5.0.14.0","2","29","trial1","naming","0","0","0","0","olives","0","3271","1","White_Screen.jpg","3","13","Olives.jpg","3"
"022420","15:15:19","32","32","5.0.14.0","2","30","trial1","naming","0","0","0","0","beret","0","2773","1","White_Screen.jpg","0","11","Hat_Beret.jpg","0"
"022420","15:15:19","32","32","5.0.14.0","2","31","trial1","naming","0","0","0","0","toaster","0","2486","1","White_Screen.jpg","1","139","Toaster_MetalSleek.jpg","1"
"022420","15:15:19","32","32","5.0.14.0","2","32","trial1","naming","0","0","0","0","doorbell","0","7058","1","White_Screen.jpg","3","185","CarLighter.jpg","3"
"022420","15:15:19","32","32","5.0.14.0","2","33","trial1","naming","0","0","0","0","handset","0","6078","1","White_Screen.jpg","2","143","Phone_Military.jpg","2"
"022420","15:15:19","32","32","5.0.14.0","2","34","trial1","naming","0","0","0","0","rake","0","4172","1","White_Screen.jpg","1","130","Toy_SandRake.jpg","1"
"022420","15:15:19","32","32","5.0.14.0","2","35","trial1","naming","0","0","0","0","dishcloth","0","3432","1","White_Screen.jpg","0","82","KitchenCloth.jpg","0"
"022420","15:15:19","32","32","5.0.14.0","2","36","trial1","naming","0","0","0","0","bar","0","1930","1","White_Screen.jpg","0","100","AlcoholBar.jpg","0"
"022420","15:15:19","32","32","5.0.14.0","2","37","trial1","naming","0","0","0","0","concrete block","0","4972","1","White_Screen.jpg","1","128","CinderBlock.jpg","1"
"022420","15:15:19","32","32","5.0.14.0","2","38","trial1","naming","0","0","0","0","frog","0","2187","1","White_Screen.jpg","0","1","Toad.jpg","0"
"022420","15:15:19","32","32","5.0.14.0","2","39","trial1","naming","0","0","0","0","mail","0","2008","1","White_Screen.jpg","0","153","LetterMail.jpg","0"
"022420","15:15:19","32","32","5.0.14.0","2","40","trial1","naming","0","0","0","0","blender","0","2452","1","White_Screen.jpg","2","23","Mixer_Hand.jpg","2"
"022420","15:15:19","32","32","5.0.14.0","2","41","trial1","naming","0","0","0","0","switch","0","9091","1","White_Screen.jpg","0","78","TelephoneJack.jpg","0"
"022420","15:15:19","32","32","5.0.14.0","2","42","trial1","naming","0","0","0","0","zester","0","3562","1","White_Screen.jpg","2","129","Cheesegrater_Handheld.jpg","2"
"022420","15:15:19","32","32","5.0.14.0","2","43","trial1","naming","0","0","0","0","seesaw","0","3556","1","White_Screen.jpg","2","106","Toy_SeeSaw.jpg","2"
"022420","15:15:19","32","32","5.0.14.0","2","44","trial1","naming","0","0","0","0","dice","0","2871","1","White_Screen.jpg","0","99","Tetrahedron.jpg","0"
"022420","15:15:19","32","32","5.0.14.0","2","45","trial1","naming","0","0","0","0","usb stick","0","6166","1","White_Screen.jpg","1","169","USBKey.jpg","1"
"022420","15:15:19","32","32","5.0.14.0","2","46","trial1","naming","0","0","0","0","olives","0","3719","1","White_Screen.jpg","3","60","Can_Olives.jpg","3"
"022420","15:15:19","32","32","5.0.14.0","2","47","trial1","naming","0","0","0","0","football","0","2703","1","White_Screen.jpg","1","123","Ball_Football.jpg","1"
"022420","15:15:19","32","32","5.0.14.0","2","48","trial1","naming","0","0","0","0","foam","0","3416","1","White_Screen.jpg","0","81","Foam_Accoustic.jpg","0"
"022420","15:15:19","32","32","5.0.14.0","2","49","trial1","naming","0","0","0","0","baby carriage","0","4766","1","White_Screen.jpg","1","127","Toy_Stroller.jpg","1"
"022420","15:15:19","32","32","5.0.14.0","2","50","trial1","naming","0","0","0","0","work light","0","3484","1","White_Screen.jpg","2","155","Light_Halogen.jpg","2"
"022420","15:15:19","32","32","5.0.14.0","2","52","trial1","naming","0","0","0","0","go car","0","9700","1","White_Screen.jpg","3","65","BumperCar.jpg","3"
"022420","15:15:19","32","32","5.0.14.0","2","53","trial1","naming","0","0","0","0","door","0","2724","1","White_Screen.jpg","0","131","Door_Blue.jpg","0"
"022420","15:15:19","32","32","5.0.14.0","2","54","trial1","naming","0","0","0","0","burner","0","3180","1","White_Screen.jpg","0","39","Stove_Portable.jpg","0"
"022420","15:15:19","32","32","5.0.14.0","2","55","trial1","naming","0","0","0","0","dropper","0","3979","1","White_Screen.jpg","2","87","EyeDrops.jpg","2"
"022420","15:15:19","32","32","5.0.14.0","2","56","trial1","naming","0","0","0","0","cup","0","3058","1","White_Screen.jpg","2","66","Mug_Ceramic.jpg","2"
"022420","15:15:19","32","32","5.0.14.0","2","57","trial1","naming","0","0","0","0","swingset","0","3114","1","White_Screen.jpg","3","103","Swing_Child.jpg","3"
"022420","15:15:19","32","32","5.0.14.0","2","58","trial1","naming","0","0","0","0","salt shaker","0","4986","1","White_Screen.jpg","1","68","ChessPiece_Bishop.jpg","1"
"022420","15:15:19","32","32","5.0.14.0","2","59","trial1","naming","0","0","0","0","toy","0","5004","1","White_Screen.jpg","3","55","Toy_LambPlushie.jpg","3"
"022420","15:15:19","32","32","5.0.14.0","2","60","trial1","naming","0","0","0","0","wulitzer","0","7298","1","White_Screen.jpg","0","147","JukeboxAntique.jpg","0"
"022420","15:15:19","32","32","5.0.14.0","2","61","trial1","naming","0","0","0","0","pyramid","0","3631","1","White_Screen.jpg","0","179","PyramidWooden.jpg","0"
"022420","15:15:19","32","32","5.0.14.0","2","62","trial1","naming","0","0","0","0","movie projector","0","7764","1","White_Screen.jpg","2","167","Projector_Film.jpg","2"
"022420","15:15:19","32","32","5.0.14.0","2","63","trial1","naming","0","0","0","0","staples","0","2411","1","White_Screen.jpg","2","38","Staples.jpg","2"
"022420","15:15:19","32","32","5.0.14.0","2","64","trial1","naming","0","0","0","0","head band","0","4629","1","White_Screen.jpg","0","94","ReindeerHeadband.jpg","0"
"022420","15:15:19","32","32","5.0.14.0","2","65","trial1","naming","0","0","0","0","toy gun","0","6372","1","White_Screen.jpg","1","26","Gun_Nerf.jpg","1"
"022420","15:15:19","32","32","5.0.14.0","2","66","trial1","naming","0","0","0","0","tuxedo","0","4346","1","White_Screen.jpg","3","14","Tuxedo.jpg","3"
"022420","15:15:19","32","32","5.0.14.0","2","67","trial1","naming","0","0","0","0","swan","0","2158","1","White_Screen.jpg","1","175","Swan.jpg","1"
"022420","15:15:19","32","32","5.0.14.0","2","68","trial1","naming","0","0","0","0","mattress","0","2626","1","White_Screen.jpg","2","69","Mattress.jpg","2"
"022420","15:15:19","32","32","5.0.14.0","2","69","trial1","naming","0","0","0","0","moose","0","3158","1","White_Screen.jpg","2","142","Toy_Moose.jpg","2"
"022420","15:15:19","32","32","5.0.14.0","2","70","trial1","naming","0","0","0","0","seal","0","1968","1","White_Screen.jpg","0","83","Seal_animal.jpg","0"
"022420","15:15:19","32","32","5.0.14.0","2","71","trial1","naming","0","0","0","0","saw","0","2053","1","White_Screen.jpg","1","140","Blade_Tablesaw.jpg","1"
"022420","15:15:19","32","32","5.0.14.0","2","72","trial1","naming","0","0","0","0","maracas","0","3140","1","White_Screen.jpg","0","7","Maraca.jpg","0"
"022420","15:15:19","32","32","5.0.14.0","2","73","trial1","naming","0","0","0","0","fruit","0","4754","1","White_Screen.jpg","1","137","Fruit_Cactus.jpg","1"
"022420","15:15:19","32","32","5.0.14.0","2","74","trial1","naming","0","0","0","0","sink","0","2247","1","White_Screen.jpg","1","102","Sink_Bathroom.jpg","1"
"022420","15:15:19","32","32","5.0.14.0","2","75","trial1","naming","0","0","0","0","birdhouse","0","4215","1","White_Screen.jpg","0","88","TreeHouse.jpg","0"
"022420","15:15:19","32","32","5.0.14.0","2","76","trial1","naming","0","0","0","0","checkers set","0","7779","1","White_Screen.jpg","1","54","Boardgame_Checkers.jpg","1"
"022420","15:15:19","32","32","5.0.14.0","2","77","trial1","naming","0","0","0","0","light","0","5065","1","White_Screen.jpg","1","120","Light_Studio.jpg","1"
"022420","15:15:19","32","32","5.0.14.0","2","78","trial1","naming","0","0","0","0","earth","0","2224","1","White_Screen.jpg","2","40","Earth_Planet.jpg","2"
"022420","15:15:19","32","32","5.0.14.0","2","79","trial1","naming","0","0","0","0","stool","0","2365","1","White_Screen.jpg","1","114","Stool_Metal.jpg","1"
"022420","15:15:19","32","32","5.0.14.0","2","80","trial1","naming","0","0","0","0","clip","0","2718","1","White_Screen.jpg","1","33","Clip_Binder.jpg","1"
"022420","15:15:19","32","32","5.0.14.0","2","81","trial1","naming","0","0","0","0","gecko","0","3946","1","White_Screen.jpg","0","146","Gecko.jpg","0"
"022420","15:15:19","32","32","5.0.14.0","2","82","trial1","naming","0","0","0","0","oil light","0","9185","1","White_Screen.jpg","4","17","Cymbals.jpg","4"
"022420","15:15:19","32","32","5.0.14.0","2","83","trial1","naming","0","0","0","0","desk","0","2287","1","White_Screen.jpg","1","93","Desk_White.jpg","1"
"022420","15:15:19","32","32","5.0.14.0","2","84","trial1","naming","0","0","0","0","marker set","0","3460","1","White_Screen.jpg","2","151","ColoringSet.jpg","2"
"022420","15:15:19","32","32","5.0.14.0","2","85","trial1","naming","0","0","0","0","pliers","0","2734","1","White_Screen.jpg","1","171","Pliers_NeedleNose.jpg","1"
"022420","15:15:19","32","32","5.0.14.0","2","86","trial1","naming","0","0","0","0","cadbury chocolate egg","0","7723","1","White_Screen.jpg","1","173","Egg_Chocolate.jpg","1"
"022420","15:15:19","32","32","5.0.14.0","2","87","trial1","naming","0","0","0","0","battery","0","2772","1","White_Screen.jpg","2","132","Battery_AA.jpg","2"
"022420","15:15:19","32","32","5.0.14.0","2","88","trial1","naming","0","0","0","0","ice cream","0","2842","1","White_Screen.jpg","0","197","IceCream_Chocolate.jpg","0"
"022420","15:15:19","32","32","5.0.14.0","2","89","trial1","naming","0","0","0","0","almonds","0","3947","1","White_Screen.jpg","0","182","Nuts_PeanutsPeeled.jpg","0"
"022420","15:15:19","32","32","5.0.14.0","2","90","trial1","naming","0","0","0","0","peanuts","0","2608","1","White_Screen.jpg","2","101","Nuts_Peanuts.jpg","2"
"022420","15:15:19","32","32","5.0.14.0","2","91","trial1","naming","0","0","0","0","slide","0","2477","1","White_Screen.jpg","4","95","Slide.jpg","4"
"022420","15:15:19","32","32","5.0.14.0","2","92","trial1","naming","0","0","0","0","bear","0","2276","1","White_Screen.jpg","2","85","Toy_BearBlackPlastic.jpg","2"
"022420","15:15:19","32","32","5.0.14.0","2","93","trial1","naming","0","0","0","0","teddy bear","0","8640","1","White_Screen.jpg","1","10","Toy_BearBrownPlushie.jpg","1"
"022420","15:15:19","32","32","5.0.14.0","2","94","trial1","naming","0","0","0","0","radio","0","2595","1","White_Screen.jpg","4","116","Radio_Vintage.jpg","4"
"022420","15:15:19","32","32","5.0.14.0","2","95","trial1","naming","0","0","0","0","alien","0","2758","1","White_Screen.jpg","1","198","Toy_Alien.jpg","1"
"022420","15:15:19","32","32","5.0.14.0","2","96","trial1","naming","0","0","0","0","chain","0","3223","1","White_Screen.jpg","1","159","MetalChain.jpg","1"
"022420","15:15:19","32","32","5.0.14.0","2","97","trial1","naming","0","0","0","0","nurse kit","0","7785","1","White_Screen.jpg","1","84","Box_FirstAidOpen.jpg","1"
"022420","15:15:19","32","32","5.0.14.0","2","98","trial1","naming","0","0","0","0","polar bear","0","3403","1","White_Screen.jpg","3","110","BearPolar.jpg","3"
"022420","15:15:19","32","32","5.0.14.0","2","99","trial1","naming","0","0","0","0","potato","0","2371","1","White_Screen.jpg","1","112","Potato.jpg","1"
"022420","15:15:19","32","32","5.0.14.0","2","100","trial1","naming","0","0","0","0","orchid","0","3840","1","White_Screen.jpg","2","158","Flower_Orchid.jpg","2"
"022420","15:15:19","32","32","5.0.14.0","2","101","trial1","naming","0","0","0","0","lure","0","4446","1","White_Screen.jpg","0","41","Hook_Fish.jpg","0"
"022420","15:15:19","32","32","5.0.14.0","2","103","trial1","naming","0","0","0","0","sifter","0","5617","1","White_Screen.jpg","1","48","Steamer.jpg","1"
"022420","15:15:19","32","32","5.0.14.0","2","104","trial1","naming","0","0","0","0","toothbrush","0","3308","1","White_Screen.jpg","1","46","ToothBrush.jpg","1"
"022420","15:15:19","32","32","5.0.14.0","2","105","trial1","naming","0","0","0","0","gate","0","2377","1","White_Screen.jpg","2","152","Fence_Wooden.jpg","2"
"022420","15:15:19","32","32","5.0.14.0","2","106","trial1","naming","0","0","0","0","bowl","0","4095","1","White_Screen.jpg","0","193","Vase_EarthToned.jpg","0"
"022420","15:15:19","32","32","5.0.14.0","2","107","trial1","naming","0","0","0","0","grapes","0","2722","1","White_Screen.jpg","1","126","Currants.jpg","1"
"022420","15:15:19","32","32","5.0.14.0","2","108","trial1","naming","0","0","0","0","elephant","0","4103","1","White_Screen.jpg","1","138","Toy_ElephantPlastic.jpg","1"
"022420","15:15:19","32","32","5.0.14.0","2","109","trial1","naming","0","0","0","0","chairs","0","4225","1","White_Screen.jpg","2","199","Chairs_Stacked.jpg","2"
"022420","15:15:19","32","32","5.0.14.0","2","110","trial1","naming","0","0","0","0","croissant","0","3493","1","White_Screen.jpg","2","108","Croissant.jpg","2"
"022420","15:15:19","32","32","5.0.14.0","2","111","trial1","naming","0","0","0","0","lobster","0","2197","1","White_Screen.jpg","0","15","Lobster.jpg","0"
"022420","15:15:19","32","32","5.0.14.0","2","112","trial1","naming","0","0","0","0","angle","0","7139","1","White_Screen.jpg","0","62","Protractor.jpg","0"
"022420","15:15:19","32","32","5.0.14.0","2","113","trial1","naming","0","0","0","0","cup","0","4071","1","White_Screen.jpg","2","32","Cup_sippy.jpg","2"
"022420","15:15:19","32","32","5.0.14.0","2","114","trial1","naming","0","0","0","0","milk","0","7298","1","White_Screen.jpg","1","5","Can_Milk.jpg","1"
"022420","15:15:19","32","32","5.0.14.0","2","115","trial1","naming","0","0","0","0","pyramid","0","3041","1","White_Screen.jpg","0","188","Pyramid.jpg","0"
"022420","15:15:19","32","32","5.0.14.0","2","116","trial1","naming","0","0","0","0","pancakes","0","3035","1","White_Screen.jpg","1","111","Pancakes.jpg","1"
"022420","15:15:19","32","32","5.0.14.0","2","117","trial1","naming","0","0","0","0","bicycle","0","3034","1","White_Screen.jpg","0","180","Bicycle_Kids.jpg","0"
"022420","15:15:19","32","32","5.0.14.0","2","118","trial1","naming","0","0","0","0","sushi","0","2619","1","White_Screen.jpg","0","77","Sushi.jpg","0"
"022420","15:15:19","32","32","5.0.14.0","2","119","trial1","naming","0","0","0","0","taxi sign","0","4745","1","White_Screen.jpg","1","156","Sign_Taxi.jpg","1"
"022420","15:15:19","32","32","5.0.14.0","2","120","trial1","naming","0","0","0","0","wrapped candy","0","3415","1","White_Screen.jpg","0","18","Candy_Lozenge.jpg","0"
"022420","15:15:19","32","32","5.0.14.0","2","121","trial1","naming","0","0","0","0","van","0","2846","1","White_Screen.jpg","1","44","Van.jpg","1"
"022420","15:15:19","32","32","5.0.14.0","2","122","trial1","naming","0","0","0","0","window","0","2885","1","White_Screen.jpg","1","124","DormerWindow.jpg","1"
"022420","15:15:19","32","32","5.0.14.0","2","123","trial1","naming","0","0","0","0","scene board","0","8065","1","White_Screen.jpg","0","189","MovieSlate.jpg","0"
"022420","15:15:19","32","32","5.0.14.0","2","124","trial1","naming","0","0","0","0","camp chair","0","4857","1","White_Screen.jpg","1","31","Stool_Camping.jpg","1"
"022420","15:15:19","32","32","5.0.14.0","2","125","trial1","naming","0","0","0","0","saint bernard","0","4722","1","White_Screen.jpg","2","9","Dog_SaintBernard.jpg","2"
"022420","15:15:19","32","32","5.0.14.0","2","126","trial1","naming","0","0","0","0","jars of food","0","7552","1","White_Screen.jpg","2","113","Jars_PetFood.jpg","2"
"022420","15:15:19","32","32","5.0.14.0","2","127","trial1","naming","0","0","0","0","dipper","0","6740","1","White_Screen.jpg","1","168","Spoon_Serving.jpg","1"
"022420","15:15:19","32","32","5.0.14.0","2","128","trial1","naming","0","0","0","0","toy gun","0","3881","1","White_Screen.jpg","1","91","WaterGun.jpg","1"
"022420","15:15:19","32","32","5.0.14.0","2","129","trial1","naming","0","0","0","0","plate","0","1937","1","White_Screen.jpg","1","118","Plate_Ceramic.jpg","1"
"022420","15:15:19","32","32","5.0.14.0","2","130","trial1","naming","0","0","0","0","tricycle","0","2956","1","White_Screen.jpg","4","35","Tricycle.jpg","4"
"022420","15:15:19","32","32","5.0.14.0","2","131","trial1","naming","0","0","0","0","window","0","2081","1","White_Screen.jpg","2","181","Window.jpg","2"
"022420","15:15:19","32","32","5.0.14.0","2","132","trial1","naming","0","0","0","0","bug in amber","0","4273","1","White_Screen.jpg","0","192","AmberWithMosquito.jpg","0"
"022420","15:15:19","32","32","5.0.14.0","2","133","trial1","naming","0","0","0","0","outhouse","0","2834","1","White_Screen.jpg","0","45","Outhouse.jpg","0"
"022420","15:15:19","32","32","5.0.14.0","2","134","trial1","naming","0","0","0","0","frying utensil","0","6822","1","White_Screen.jpg","1","154","DeepFryer.jpg","1"
"022420","15:15:19","32","32","5.0.14.0","2","135","trial1","naming","0","0","0","0","handlebar","0","3408","1","White_Screen.jpg","2","67","BicycleBrake.jpg","2"
"022420","15:15:19","32","32","5.0.14.0","2","136","trial1","naming","0","0","0","0","tablesaw","0","4162","1","White_Screen.jpg","1","8","Table_Saw.jpg","1"
"022420","15:15:19","32","32","5.0.14.0","2","137","trial1","naming","0","0","0","0","lightpost","0","3228","1","White_Screen.jpg","1","162","LampPost_ThreeBulbs.jpg","1"
"022420","15:15:19","32","32","5.0.14.0","2","138","trial1","naming","0","0","0","0","baseball cap","0","5002","1","White_Screen.jpg","1","195","Hat_Baseball.jpg","1"
"022420","15:15:19","32","32","5.0.14.0","2","139","trial1","naming","0","0","0","0","latte maker","0","10000","1","White_Screen.jpg","2","53","EspressoMachine.jpg","2"
"022420","15:15:19","32","32","5.0.14.0","2","140","trial1","naming","0","0","0","0","shirt","0","4907","1","White_Screen.jpg","4","190","ClothRed.jpg","4"
"022420","15:15:19","32","32","5.0.14.0","2","141","trial1","naming","0","0","0","0","bench","0","4066","1","White_Screen.jpg","0","86","Bench_Wooden.jpg","0"
"022420","15:15:19","32","32","5.0.14.0","2","142","trial1","naming","0","0","0","0","lemons","0","2060","1","White_Screen.jpg","3","90","Bowl_Lemons.jpg","3"
"022420","15:15:19","32","32","5.0.14.0","2","143","trial1","naming","0","0","0","0","ekg tape","0","5468","1","White_Screen.jpg","1","164","Machine_EKG.jpg","1"
"022420","15:15:19","32","32","5.0.14.0","2","144","trial1","naming","0","0","0","0","oboe","0","4967","1","White_Screen.jpg","1","184","Clarinet.jpg","1"
"022420","15:15:19","32","32","5.0.14.0","2","145","trial1","naming","0","0","0","0","emergency light","0","6063","1","White_Screen.jpg","1","121","BicycleReflector.jpg","1"
"022420","15:15:19","32","32","5.0.14.0","2","146","trial1","naming","0","0","0","0","toaster","0","3791","1","White_Screen.jpg","1","172","Toaster_Antique.jpg","1"
"022420","15:15:19","32","32","5.0.14.0","2","147","trial1","naming","0","0","0","0","rocket","0","4632","1","White_Screen.jpg","1","107","Torpedo.jpg","1"
"022420","15:15:19","32","32","5.0.14.0","2","148","trial1","naming","0","0","0","0","puppet show","0","5852","1","White_Screen.jpg","3","61","PuppetTheatre_BlueRed.jpg","3"
"022420","15:15:19","32","32","5.0.14.0","2","149","trial1","naming","0","0","0","0","Enter Name","0","10000","1","White_Screen.jpg","0","165","Jacks.jpg","0"
"022420","15:15:19","32","32","5.0.14.0","2","150","trial1","naming","0","0","0","0","heart","0","2661","1","White_Screen.jpg","0","161","Pillow_Heart.jpg","0"
"022420","15:15:19","32","32","5.0.14.0","2","151","trial1","naming","0","0","0","0","pump","0","3325","1","White_Screen.jpg","3","160","GasStation.jpg","3"
"022420","15:15:19","32","32","5.0.14.0","2","152","trial1","naming","0","0","0","0","masher","0","4437","1","White_Screen.jpg","2","4","PotatoMasher_Grate.jpg","2"
"022420","15:15:19","32","32","5.0.14.0","2","154","trial1","naming","0","0","0","0","funnel","0","2527","1","White_Screen.jpg","1","134","Funnel.jpg","1"
"022420","15:15:19","32","32","5.0.14.0","2","155","trial1","naming","0","0","0","0","briefcase","0","3949","1","White_Screen.jpg","4","63","Bag_Computer.jpg","4"
"022420","15:15:19","32","32","5.0.14.0","2","156","trial1","naming","0","0","0","0","monitor","0","3787","1","White_Screen.jpg","2","96","Monitor.jpg","2"
"022420","15:15:19","32","32","5.0.14.0","2","157","trial1","naming","0","0","0","0","skull","0","2157","1","White_Screen.jpg","2","19","HumanSkull.jpg","2"
"022420","15:15:19","32","32","5.0.14.0","2","158","trial1","naming","0","0","0","0","shoe form","0","3061","1","White_Screen.jpg","0","49","Shoes_Mould.jpg","0"
"022420","15:15:19","32","32","5.0.14.0","2","159","trial1","naming","0","0","0","0","boat","0","2206","1","White_Screen.jpg","2","36","Boat_Colourful.jpg","2"
"022420","15:15:19","32","32","5.0.14.0","2","160","trial1","naming","0","0","0","0","electric socket","0","10000","1","White_Screen.jpg","2","177","ElectricOutlet.jpg","2"
"022420","15:15:19","32","32","5.0.14.0","2","161","trial1","naming","0","0","0","0","heater","0","3579","1","White_Screen.jpg","2","163","Heater_Infrared.jpg","2"
"022420","15:15:19","32","32","5.0.14.0","2","162","trial1","naming","0","0","0","0","exercise board","0","5626","1","White_Screen.jpg","5","191","Exercise_Stepper.jpg","5"
"022420","15:15:19","32","32","5.0.14.0","2","163","trial1","naming","0","0","0","0","party hat","0","4238","1","White_Screen.jpg","1","141","Hat_Party.jpg","1"
"022420","15:15:19","32","32","5.0.14.0","2","164","trial1","naming","0","0","0","0","goggles","0","4496","1","White_Screen.jpg","1","186","OperaGlasses.jpg","1"
"022420","15:15:19","32","32","5.0.14.0","2","165","trial1","naming","0","0","0","0","bike hat","0","4362","1","White_Screen.jpg","1","47","Helmet_Bicycle.jpg","1"
"022420","15:15:19","32","32","5.0.14.0","2","166","trial1","naming","0","0","0","0","candle","0","2412","1","White_Screen.jpg","2","50","Candle_Blue.jpg","2"
"022420","15:15:19","32","32","5.0.14.0","2","167","trial1","naming","0","0","0","0","poker","0","5436","1","White_Screen.jpg","2","166","Fork_Fondue.jpg","2"
"022420","15:15:19","32","32","5.0.14.0","2","168","trial1","naming","0","0","0","0","ginger","0","3221","1","White_Screen.jpg","0","22","Ginger.jpg","0"
"022420","15:15:19","32","32","5.0.14.0","2","169","trial1","naming","0","0","0","0","cutting board","0","4513","1","White_Screen.jpg","3","144","CuttingBoard.jpg","3"
"022420","15:15:19","32","32","5.0.14.0","2","170","trial1","naming","0","0","0","0","gas can","0","4380","1","White_Screen.jpg","1","97","Cannister_GasVintage.jpg","1"
"022420","15:15:19","32","32","5.0.14.0","2","171","trial1","naming","0","0","0","0","ruler","0","2682","1","White_Screen.jpg","2","196","Ruler_Metal.jpg","2"
"022420","15:15:19","32","32","5.0.14.0","2","172","trial1","naming","0","0","0","0","spiral staircase","0","8319","1","White_Screen.jpg","0","58","Staircase_Curving.jpg","0"
"022420","15:15:19","32","32","5.0.14.0","2","173","trial1","naming","0","0","0","0","ice cubes","0","2843","1","White_Screen.jpg","2","194","IceCubes.jpg","2"
"022420","15:15:19","32","32","5.0.14.0","2","174","trial1","naming","0","0","0","0","lights","0","4372","1","White_Screen.jpg","1","80","Light_Fixtures.jpg","1"
"022420","15:15:19","32","32","5.0.14.0","2","175","trial1","naming","0","0","0","0","tiara","0","2646","1","White_Screen.jpg","1","122","Tiara.jpg","1"
"022420","15:15:19","32","32","5.0.14.0","2","176","trial1","naming","0","0","0","0","chain saw","0","2649","1","White_Screen.jpg","1","52","Chainsaw.jpg","1"
"022420","15:15:19","32","32","5.0.14.0","2","177","trial1","naming","0","0","0","0","golf clubs","0","3829","1","White_Screen.jpg","3","29","Golf_Bag.jpg","3"
"022420","15:15:19","32","32","5.0.14.0","2","178","trial1","naming","0","0","0","0","scope","0","3522","1","White_Screen.jpg","0","89","Gun_Bazooka.jpg","0"
"022420","15:15:19","32","32","5.0.14.0","2","179","trial1","naming","0","0","0","0","planter","0","2206","1","White_Screen.jpg","1","117","Pot_FlowerClay.jpg","1"
"022420","15:15:19","32","32","5.0.14.0","2","180","trial1","naming","0","0","0","0","garden hose","0","3286","1","White_Screen.jpg","1","149","Hose_Garden.jpg","1"
"022420","15:15:19","32","32","5.0.14.0","2","181","trial1","naming","0","0","0","0","ice cubes","0","2775","1","White_Screen.jpg","1","178","IceCubes copy.jpg","1"
"022420","15:15:19","32","32","5.0.14.0","2","182","trial1","naming","0","0","0","0","diving board","0","3166","1","White_Screen.jpg","1","115","DivingBoard.jpg","1"
"022420","15:15:19","32","32","5.0.14.0","2","183","trial1","naming","0","0","0","0","horn","0","3225","1","White_Screen.jpg","2","74","Bugle.jpg","2"
"022420","15:15:19","32","32","5.0.14.0","2","184","trial1","naming","0","0","0","0","cleaner","0","6695","1","White_Screen.jpg","1","28","Brush_Windshield.jpg","1"
"022420","15:15:19","32","32","5.0.14.0","2","185","trial1","naming","0","0","0","0","ace bandage","0","3646","1","White_Screen.jpg","1","150","Bandage_Wrap.jpg","1"
"022420","15:15:19","32","32","5.0.14.0","2","186","trial1","naming","0","0","0","0","podium","0","4256","1","White_Screen.jpg","2","174","Lectern.jpg","2"
"022420","15:15:19","32","32","5.0.14.0","2","187","trial1","naming","0","0","0","0","chair","0","2169","1","White_Screen.jpg","1","64","Chair_Office.jpg","1"
"022420","15:15:19","32","32","5.0.14.0","2","188","trial1","naming","0","0","0","0","cranberries","0","4758","1","White_Screen.jpg","4","24","Cranberry.jpg","4"
"022420","15:15:19","32","32","5.0.14.0","2","189","trial1","naming","0","0","0","0","zucchini","0","3960","1","White_Screen.jpg","1","119","Cucumber.jpg","1"
"022420","15:15:19","32","32","5.0.14.0","2","190","trial1","naming","0","0","0","0","mouse trap","0","3059","1","White_Screen.jpg","1","105","Mousetrap.jpg","1"
"022420","15:15:19","32","32","5.0.14.0","2","191","trial1","naming","0","0","0","0","guacamole","0","6102","1","White_Screen.jpg","1","20","Guacamole.jpg","1"
"022420","15:15:19","32","32","5.0.14.0","2","192","trial1","naming","0","0","0","0","alarm clock","0","3305","1","White_Screen.jpg","3","59","Clock_Digital.jpg","3"
"022420","15:15:19","32","32","5.0.14.0","2","193","trial1","naming","0","0","0","0","cigarette ashtray","0","6471","1","White_Screen.jpg","0","2","Ashtray_Cigarettes.jpg","0"
"022420","15:15:19","32","32","5.0.14.0","2","194","trial1","naming","0","0","0","0","macaw","0","7023","1","White_Screen.jpg","0","176","Bird_Toucan.jpg","0"
"022420","15:15:19","32","32","5.0.14.0","2","195","trial1","naming","0","0","0","0","answering machine","0","4592","1","White_Screen.jpg","0","37","AnsweringMachine.jpg","0"
"022420","15:15:19","32","32","5.0.14.0","2","196","trial1","naming","0","0","0","0","awning","0","5233","1","White_Screen.jpg","1","6","Awning.jpg","1"
"022420","15:15:19","32","32","5.0.14.0","2","197","trial1","naming","0","0","0","0","birdhouse","0","2755","1","White_Screen.jpg","2","75","Birdhouse.jpg","2"
"022420","15:15:19","32","32","5.0.14.0","2","198","trial1","naming","0","0","0","0","casino game","0","6556","1","White_Screen.jpg","1","170","Table_Poker.jpg","1"
"022420","15:15:19","32","32","5.0.14.0","2","199","trial1","naming","0","0","0","0","electric panel","0","7384","1","White_Screen.jpg","1","109","FuseBox.jpg","1"
"022420","15:15:19","32","32","5.0.14.0","2","200","trial1","naming","0","0","0","0","eggplant","0","5486","1","White_Screen.jpg","1","200","Eggplant.jpg","1"
"022420","15:15:19","32","32","5.0.14.0","2","201","trial1","naming","0","0","0","0","rooster","0","2769","1","White_Screen.jpg","1","12","Toy_Rooster.jpg","1"
"022420","15:15:19","32","32","5.0.14.0","2","202","trial1","naming","0","0","0","0","emu","0","3147","1","White_Screen.jpg","1","133","Ostrich.jpg","1"
"022420","15:15:19","32","32","5.0.14.0","2","203","trial1","naming","0","0","0","0","lizard","0","5531","1","White_Screen.jpg","1","21","Iguana.jpg","1"
"022420","15:15:19","32","32","5.0.14.0","3","1","demographics_block","gender","0","0","0","0","female","1","21788","0","0","0","0","0","0"
"022420","15:15:19","32","32","5.0.14.0","3","1","demographics_block","age","0","0","0","0","55","1","21788","0","0","0","0","0","0"
"022420","15:15:19","32","32","5.0.14.0","3","1","demographics_block","education","0","0","0","0","16","1","21788","0","0","0","0","0","0"
"022420","15:15:19","32","32","5.0.14.0","3","2","demographics_block","left_right_handed","0","0","0","0","Right","1","6881","0","0","0","0","0","0"
"022420","15:15:19","32","32","5.0.14.0","3","2","demographics_block","raceoption1","0","0","0","0","0","1","6881","0","0","0","0","0","0"
"022420","15:15:19","32","32","5.0.14.0","3","2","demographics_block","raceoption2","0","0","0","0","","1","6881","0","0","0","0","0","0"
"022420","15:15:19","32","32","5.0.14.0","3","2","demographics_block","raceoption3","0","0","0","0","","1","6881","0","0","0","0","0","0"
"022420","15:15:19","32","32","5.0.14.0","3","2","demographics_block","raceoption4","0","0","0","0","","1","6881","0","0","0","0","0","0"
"022420","15:15:19","32","32","5.0.14.0","3","2","demographics_block","raceoption5","0","0","0","0","","1","6881","0","0","0","0","0","0"
"022420","15:15:19","32","32","5.0.14.0","3","2","demographics_block","raceoption6","0","0","0","0","","1","6881","0","0","0","0","0","0"
"022420","15:15:19","32","32","5.0.14.0","3","2","demographics_block","raceoption7","0","0","0","0","","1","6881","0","0","0","0","0","0"
"022420","15:15:19","32","32","5.0.14.0","3","2","demographics_block","raceoption8","0","0","0","0","","1","6881","0","0","0","0","0","0"
"022420","15:15:19","32","32","5.0.14.0","3","2","demographics_block","raceoption9","0","0","0","0","","1","6881","0","0","0","0","0","0"
"022420","15:15:19","32","32","5.0.14.0","3","2","demographics_block","raceother","0","0","0","0","","1","6881","0","0","0","0","0","0"
"022420","15:15:19","32","32","5.0.14.0","3","2","demographics_block","raceother","0","0","0","0","","1","6881","0","0","0","0","0","0"
"022420","15:15:19","32","32","5.0.14.0","3","2","demographics_block","english_language","0","0","0","0","Yes","1","6881","0","0","0","0","0","0"
"022420","15:15:19","32","32","5.0.14.0","3","2","demographics_block","english_languageother","0","0","0","0","","1","6881","0","0","0","0","0","0"
"022420","15:15:19","32","32","5.0.14.0","3","3","demographics_block","eyesight","0","0","0","0","Yes","1","6184","0","0","0","0","0","0"
"022420","15:15:19","32","32","5.0.14.0","3","3","demographics_block","colorblind","0","0","0","0","No","1","6184","0","0","0","0","0","0"
"022420","15:15:19","32","32","5.0.14.0","4","1","worker_id_block","worker_id_textbox","0","0","0","0","A1SHLWKA0UH1IS","1","38122","0","0","0","0","0","0"
"022520","05:14:30","30","30","5.0.14.0","2","1","trial1","naming","0","0","0","0","","0","10000","1","White_Screen.jpg","76","128","CinderBlock.jpg","76"
"022520","05:14:30","30","30","5.0.14.0","2","2","trial1","naming","0","0","0","0","electrical panel","0","9886","1","White_Screen.jpg","19","109","FuseBox.jpg","19"
"022520","05:14:30","30","30","5.0.14.0","2","3","trial1","naming","0","0","0","0","lips","0","3707","1","White_Screen.jpg","14","92","Lips_Real.jpg","14"
"022520","05:14:30","30","30","5.0.14.0","2","4","trial1","naming","0","0","0","0","earth","0","4946","1","White_Screen.jpg","14","40","Earth_Planet.jpg","14"
"022520","05:14:30","30","30","5.0.14.0","2","5","trial1","naming","0","0","0","0","bone","0","4295","1","White_Screen.jpg","28","183","DogToy.jpg","28"
"022520","05:14:30","30","30","5.0.14.0","2","6","trial1","naming","0","0","0","0","mattress","0","4744","1","White_Screen.jpg","33","69","Mattress.jpg","33"
"022520","05:14:30","30","30","5.0.14.0","2","7","trial1","naming","0","0","0","0","pancakes","0","4364","1","White_Screen.jpg","16","111","Pancakes.jpg","16"
"022520","05:14:30","30","30","5.0.14.0","2","8","trial1","naming","0","0","0","0","elk","0","4849","1","White_Screen.jpg","15","142","Toy_Moose.jpg","15"
"022520","05:14:30","30","30","5.0.14.0","2","9","trial1","naming","0","0","0","0","ruler","0","2908","1","White_Screen.jpg","19","196","Ruler_Metal.jpg","19"
"022520","05:14:30","30","30","5.0.14.0","2","10","trial1","naming","0","0","0","0","cucumber","0","3252","1","White_Screen.jpg","15","119","Cucumber.jpg","15"
"022520","05:14:30","30","30","5.0.14.0","2","11","trial1","naming","0","0","0","0","peas","0","6719","1","White_Screen.jpg","13","20","Guacamole.jpg","13"
"022520","05:14:30","30","30","5.0.14.0","2","12","trial1","naming","0","0","0","0","horn of plenEnter Name","0","10000","1","White_Screen.jpg","15","25","Cornucopia.jpg","15"
"022520","05:14:30","30","30","5.0.14.0","2","13","trial1","naming","0","0","0","0","missile","0","3963","1","White_Screen.jpg","16","107","Torpedo.jpg","16"
"022520","05:14:30","30","30","5.0.14.0","2","14","trial1","naming","0","0","0","0","heart","0","3123","1","White_Screen.jpg","22","161","Pillow_Heart.jpg","22"
"022520","05:14:30","30","30","5.0.14.0","2","15","trial1","naming","0","0","0","0","alien","0","3482","1","White_Screen.jpg","28","198","Toy_Alien.jpg","28"
"022520","05:14:30","30","30","5.0.14.0","2","16","trial1","naming","0","0","0","0","bonnet","0","4868","1","White_Screen.jpg","16","190","ClothRed.jpg","16"
"022520","05:14:30","30","30","5.0.14.0","2","17","trial1","naming","0","0","0","0","ice cream","0","4353","1","White_Screen.jpg","16","197","IceCream_Chocolate.jpg","16"
"022520","05:14:30","30","30","5.0.14.0","2","18","trial1","naming","0","0","0","0","fire stoker","0","8677","1","White_Screen.jpg","16","42","Bellows.jpg","16"
"022520","05:14:30","30","30","5.0.14.0","2","19","trial1","naming","0","0","0","0","lure","0","3735","1","White_Screen.jpg","16","41","Hook_Fish.jpg","16"
"022520","05:14:30","30","30","5.0.14.0","2","20","trial1","naming","0","0","0","0","window","0","3190","1","White_Screen.jpg","14","181","Window.jpg","14"
"022520","05:14:30","30","30","5.0.14.0","2","21","trial1","naming","0","0","0","0","burner","0","3776","1","White_Screen.jpg","16","39","Stove_Portable.jpg","16"
"022520","05:14:30","30","30","5.0.14.0","2","22","trial1","naming","0","0","0","0","nuts","0","5418","1","White_Screen.jpg","17","182","Nuts_PeanutsPeeled.jpg","17"
"022520","05:14:30","30","30","5.0.14.0","2","23","trial1","naming","0","0","0","0","Enter Name","0","10000","1","White_Screen.jpg","15","21","Iguana.jpg","15"
"022520","05:14:30","30","30","5.0.14.0","2","24","trial1","naming","0","0","0","0","haEnter Name","0","10000","1","White_Screen.jpg","18","11","Hat_Beret.jpg","18"
"022520","05:14:30","30","30","5.0.14.0","2","25","trial1","naming","0","0","0","0","lamp","0","3460","1","White_Screen.jpg","15","162","LampPost_ThreeBulbs.jpg","15"
"022520","05:14:30","30","30","5.0.14.0","2","26","trial1","naming","0","0","0","0","milkshake","0","6140","1","White_Screen.jpg","16","34","Milkshake_Strawberry.jpg","16"
"022520","05:14:30","30","30","5.0.14.0","2","27","trial1","naming","0","0","0","0","chairs","0","3143","1","White_Screen.jpg","15","199","Chairs_Stacked.jpg","15"
"022520","05:14:30","30","30","5.0.14.0","2","28","trial1","naming","0","0","0","0","rake","0","2380","1","White_Screen.jpg","23","130","Toy_SandRake.jpg","23"
"022520","05:14:30","30","30","5.0.14.0","2","29","trial1","naming","0","0","0","0","chocolate","0","6512","1","White_Screen.jpg","15","173","Egg_Chocolate.jpg","15"
"022520","05:14:30","30","30","5.0.14.0","2","30","trial1","naming","0","0","0","0","eggplant","0","4275","1","White_Screen.jpg","16","200","Eggplant.jpg","16"
"022520","05:14:30","30","30","5.0.14.0","2","31","trial1","naming","0","0","0","0","doctor's bag","0","4998","1","White_Screen.jpg","20","187","Bag_Doctor.jpg","20"
"022520","05:14:30","30","30","5.0.14.0","2","32","trial1","naming","0","0","0","0","collandar ","0","5578","1","White_Screen.jpg","16","48","Steamer.jpg","16"
"022520","05:14:30","30","30","5.0.14.0","2","33","trial1","naming","0","0","0","0","tiara","0","4292","1","White_Screen.jpg","16","122","Tiara.jpg","16"
"022520","05:14:30","30","30","5.0.14.0","2","34","trial1","naming","0","0","0","0","french horn","0","6612","1","White_Screen.jpg","31","74","Bugle.jpg","31"
"022520","05:14:30","30","30","5.0.14.0","2","35","trial1","naming","0","0","0","0","bike handle","0","5572","1","White_Screen.jpg","22","67","BicycleBrake.jpg","22"
"022520","05:14:30","30","30","5.0.14.0","2","36","trial1","naming","0","0","0","0","frying pan","0","4150","1","White_Screen.jpg","23","70","PanCooking.jpg","23"
"022520","05:14:30","30","30","5.0.14.0","2","37","trial1","naming","0","0","0","0","saw blade","0","4487","1","White_Screen.jpg","17","140","Blade_Tablesaw.jpg","17"
"022520","05:14:30","30","30","5.0.14.0","2","38","trial1","naming","0","0","0","0","plate","0","2934","1","White_Screen.jpg","16","118","Plate_Ceramic.jpg","16"
"022520","05:14:30","30","30","5.0.14.0","2","39","trial1","naming","0","0","0","0","orchids","0","6250","1","White_Screen.jpg","19","158","Flower_Orchid.jpg","19"
"022520","05:14:30","30","30","5.0.14.0","2","40","trial1","naming","0","0","0","0","water pistol","0","5704","1","White_Screen.jpg","16","91","WaterGun.jpg","16"
"022520","05:14:30","30","30","5.0.14.0","2","41","trial1","naming","0","0","0","0","candle","0","3706","1","White_Screen.jpg","19","50","Candle_Blue.jpg","19"
"022520","05:14:30","30","30","5.0.14.0","2","42","trial1","naming","0","0","0","0","battery","0","3183","1","White_Screen.jpg","29","132","Battery_AA.jpg","29"
"022520","05:14:30","30","30","5.0.14.0","2","43","trial1","naming","0","0","0","0","egg soundproofing","0","10000","1","White_Screen.jpg","18","81","Foam_Accoustic.jpg","18"
"022520","05:14:30","30","30","5.0.14.0","2","44","trial1","naming","0","0","0","0","Enter Name","0","73","1","White_Screen.jpg","16","54","Boardgame_Checkers.jpg","16"
"022520","05:14:30","30","30","5.0.14.0","2","45","trial1","naming","0","0","0","0","spiral ","0","10000","1","White_Screen.jpg","20","58","Staircase_Curving.jpg","20"
"022520","05:14:30","30","30","5.0.14.0","2","46","trial1","naming","0","0","0","0","shoe","0","4033","1","White_Screen.jpg","15","76","Shoe_Men.jpg","15"
"022520","05:14:30","30","30","5.0.14.0","2","47","trial1","naming","0","0","0","0","telescope","0","10000","1","White_Screen.jpg","17","89","Gun_Bazooka.jpg","17"
"022520","05:14:30","30","30","5.0.14.0","2","48","trial1","naming","0","0","0","0","birdhouse","0","5091","1","White_Screen.jpg","18","75","Birdhouse.jpg","18"
"022520","05:14:30","30","30","5.0.14.0","2","49","trial1","naming","0","0","0","0","photography light","0","10000","1","White_Screen.jpg","17","120","Light_Studio.jpg","17"
"022520","05:14:30","30","30","5.0.14.0","2","50","trial1","naming","0","0","0","0","bird house","0","4029","1","White_Screen.jpg","16","88","TreeHouse.jpg","16"
"022520","05:14:30","30","30","5.0.14.0","2","52","trial1","naming","0","0","0","0","Enter Name","0","10000","1","White_Screen.jpg","17","194","IceCubes.jpg","17"
"022520","05:14:30","30","30","5.0.14.0","2","53","trial1","naming","0","0","0","0","outhouse","0","10000","1","White_Screen.jpg","16","45","Outhouse.jpg","16"
"022520","05:14:30","30","30","5.0.14.0","2","54","trial1","naming","0","0","0","0","olives","0","3887","1","White_Screen.jpg","21","13","Olives.jpg","21"
"022520","05:14:30","30","30","5.0.14.0","2","55","trial1","naming","0","0","0","0","staples","0","3476","1","White_Screen.jpg","30","38","Staples.jpg","30"
"022520","05:14:30","30","30","5.0.14.0","2","56","trial1","naming","0","0","0","0","bear","0","4633","1","White_Screen.jpg","15","110","BearPolar.jpg","15"
"022520","05:14:30","30","30","5.0.14.0","2","57","trial1","naming","0","0","0","0","brooch","0","6633","1","White_Screen.jpg","23","146","Gecko.jpg","23"
"022520","05:14:30","30","30","5.0.14.0","2","58","trial1","naming","0","0","0","0","jars","0","3646","1","White_Screen.jpg","16","113","Jars_PetFood.jpg","16"
"022520","05:14:30","30","30","5.0.14.0","2","59","trial1","naming","0","0","0","0","work lamp","0","4609","1","White_Screen.jpg","23","155","Light_Halogen.jpg","23"
"022520","05:14:30","30","30","5.0.14.0","2","60","trial1","naming","0","0","0","0","beater","0","3550","1","White_Screen.jpg","17","23","Mixer_Hand.jpg","17"
"022520","05:14:30","30","30","5.0.14.0","2","61","trial1","naming","0","0","0","0","boat","0","3524","1","White_Screen.jpg","14","36","Boat_Colourful.jpg","14"
"022520","05:14:30","30","30","5.0.14.0","2","62","trial1","naming","0","0","0","0","abacus","0","4770","1","White_Screen.jpg","15","56","Abacus.jpg","15"
"022520","05:14:30","30","30","5.0.14.0","2","63","trial1","naming","0","0","0","0","bread","0","3452","1","White_Screen.jpg","15","27","Bread_Melon.jpg","15"
"022520","05:14:30","30","30","5.0.14.0","2","64","trial1","naming","0","0","0","0","peanuts","0","3284","1","White_Screen.jpg","15","101","Nuts_Peanuts.jpg","15"
"022520","05:14:30","30","30","5.0.14.0","2","65","trial1","naming","0","0","0","0","swan","0","3025","1","White_Screen.jpg","18","175","Swan.jpg","18"
"022520","05:14:30","30","30","5.0.14.0","2","66","trial1","naming","0","0","0","0","desk","0","2897","1","White_Screen.jpg","19","93","Desk_White.jpg","19"
"022520","05:14:30","30","30","5.0.14.0","2","67","trial1","naming","0","0","0","0","maajong dice","0","10000","1","White_Screen.jpg","19","99","Tetrahedron.jpg","19"
"022520","05:14:30","30","30","5.0.14.0","2","68","trial1","naming","0","0","0","0","Enter Name","0","21","1","White_Screen.jpg","19","172","Toaster_Antique.jpg","19"
"022520","05:14:30","30","30","5.0.14.0","2","69","trial1","naming","0","0","0","0","deepfat fryer","0","6404","1","White_Screen.jpg","33","154","DeepFryer.jpg","33"
"022520","05:14:30","30","30","5.0.14.0","2","70","trial1","naming","0","0","0","0","table saw","0","4227","1","White_Screen.jpg","16","8","Table_Saw.jpg","16"
"022520","05:14:30","30","30","5.0.14.0","2","71","trial1","naming","0","0","0","0","nose spray","0","4435","1","White_Screen.jpg","16","87","EyeDrops.jpg","16"
"022520","05:14:30","30","30","5.0.14.0","2","72","trial1","naming","0","0","0","0","thermostat","0","4207","1","White_Screen.jpg","22","37","AnsweringMachine.jpg","22"
"022520","05:14:30","30","30","5.0.14.0","2","73","trial1","naming","0","0","0","0","shoe molds","0","5157","1","White_Screen.jpg","20","49","Shoes_Mould.jpg","20"
"022520","05:14:30","30","30","5.0.14.0","2","74","trial1","naming","0","0","0","0","pyramid","0","6407","1","White_Screen.jpg","17","179","PyramidWooden.jpg","17"
"022520","05:14:30","30","30","5.0.14.0","2","75","trial1","naming","0","0","0","0","drum set","0","3342","1","White_Screen.jpg","16","72","Drum_Set.jpg","16"
"022520","05:14:30","30","30","5.0.14.0","2","76","trial1","naming","0","0","0","0","candy","0","2963","1","White_Screen.jpg","16","18","Candy_Lozenge.jpg","16"
"022520","05:14:30","30","30","5.0.14.0","2","77","trial1","naming","0","0","0","0","rooster","0","2640","1","White_Screen.jpg","15","12","Toy_Rooster.jpg","15"
"022520","05:14:30","30","30","5.0.14.0","2","78","trial1","naming","0","0","0","0","croissant","0","4311","1","White_Screen.jpg","27","108","Croissant.jpg","27"
"022520","05:14:30","30","30","5.0.14.0","2","79","trial1","naming","0","0","0","0","snowboard","0","6067","1","White_Screen.jpg","27","125","Snowboard.jpg","27"
"022520","05:14:30","30","30","5.0.14.0","2","80","trial1","naming","0","0","0","0","bumper car","0","7021","1","White_Screen.jpg","14","65","BumperCar.jpg","14"
"022520","05:14:30","30","30","5.0.14.0","2","81","trial1","naming","0","0","0","0","briefcase","0","3383","1","White_Screen.jpg","17","63","Bag_Computer.jpg","17"
"022520","05:14:30","30","30","5.0.14.0","2","82","trial1","naming","0","0","0","0","stool","0","3980","1","White_Screen.jpg","25","114","Stool_Metal.jpg","25"
"022520","05:14:30","30","30","5.0.14.0","2","83","trial1","naming","0","0","0","0","dog","0","2717","1","White_Screen.jpg","17","135","Dog_CockerSpaniel.jpg","17"
"022520","05:14:30","30","30","5.0.14.0","2","84","trial1","naming","0","0","0","0","hole punch","0","4595","1","White_Screen.jpg","27","98","Embosser.jpg","27"
"022520","05:14:30","30","30","5.0.14.0","2","85","trial1","naming","0","0","0","0","red onion","0","6791","1","White_Screen.jpg","15","148","OnionRed.jpg","15"
"022520","05:14:30","30","30","5.0.14.0","2","86","trial1","naming","0","0","0","0","shoeshine box","0","8543","1","White_Screen.jpg","15","174","Lectern.jpg","15"
"022520","05:14:30","30","30","5.0.14.0","2","87","trial1","naming","0","0","0","0","keyboard mat","0","10000","1","White_Screen.jpg","16","136","DVDPlayer.jpg","16"
"022520","05:14:30","30","30","5.0.14.0","2","88","trial1","naming","0","0","0","0","Enter Name","0","10000","1","White_Screen.jpg","18","192","AmberWithMosquito.jpg","18"
"022520","05:14:30","30","30","5.0.14.0","2","89","trial1","naming","0","0","0","0","cymbals","0","8247","1","White_Screen.jpg","15","17","Cymbals.jpg","15"
"022520","05:14:30","30","30","5.0.14.0","2","90","trial1","naming","0","0","0","0","ticket booth","0","7404","1","White_Screen.jpg","32","100","AlcoholBar.jpg","32"
"022520","05:14:30","30","30","5.0.14.0","2","91","trial1","naming","0","0","0","0","helmet","0","3154","1","White_Screen.jpg","15","47","Helmet_Bicycle.jpg","15"
"022520","05:14:30","30","30","5.0.14.0","2","92","trial1","naming","0","0","0","0","thumb drive","0","7598","1","White_Screen.jpg","31","169","USBKey.jpg","31"
"022520","05:14:30","30","30","5.0.14.0","2","93","trial1","naming","0","0","0","0","ceiling light","0","5333","1","White_Screen.jpg","15","80","Light_Fixtures.jpg","15"
"022520","05:14:30","30","30","5.0.14.0","2","94","trial1","naming","0","0","0","0","olives","0","3291","1","White_Screen.jpg","21","60","Can_Olives.jpg","21"
"022520","05:14:30","30","30","5.0.14.0","2","95","trial1","naming","0","0","0","0","coffee mug","0","4593","1","White_Screen.jpg","22","66","Mug_Ceramic.jpg","22"
"022520","05:14:30","30","30","5.0.14.0","2","96","trial1","naming","0","0","0","0","door","0","4871","1","White_Screen.jpg","17","131","Door_Blue.jpg","17"
"022520","05:14:30","30","30","5.0.14.0","2","97","trial1","naming","0","0","0","0","stuffed lamb","0","5819","1","White_Screen.jpg","19","55","Toy_LambPlushie.jpg","19"
"022520","05:14:30","30","30","5.0.14.0","2","98","trial1","naming","0","0","0","0","ostrich","0","3729","1","White_Screen.jpg","19","133","Ostrich.jpg","19"
"022520","05:14:30","30","30","5.0.14.0","2","99","trial1","naming","0","0","0","0","guava","0","3471","1","White_Screen.jpg","28","137","Fruit_Cactus.jpg","28"
"022520","05:14:30","30","30","5.0.14.0","2","100","trial1","naming","0","0","0","0","toy lamp","0","6792","1","White_Screen.jpg","17","71","LumiereBeautyBeast.jpg","17"
"022520","05:14:30","30","30","5.0.14.0","2","101","trial1","naming","0","0","0","0","berries","0","6849","1","White_Screen.jpg","25","24","Cranberry.jpg","25"
"022520","05:14:30","30","30","5.0.14.0","2","103","trial1","naming","0","0","0","0","party hat","0","5279","1","White_Screen.jpg","15","141","Hat_Party.jpg","15"
"022520","05:14:30","30","30","5.0.14.0","2","104","trial1","naming","0","0","0","0","chair","0","3467","1","White_Screen.jpg","26","64","Chair_Office.jpg","26"
"022520","05:14:30","30","30","5.0.14.0","2","105","trial1","naming","0","0","0","0","mousetrap","0","3884","1","White_Screen.jpg","17","105","Mousetrap.jpg","17"
"022520","05:14:30","30","30","5.0.14.0","2","106","trial1","naming","0","0","0","0","video projector","0","4394","1","White_Screen.jpg","18","167","Projector_Film.jpg","18"
"022520","05:14:30","30","30","5.0.14.0","2","107","trial1","naming","0","0","0","0","gas pump","0","4792","1","White_Screen.jpg","20","160","GasStation.jpg","20"
"022520","05:14:30","30","30","5.0.14.0","2","108","trial1","naming","0","0","0","0","diving board","0","5440","1","White_Screen.jpg","21","115","DivingBoard.jpg","21"
"022520","05:14:30","30","30","5.0.14.0","2","109","trial1","naming","0","0","0","0","medical gauze","0","7463","1","White_Screen.jpg","21","150","Bandage_Wrap.jpg","21"
"022520","05:14:30","30","30","5.0.14.0","2","110","trial1","naming","0","0","0","0","army truck","0","4434","1","White_Screen.jpg","31","57","Truck_Army.jpg","31"
"022520","05:14:30","30","30","5.0.14.0","2","111","trial1","naming","0","0","0","0","football","0","3732","1","White_Screen.jpg","20","123","Ball_Football.jpg","20"
"022520","05:14:30","30","30","5.0.14.0","2","112","trial1","naming","0","0","0","0","camping stool","0","6445","1","White_Screen.jpg","15","31","Stool_Camping.jpg","15"
"022520","05:14:30","30","30","5.0.14.0","2","113","trial1","naming","0","0","0","0","kitchen towel","0","5627","1","White_Screen.jpg","15","82","KitchenCloth.jpg","15"
"022520","05:14:30","30","30","5.0.14.0","2","114","trial1","naming","0","0","0","0","paint kit","0","4836","1","White_Screen.jpg","15","151","ColoringSet.jpg","15"
"022520","05:14:30","30","30","5.0.14.0","2","115","trial1","naming","0","0","0","0","emergency kit","0","5837","1","White_Screen.jpg","20","84","Box_FirstAidOpen.jpg","20"
"022520","05:14:30","30","30","5.0.14.0","2","116","trial1","naming","0","0","0","0","california roll ","0","6641","1","White_Screen.jpg","19","77","Sushi.jpg","19"
"022520","05:14:30","30","30","5.0.14.0","2","117","trial1","naming","0","0","0","0","toucan","0","3822","1","White_Screen.jpg","25","176","Bird_Toucan.jpg","25"
"022520","05:14:30","30","30","5.0.14.0","2","118","trial1","naming","0","0","0","0","cheese grater","0","5350","1","White_Screen.jpg","17","129","Cheesegrater_Handheld.jpg","17"
"022520","05:14:30","30","30","5.0.14.0","2","119","trial1","naming","0","0","0","0","monitor","0","3963","1","White_Screen.jpg","15","96","Monitor.jpg","15"
"022520","05:14:30","30","30","5.0.14.0","2","120","trial1","naming","0","0","0","0","milkshake","0","3949","1","White_Screen.jpg","17","3","Milkshake_Chocolate.jpg","17"
"022520","05:14:30","30","30","5.0.14.0","2","121","trial1","naming","0","0","0","0","ice cubes","0","3370","1","White_Screen.jpg","23","178","IceCubes copy.jpg","23"
"022520","05:14:30","30","30","5.0.14.0","2","122","trial1","naming","0","0","0","0","heater","0","3858","1","White_Screen.jpg","20","163","Heater_Infrared.jpg","20"
"022520","05:14:30","30","30","5.0.14.0","2","123","trial1","naming","0","0","0","0","thermostat","0","3970","1","White_Screen.jpg","20","73","Thermostat_Digital.jpg","20"
"022520","05:14:30","30","30","5.0.14.0","2","124","trial1","naming","0","0","0","0","golf clubs","0","3471","1","White_Screen.jpg","17","29","Golf_Bag.jpg","17"
"022520","05:14:30","30","30","5.0.14.0","2","125","trial1","naming","0","0","0","0","water hose","0","3766","1","White_Screen.jpg","17","149","Hose_Garden.jpg","17"
"022520","05:14:30","30","30","5.0.14.0","2","126","trial1","naming","0","0","0","0","chainsaw","0","3183","1","White_Screen.jpg","20","52","Chainsaw.jpg","20"
"022520","05:14:30","30","30","5.0.14.0","2","127","trial1","naming","0","0","0","0","moving van","0","4647","1","White_Screen.jpg","23","44","Van.jpg","23"
"022520","05:14:30","30","30","5.0.14.0","2","128","trial1","naming","0","0","0","0","bench","0","2943","1","White_Screen.jpg","32","86","Bench_Wooden.jpg","32"
"022520","05:14:30","30","30","5.0.14.0","2","129","trial1","naming","0","0","0","0","","0","10000","1","White_Screen.jpg","31","22","Ginger.jpg","31"
"022520","05:14:30","30","30","5.0.14.0","2","130","trial1","naming","0","0","0","0","electrical outlet","0","6470","1","White_Screen.jpg","15","177","ElectricOutlet.jpg","15"
"022520","05:14:30","30","30","5.0.14.0","2","131","trial1","naming","0","0","0","0","clapboard","0","4617","1","White_Screen.jpg","26","189","MovieSlate.jpg","26"
"022520","05:14:30","30","30","5.0.14.0","2","132","trial1","naming","0","0","0","0","pawn","0","3612","1","White_Screen.jpg","16","68","ChessPiece_Bishop.jpg","16"
"022520","05:14:30","30","30","5.0.14.0","2","133","trial1","naming","0","0","0","0","sippy cup","0","5893","1","White_Screen.jpg","16","32","Cup_sippy.jpg","16"
"022520","05:14:30","30","30","5.0.14.0","2","134","trial1","naming","0","0","0","0","taxi sign","0","3409","1","White_Screen.jpg","16","156","Sign_Taxi.jpg","16"
"022520","05:14:30","30","30","5.0.14.0","2","135","trial1","naming","0","0","0","0","plyers","0","10000","1","White_Screen.jpg","14","171","Pliers_NeedleNose.jpg","14"
"022520","05:14:30","30","30","5.0.14.0","2","136","trial1","naming","0","0","0","0","maracas","0","9610","1","White_Screen.jpg","14","7","Maraca.jpg","14"
"022520","05:14:30","30","30","5.0.14.0","2","137","trial1","naming","0","0","0","0","4 wheeler","0","6933","1","White_Screen.jpg","24","157","AllTerrain.jpg","24"
"022520","05:14:30","30","30","5.0.14.0","2","138","trial1","naming","0","0","0","0","toy elephant","0","4542","1","White_Screen.jpg","26","138","Toy_ElephantPlastic.jpg","26"
"022520","05:14:30","30","30","5.0.14.0","2","139","trial1","naming","0","0","0","0","toothbrush","0","3502","1","White_Screen.jpg","12","46","ToothBrush.jpg","12"
"022520","05:14:30","30","30","5.0.14.0","2","140","trial1","naming","0","0","0","0","lazy susan","0","7137","1","White_Screen.jpg","19","144","CuttingBoard.jpg","19"
"022520","05:14:30","30","30","5.0.14.0","2","141","trial1","naming","0","0","0","0","pancake makeup","0","5018","1","White_Screen.jpg","16","16","Makeup_Compact.jpg","16"
"022520","05:14:30","30","30","5.0.14.0","2","142","trial1","naming","0","0","0","0","reindeer horns","0","5879","1","White_Screen.jpg","27","94","ReindeerHeadband.jpg","27"
"022520","05:14:30","30","30","5.0.14.0","2","143","trial1","naming","0","0","0","0","CB radio","0","5095","1","White_Screen.jpg","16","143","Phone_Military.jpg","16"
"022520","05:14:30","30","30","5.0.14.0","2","144","trial1","naming","0","0","0","0","gas can","0","4245","1","White_Screen.jpg","16","97","Cannister_GasVintage.jpg","16"
"022520","05:14:30","30","30","5.0.14.0","2","145","trial1","naming","0","0","0","0","alarm clock","0","3091","1","White_Screen.jpg","18","59","Clock_Digital.jpg","18"
"022520","05:14:30","30","30","5.0.14.0","2","146","trial1","naming","0","0","0","0","teddy bear","0","2932","1","White_Screen.jpg","23","10","Toy_BearBrownPlushie.jpg","23"
"022520","05:14:30","30","30","5.0.14.0","2","147","trial1","naming","0","0","0","0","vase","0","4071","1","White_Screen.jpg","26","193","Vase_EarthToned.jpg","26"
"022520","05:14:30","30","30","5.0.14.0","2","148","trial1","naming","0","0","0","0","opera glasses","0","5544","1","White_Screen.jpg","15","186","OperaGlasses.jpg","15"
"022520","05:14:30","30","30","5.0.14.0","2","149","trial1","naming","0","0","0","0","swingset","0","2939","1","White_Screen.jpg","19","103","Swing_Child.jpg","19"
"022520","05:14:30","30","30","5.0.14.0","2","150","trial1","naming","0","0","0","0","jack","0","5064","1","White_Screen.jpg","16","165","Jacks.jpg","16"
"022520","05:14:30","30","30","5.0.14.0","2","151","trial1","naming","0","0","0","0","cherry","0","3707","1","White_Screen.jpg","21","30","Cherry.jpg","21"
"022520","05:14:30","30","30","5.0.14.0","2","152","trial1","naming","0","0","0","0","plant pot","0","3663","1","White_Screen.jpg","21","117","Pot_FlowerClay.jpg","21"
"022520","05:14:30","30","30","5.0.14.0","2","154","trial1","naming","0","0","0","0","berries","0","5586","1","White_Screen.jpg","15","126","Currants.jpg","15"
"022520","05:14:30","30","30","5.0.14.0","2","155","trial1","naming","0","0","0","0","heart monitor","0","5683","1","White_Screen.jpg","15","164","Machine_EKG.jpg","15"
"022520","05:14:30","30","30","5.0.14.0","2","156","trial1","naming","0","0","0","0","prong fork","0","6306","1","White_Screen.jpg","14","166","Fork_Fondue.jpg","14"
"022520","05:14:30","30","30","5.0.14.0","2","157","trial1","naming","0","0","0","0","puppet show","0","3894","1","White_Screen.jpg","29","61","PuppetTheatre_BlueRed.jpg","29"
"022520","05:14:30","30","30","5.0.14.0","2","158","trial1","naming","0","0","0","0","milkshake","0","3162","1","White_Screen.jpg","15","104","Milkshake_StrawberryStraw.jpg","15"
"022520","05:14:30","30","30","5.0.14.0","2","159","trial1","naming","0","0","0","0","see saw","0","3334","1","White_Screen.jpg","16","106","Toy_SeeSaw.jpg","16"
"022520","05:14:30","30","30","5.0.14.0","2","160","trial1","naming","0","0","0","0","sink","0","2391","1","White_Screen.jpg","27","102","Sink_Bathroom.jpg","27"
"022520","05:14:30","30","30","5.0.14.0","2","161","trial1","naming","0","0","0","0","compass","0","3975","1","White_Screen.jpg","16","62","Protractor.jpg","16"
"022520","05:14:30","30","30","5.0.14.0","2","162","trial1","naming","0","0","0","0","tea dunker","0","6809","1","White_Screen.jpg","17","79","FlintIgniter.jpg","17"
"022520","05:14:30","30","30","5.0.14.0","2","163","trial1","naming","0","0","0","0","jukebox","0","3322","1","White_Screen.jpg","14","147","JukeboxAntique.jpg","14"
"022520","05:14:30","30","30","5.0.14.0","2","164","trial1","naming","0","0","0","0","cigarette lighter","0","4757","1","White_Screen.jpg","19","185","CarLighter.jpg","19"
"022520","05:14:30","30","30","5.0.14.0","2","165","trial1","naming","0","0","0","0","walrus","0","2409","1","White_Screen.jpg","16","83","Seal_animal.jpg","16"
"022520","05:14:30","30","30","5.0.14.0","2","166","trial1","naming","0","0","0","0","ashtray","0","5485","1","White_Screen.jpg","16","2","Ashtray_Cigarettes.jpg","16"
"022520","05:14:30","30","30","5.0.14.0","2","167","trial1","naming","0","0","0","0","bmx bike","0","5066","1","White_Screen.jpg","16","180","Bicycle_Kids.jpg","16"
"022520","05:14:30","30","30","5.0.14.0","2","168","trial1","naming","0","0","0","0","baseball cap","0","3417","1","White_Screen.jpg","15","195","Hat_Baseball.jpg","15"
"022520","05:14:30","30","30","5.0.14.0","2","169","trial1","naming","0","0","0","0","dormer window","0","4432","1","White_Screen.jpg","26","124","DormerWindow.jpg","26"
"022520","05:14:30","30","30","5.0.14.0","2","170","trial1","naming","0","0","0","0","radio","0","3162","1","White_Screen.jpg","17","116","Radio_Vintage.jpg","17"
"022520","05:14:30","30","30","5.0.14.0","2","171","trial1","naming","0","0","0","0","letters","0","2822","1","White_Screen.jpg","16","153","LetterMail.jpg","16"
"022520","05:14:30","30","30","5.0.14.0","2","172","trial1","naming","0","0","0","0","poker table","0","3409","1","White_Screen.jpg","15","170","Table_Poker.jpg","15"
"022520","05:14:30","30","30","5.0.14.0","2","173","trial1","naming","0","0","0","0","skull","0","2746","1","White_Screen.jpg","16","19","HumanSkull.jpg","16"
"022520","05:14:30","30","30","5.0.14.0","2","174","trial1","naming","0","0","0","0","fence","0","2160","1","White_Screen.jpg","24","152","Fence_Wooden.jpg","24"
"022520","05:14:30","30","30","5.0.14.0","2","175","trial1","naming","0","0","0","0","clarinet","0","4262","1","White_Screen.jpg","15","184","Clarinet.jpg","15"
"022520","05:14:30","30","30","5.0.14.0","2","176","trial1","naming","0","0","0","0","potato masher","0","3824","1","White_Screen.jpg","12","4","PotatoMasher_Grate.jpg","12"
"022520","05:14:30","30","30","5.0.14.0","2","177","trial1","naming","0","0","0","0","spoon","0","3763","1","White_Screen.jpg","19","168","Spoon_Serving.jpg","19"
"022520","05:14:30","30","30","5.0.14.0","2","178","trial1","naming","0","0","0","0","carriage top","0","5690","1","White_Screen.jpg","26","6","Awning.jpg","26"
"022520","05:14:30","30","30","5.0.14.0","2","179","trial1","naming","0","0","0","0","potato","0","2652","1","White_Screen.jpg","17","112","Potato.jpg","17"
"022520","05:14:30","30","30","5.0.14.0","2","180","trial1","naming","0","0","0","0","toaster","0","3354","1","White_Screen.jpg","28","139","Toaster_MetalSleek.jpg","28"
"022520","05:14:30","30","30","5.0.14.0","2","181","trial1","naming","0","0","0","0","tux jacket","0","3123","1","White_Screen.jpg","15","14","Tuxedo.jpg","15"
"022520","05:14:30","30","30","5.0.14.0","2","182","trial1","naming","0","0","0","0","step aerobic","0","7465","1","White_Screen.jpg","15","191","Exercise_Stepper.jpg","15"
"022520","05:14:30","30","30","5.0.14.0","2","183","trial1","naming","0","0","0","0","paper clip","0","3351","1","White_Screen.jpg","30","33","Clip_Binder.jpg","30"
"022520","05:14:30","30","30","5.0.14.0","2","184","trial1","naming","0","0","0","0","bear","0","2688","1","White_Screen.jpg","15","85","Toy_BearBlackPlastic.jpg","15"
"022520","05:14:30","30","30","5.0.14.0","2","185","trial1","naming","0","0","0","0","ice scraper","0","5865","1","White_Screen.jpg","14","28","Brush_Windshield.jpg","14"
"022520","05:14:30","30","30","5.0.14.0","2","186","trial1","naming","0","0","0","0","dog","0","2251","1","White_Screen.jpg","19","9","Dog_SaintBernard.jpg","19"
"022520","05:14:30","30","30","5.0.14.0","2","187","trial1","naming","0","0","0","0","lobster","0","2646","1","White_Screen.jpg","17","15","Lobster.jpg","17"
"022520","05:14:30","30","30","5.0.14.0","2","188","trial1","naming","0","0","0","0","call butto","0","10000","1","White_Screen.jpg","16","78","TelephoneJack.jpg","16"
"022520","05:14:30","30","30","5.0.14.0","2","189","trial1","naming","0","0","0","0","nEnter Name","0","285","1","White_Screen.jpg","15","53","EspressoMachine.jpg","15"
"022520","05:14:30","30","30","5.0.14.0","2","190","trial1","naming","0","0","0","0","emergency light","0","4945","1","White_Screen.jpg","29","121","BicycleReflector.jpg","29"
"022520","05:14:30","30","30","5.0.14.0","2","191","trial1","naming","0","0","0","0","necklace","0","4440","1","White_Screen.jpg","17","159","MetalChain.jpg","17"
"022520","05:14:30","30","30","5.0.14.0","2","192","trial1","naming","0","0","0","0","nerf gun","0","3831","1","White_Screen.jpg","19","26","Gun_Nerf.jpg","19"
"022520","05:14:30","30","30","5.0.14.0","2","193","trial1","naming","0","0","0","0","toy slide","0","2729","1","White_Screen.jpg","17","95","Slide.jpg","17"
"022520","05:14:30","30","30","5.0.14.0","2","194","trial1","naming","0","0","0","0","baby carriage","0","3830","1","White_Screen.jpg","19","127","Toy_Stroller.jpg","19"
"022520","05:14:30","30","30","5.0.14.0","2","195","trial1","naming","0","0","0","0","evaporated milk","0","5385","1","White_Screen.jpg","18","5","Can_Milk.jpg","18"
"022520","05:14:30","30","30","5.0.14.0","2","196","trial1","naming","0","0","0","0","pyramid","0","2817","1","White_Screen.jpg","34","188","Pyramid.jpg","34"
"022520","05:14:30","30","30","5.0.14.0","2","197","trial1","naming","0","0","0","0","shears","0","3993","1","White_Screen.jpg","20","43","HedgeShears.jpg","20"
"022520","05:14:30","30","30","5.0.14.0","2","198","trial1","naming","0","0","0","0","tricycle","0","3922","1","White_Screen.jpg","28","35","Tricycle.jpg","28"
"022520","05:14:30","30","30","5.0.14.0","2","199","trial1","naming","0","0","0","0","keg","0","2632","1","White_Screen.jpg","27","145","Keg.jpg","27"
"022520","05:14:30","30","30","5.0.14.0","2","200","trial1","naming","0","0","0","0","funnel","0","6057","1","White_Screen.jpg","19","134","Funnel.jpg","19"
"022520","05:14:30","30","30","5.0.14.0","2","201","trial1","naming","0","0","0","0","toad","0","4004","1","White_Screen.jpg","15","1","Toad.jpg","15"
"022520","05:14:30","30","30","5.0.14.0","2","202","trial1","naming","0","0","0","0","lemons","0","2595","1","White_Screen.jpg","18","90","Bowl_Lemons.jpg","18"
"022520","05:14:30","30","30","5.0.14.0","2","203","trial1","naming","0","0","0","0","steering wheel","0","3207","1","White_Screen.jpg","17","51","Wheel_Steering.jpg","17"
"022520","05:14:30","30","30","5.0.14.0","3","1","demographics_block","gender","0","0","0","0","female","1","10024","0","0","0","0","0","0"
"022520","05:14:30","30","30","5.0.14.0","3","1","demographics_block","age","0","0","0","0","50","1","10024","0","0","0","0","0","0"
"022520","05:14:30","30","30","5.0.14.0","3","1","demographics_block","education","0","0","0","0","16","1","10024","0","0","0","0","0","0"
"022520","05:14:30","30","30","5.0.14.0","3","2","demographics_block","left_right_handed","0","0","0","0","Right","1","5463","0","0","0","0","0","0"
"022520","05:14:30","30","30","5.0.14.0","3","2","demographics_block","raceoption1","0","0","0","0","0","1","5463","0","0","0","0","0","0"
"022520","05:14:30","30","30","5.0.14.0","3","2","demographics_block","raceoption2","0","0","0","0","","1","5463","0","0","0","0","0","0"
"022520","05:14:30","30","30","5.0.14.0","3","2","demographics_block","raceoption3","0","0","0","0","","1","5463","0","0","0","0","0","0"
"022520","05:14:30","30","30","5.0.14.0","3","2","demographics_block","raceoption4","0","0","0","0","","1","5463","0","0","0","0","0","0"
"022520","05:14:30","30","30","5.0.14.0","3","2","demographics_block","raceoption5","0","0","0","0","","1","5463","0","0","0","0","0","0"
"022520","05:14:30","30","30","5.0.14.0","3","2","demographics_block","raceoption6","0","0","0","0","","1","5463","0","0","0","0","0","0"
"022520","05:14:30","30","30","5.0.14.0","3","2","demographics_block","raceoption7","0","0","0","0","","1","5463","0","0","0","0","0","0"
"022520","05:14:30","30","30","5.0.14.0","3","2","demographics_block","raceoption8","0","0","0","0","","1","5463","0","0","0","0","0","0"
"022520","05:14:30","30","30","5.0.14.0","3","2","demographics_block","raceoption9","0","0","0","0","","1","5463","0","0","0","0","0","0"
"022520","05:14:30","30","30","5.0.14.0","3","2","demographics_block","raceother","0","0","0","0","","1","5463","0","0","0","0","0","0"
"022520","05:14:30","30","30","5.0.14.0","3","2","demographics_block","raceother","0","0","0","0","","1","5463","0","0","0","0","0","0"
"022520","05:14:30","30","30","5.0.14.0","3","2","demographics_block","english_language","0","0","0","0","Yes","1","5463","0","0","0","0","0","0"
"022520","05:14:30","30","30","5.0.14.0","3","2","demographics_block","english_languageother","0","0","0","0","","1","5463","0","0","0","0","0","0"
"022520","05:14:30","30","30","5.0.14.0","3","3","demographics_block","eyesight","0","0","0","0","Yes","1","4586","0","0","0","0","0","0"
"022520","05:14:30","30","30","5.0.14.0","3","3","demographics_block","colorblind","0","0","0","0","No","1","4586","0","0","0","0","0","0"
"022520","05:14:30","30","30","5.0.14.0","4","1","worker_id_block","worker_id_textbox","0","0","0","0","A2JP8W265WCC35","1","4749","0","0","0","0","0","0"
"022420","14:24:35","33","33","5.0.14.0","2","1","trial1","naming","0","0","0","0","lamp post","0","5221","1","White_Screen.jpg","33","162","LampPost_ThreeBulbs.jpg","33"
"022420","14:24:35","33","33","5.0.14.0","2","2","trial1","naming","0","0","0","0","lego","0","5232","1","White_Screen.jpg","6","198","Toy_Alien.jpg","6"
"022420","14:24:35","33","33","5.0.14.0","2","3","trial1","naming","0","0","0","0","saw blade","0","2498","1","White_Screen.jpg","6","140","Blade_Tablesaw.jpg","6"
"022420","14:24:35","33","33","5.0.14.0","2","4","trial1","naming","0","0","0","0","protractor","0","6628","1","White_Screen.jpg","5","62","Protractor.jpg","5"
"022420","14:24:35","33","33","5.0.14.0","2","5","trial1","naming","0","0","0","0","disney toy","0","4906","1","White_Screen.jpg","6","71","LumiereBeautyBeast.jpg","6"
"022420","14:24:35","33","33","5.0.14.0","2","6","trial1","naming","0","0","0","0","horn","0","1447","1","White_Screen.jpg","5","74","Bugle.jpg","5"
"022420","14:24:35","33","33","5.0.14.0","2","7","trial1","naming","0","0","0","0","taxi light","0","2364","1","White_Screen.jpg","6","156","Sign_Taxi.jpg","6"
"022420","14:24:35","33","33","5.0.14.0","2","8","trial1","naming","0","0","0","0","polar bear","0","2038","1","White_Screen.jpg","5","110","BearPolar.jpg","5"
"022420","14:24:35","33","33","5.0.14.0","2","9","trial1","naming","0","0","0","0","hedge trimmers","0","5836","1","White_Screen.jpg","6","43","HedgeShears.jpg","6"
"022420","14:24:35","33","33","5.0.14.0","2","10","trial1","naming","0","0","0","0","cloth","0","5179","1","White_Screen.jpg","5","82","KitchenCloth.jpg","5"
"022420","14:24:35","33","33","5.0.14.0","2","11","trial1","naming","0","0","0","0","bird house","0","2343","1","White_Screen.jpg","5","75","Birdhouse.jpg","5"
"022420","14:24:35","33","33","5.0.14.0","2","12","trial1","naming","0","0","0","0","bird house","0","2394","1","White_Screen.jpg","5","88","TreeHouse.jpg","5"
"022420","14:24:35","33","33","5.0.14.0","2","13","trial1","naming","0","0","0","0","bike","0","1396","1","White_Screen.jpg","5","180","Bicycle_Kids.jpg","5"
"022420","14:24:35","33","33","5.0.14.0","2","14","trial1","naming","0","0","0","0","fryer","0","1959","1","White_Screen.jpg","5","154","DeepFryer.jpg","5"
"022420","14:24:35","33","33","5.0.14.0","2","15","trial1","naming","0","0","0","0","ladle","0","3355","1","White_Screen.jpg","8","168","Spoon_Serving.jpg","8"
"022420","14:24:35","33","33","5.0.14.0","2","16","trial1","naming","0","0","0","0","army hat","0","3090","1","White_Screen.jpg","6","11","Hat_Beret.jpg","6"
"022420","14:24:35","33","33","5.0.14.0","2","17","trial1","naming","0","0","0","0","lamb toy","0","2677","1","White_Screen.jpg","5","55","Toy_LambPlushie.jpg","5"
"022420","14:24:35","33","33","5.0.14.0","2","18","trial1","naming","0","0","0","0","frog","0","1757","1","White_Screen.jpg","5","1","Toad.jpg","5"
"022420","14:24:35","33","33","5.0.14.0","2","19","trial1","naming","0","0","0","0","earth","0","1789","1","White_Screen.jpg","5","40","Earth_Planet.jpg","5"
"022420","14:24:35","33","33","5.0.14.0","2","20","trial1","naming","0","0","0","0","army truck","0","4577","1","White_Screen.jpg","6","57","Truck_Army.jpg","6"
"022420","14:24:35","33","33","5.0.14.0","2","21","trial1","naming","0","0","0","0","burner","0","3410","1","White_Screen.jpg","5","39","Stove_Portable.jpg","5"
"022420","14:24:35","33","33","5.0.14.0","2","22","trial1","naming","0","0","0","0","espresso mahcine","0","5380","1","White_Screen.jpg","5","53","EspressoMachine.jpg","5"
"022420","14:24:35","33","33","5.0.14.0","2","23","trial1","naming","0","0","0","0","stamper","0","4470","1","White_Screen.jpg","5","98","Embosser.jpg","5"
"022420","14:24:35","33","33","5.0.14.0","2","24","trial1","naming","0","0","0","0","bear statue","0","3683","1","White_Screen.jpg","6","85","Toy_BearBlackPlastic.jpg","6"
"022420","14:24:35","33","33","5.0.14.0","2","25","trial1","naming","0","0","0","0","window","0","2264","1","White_Screen.jpg","6","181","Window.jpg","6"
"022420","14:24:35","33","33","5.0.14.0","2","26","trial1","naming","0","0","0","0","funnel","0","1901","1","White_Screen.jpg","5","134","Funnel.jpg","5"
"022420","14:24:35","33","33","5.0.14.0","2","27","trial1","naming","0","0","0","0","panel","0","3280","1","White_Screen.jpg","5","109","FuseBox.jpg","5"
"022420","14:24:35","33","33","5.0.14.0","2","28","trial1","naming","0","0","0","0","abacus","0","6974","1","White_Screen.jpg","5","56","Abacus.jpg","5"
"022420","14:24:35","33","33","5.0.14.0","2","29","trial1","naming","0","0","0","0","sink","0","1393","1","White_Screen.jpg","5","102","Sink_Bathroom.jpg","5"
"022420","14:24:35","33","33","5.0.14.0","2","30","trial1","naming","0","0","0","0","bike helmet","0","2382","1","White_Screen.jpg","5","47","Helmet_Bicycle.jpg","5"
"022420","14:24:35","33","33","5.0.14.0","2","31","trial1","naming","0","0","0","0","spiral staircase","0","4176","1","White_Screen.jpg","6","58","Staircase_Curving.jpg","6"
"022420","14:24:35","33","33","5.0.14.0","2","32","trial1","naming","0","0","0","0","steering wheel","0","5231","1","White_Screen.jpg","5","51","Wheel_Steering.jpg","5"
"022420","14:24:35","33","33","5.0.14.0","2","33","trial1","naming","0","0","0","0","toaster","0","3724","1","White_Screen.jpg","5","172","Toaster_Antique.jpg","5"
"022420","14:24:35","33","33","5.0.14.0","2","34","trial1","naming","0","0","0","0","flower","0","4803","1","White_Screen.jpg","5","158","Flower_Orchid.jpg","5"
"022420","14:24:35","33","33","5.0.14.0","2","35","trial1","naming","0","0","0","0","foam","0","2895","1","White_Screen.jpg","5","81","Foam_Accoustic.jpg","5"
"022420","14:24:35","33","33","5.0.14.0","2","36","trial1","naming","0","0","0","0","stool","0","5365","1","White_Screen.jpg","5","114","Stool_Metal.jpg","5"
"022420","14:24:35","33","33","5.0.14.0","2","37","trial1","naming","0","0","0","0","clip","0","2070","1","White_Screen.jpg","5","33","Clip_Binder.jpg","5"
"022420","14:24:35","33","33","5.0.14.0","2","38","trial1","naming","0","0","0","0","elephant toy","0","3169","1","White_Screen.jpg","5","138","Toy_ElephantPlastic.jpg","5"
"022420","14:24:35","33","33","5.0.14.0","2","39","trial1","naming","0","0","0","0","bear toy","0","2457","1","White_Screen.jpg","5","10","Toy_BearBrownPlushie.jpg","5"
"022420","14:24:35","33","33","5.0.14.0","2","40","trial1","naming","0","0","0","0","pyramid block","0","6041","1","White_Screen.jpg","6","179","PyramidWooden.jpg","6"
"022420","14:24:35","33","33","5.0.14.0","2","41","trial1","naming","0","0","0","0","brush","0","2247","1","White_Screen.jpg","7","28","Brush_Windshield.jpg","7"
"022420","14:24:35","33","33","5.0.14.0","2","42","trial1","naming","0","0","0","0","craisant","0","5627","1","White_Screen.jpg","5","108","Croissant.jpg","5"
"022420","14:24:35","33","33","5.0.14.0","2","43","trial1","naming","0","0","0","0","hat","0","1215","1","White_Screen.jpg","5","195","Hat_Baseball.jpg","5"
"022420","14:24:35","33","33","5.0.14.0","2","44","trial1","naming","0","0","0","0","poker","0","2793","1","White_Screen.jpg","5","166","Fork_Fondue.jpg","5"
"022420","14:24:35","33","33","5.0.14.0","2","45","trial1","naming","0","0","0","0","window","0","5093","1","White_Screen.jpg","5","124","DormerWindow.jpg","5"
"022420","14:24:35","33","33","5.0.14.0","2","46","trial1","naming","0","0","0","0","art supplies","0","5423","1","White_Screen.jpg","6","151","ColoringSet.jpg","6"
"022420","14:24:35","33","33","5.0.14.0","2","47","trial1","naming","0","0","0","0","awning","0","3326","1","White_Screen.jpg","6","6","Awning.jpg","6"
"022420","14:24:35","33","33","5.0.14.0","2","48","trial1","naming","0","0","0","0","mixer","0","6521","1","White_Screen.jpg","5","23","Mixer_Hand.jpg","5"
"022420","14:24:35","33","33","5.0.14.0","2","49","trial1","naming","0","0","0","0","dog","0","2389","1","White_Screen.jpg","5","9","Dog_SaintBernard.jpg","5"
"022420","14:24:35","33","33","5.0.14.0","2","50","trial1","naming","0","0","0","0","makeup","0","1743","1","White_Screen.jpg","5","16","Makeup_Compact.jpg","5"
"022420","14:24:35","33","33","5.0.14.0","2","52","trial1","naming","0","0","0","0","frying pan","0","2873","1","White_Screen.jpg","5","70","PanCooking.jpg","5"
"022420","14:24:35","33","33","5.0.14.0","2","53","trial1","naming","0","0","0","0","dog toy","0","1630","1","White_Screen.jpg","5","183","DogToy.jpg","5"
"022420","14:24:35","33","33","5.0.14.0","2","54","trial1","naming","0","0","0","0","jars","0","4276","1","White_Screen.jpg","5","113","Jars_PetFood.jpg","5"
"022420","14:24:35","33","33","5.0.14.0","2","55","trial1","naming","0","0","0","0","dog","0","1188","1","White_Screen.jpg","5","135","Dog_CockerSpaniel.jpg","5"
"022420","14:24:35","33","33","5.0.14.0","2","56","trial1","naming","0","0","0","0","nasal spray","0","7355","1","White_Screen.jpg","5","87","EyeDrops.jpg","5"
"022420","14:24:35","33","33","5.0.14.0","2","57","trial1","naming","0","0","0","0","tuxedo jacket","0","3616","1","White_Screen.jpg","6","14","Tuxedo.jpg","6"
"022420","14:24:35","33","33","5.0.14.0","2","58","trial1","naming","0","0","0","0","lemons","0","2500","1","White_Screen.jpg","5","90","Bowl_Lemons.jpg","5"
"022420","14:24:35","33","33","5.0.14.0","2","59","trial1","naming","0","0","0","0","cymbols","0","3919","1","White_Screen.jpg","6","17","Cymbals.jpg","6"
"022420","14:24:35","33","33","5.0.14.0","2","60","trial1","naming","0","0","0","0","pyramid","0","2164","1","White_Screen.jpg","6","188","Pyramid.jpg","6"
"022420","14:24:35","33","33","5.0.14.0","2","61","trial1","naming","0","0","0","0","seal","0","2376","1","White_Screen.jpg","5","83","Seal_animal.jpg","5"
"022420","14:24:35","33","33","5.0.14.0","2","62","trial1","naming","0","0","0","0","oil can","0","4413","1","White_Screen.jpg","6","97","Cannister_GasVintage.jpg","6"
"022420","14:24:35","33","33","5.0.14.0","2","63","trial1","naming","0","0","0","0","bumper car","0","3248","1","White_Screen.jpg","5","65","BumperCar.jpg","5"
"022420","14:24:35","33","33","5.0.14.0","2","64","trial1","naming","0","0","0","0","juke box","0","3422","1","White_Screen.jpg","6","147","JukeboxAntique.jpg","6"
"022420","14:24:35","33","33","5.0.14.0","2","65","trial1","naming","0","0","0","0","cradle toy","0","3675","1","White_Screen.jpg","5","127","Toy_Stroller.jpg","5"
"022420","14:24:35","33","33","5.0.14.0","2","66","trial1","naming","0","0","0","0","mattress","0","4714","1","White_Screen.jpg","5","69","Mattress.jpg","5"
"022420","14:24:35","33","33","5.0.14.0","2","67","trial1","naming","0","0","0","0","dessert","0","4589","1","White_Screen.jpg","6","27","Bread_Melon.jpg","6"
"022420","14:24:35","33","33","5.0.14.0","2","68","trial1","naming","0","0","0","0","swing","0","7400","1","White_Screen.jpg","5","103","Swing_Child.jpg","5"
"022420","14:24:35","33","33","5.0.14.0","2","69","trial1","naming","0","0","0","0","bag","0","2035","1","White_Screen.jpg","6","63","Bag_Computer.jpg","6"
"022420","14:24:35","33","33","5.0.14.0","2","70","trial1","naming","0","0","0","0","scraper","0","2819","1","White_Screen.jpg","5","130","Toy_SandRake.jpg","5"
"022420","14:24:35","33","33","5.0.14.0","2","71","trial1","naming","0","0","0","0","cheese grader","0","5866","1","White_Screen.jpg","5","129","Cheesegrater_Handheld.jpg","5"
"022420","14:24:35","33","33","5.0.14.0","2","72","trial1","naming","0","0","0","0","light","0","2723","1","White_Screen.jpg","5","120","Light_Studio.jpg","5"
"022420","14:24:35","33","33","5.0.14.0","2","73","trial1","naming","0","0","0","0","monistor","0","2766","1","White_Screen.jpg","5","96","Monitor.jpg","5"
"022420","14:24:35","33","33","5.0.14.0","2","74","trial1","naming","0","0","0","0","mouse trap","0","2579","1","White_Screen.jpg","5","105","Mousetrap.jpg","5"
"022420","14:24:35","33","33","5.0.14.0","2","75","trial1","naming","0","0","0","0","berries","0","3048","1","White_Screen.jpg","6","24","Cranberry.jpg","6"
"022420","14:24:35","33","33","5.0.14.0","2","76","trial1","naming","0","0","0","0","plyers","0","2612","1","White_Screen.jpg","5","171","Pliers_NeedleNose.jpg","5"
"022420","14:24:35","33","33","5.0.14.0","2","77","trial1","naming","0","0","0","0","chainsaw","0","3486","1","White_Screen.jpg","5","52","Chainsaw.jpg","5"
"022420","14:24:35","33","33","5.0.14.0","2","78","trial1","naming","0","0","0","0","head lamp","0","2908","1","White_Screen.jpg","6","121","BicycleReflector.jpg","6"
"022420","14:24:35","33","33","5.0.14.0","2","79","trial1","naming","0","0","0","0","sushi","0","2216","1","White_Screen.jpg","5","77","Sushi.jpg","5"
"022420","14:24:35","33","33","5.0.14.0","2","80","trial1","naming","0","0","0","0","pillow","0","2108","1","White_Screen.jpg","5","161","Pillow_Heart.jpg","5"
"022420","14:24:35","33","33","5.0.14.0","2","81","trial1","naming","0","0","0","0","step","0","9272","1","White_Screen.jpg","7","191","Exercise_Stepper.jpg","7"
"022420","14:24:35","33","33","5.0.14.0","2","82","trial1","naming","0","0","0","0","heater","0","3006","1","White_Screen.jpg","5","163","Heater_Infrared.jpg","5"
"022420","14:24:35","33","33","5.0.14.0","2","83","trial1","naming","0","0","0","0","keg","0","3867","1","White_Screen.jpg","5","145","Keg.jpg","5"
"022420","14:24:35","33","33","5.0.14.0","2","84","trial1","naming","0","0","0","0","battery","0","6405","1","White_Screen.jpg","5","132","Battery_AA.jpg","5"
"022420","14:24:35","33","33","5.0.14.0","2","85","trial1","naming","0","0","0","0","bird","0","4618","1","White_Screen.jpg","6","176","Bird_Toucan.jpg","6"
"022420","14:24:35","33","33","5.0.14.0","2","86","trial1","naming","0","0","0","0","ice cream","0","4065","1","White_Screen.jpg","5","197","IceCream_Chocolate.jpg","5"
"022420","14:24:35","33","33","5.0.14.0","2","87","trial1","naming","0","0","0","0","ice cube","0","2285","1","White_Screen.jpg","5","178","IceCubes copy.jpg","5"
"022420","14:24:35","33","33","5.0.14.0","2","88","trial1","naming","0","0","0","0","football","0","2390","1","White_Screen.jpg","5","123","Ball_Football.jpg","5"
"022420","14:24:35","33","33","5.0.14.0","2","89","trial1","naming","0","0","0","0","hose","0","1686","1","White_Screen.jpg","5","149","Hose_Garden.jpg","5"
"022420","14:24:35","33","33","5.0.14.0","2","90","trial1","naming","0","0","0","0","bench","0","2865","1","White_Screen.jpg","5","86","Bench_Wooden.jpg","5"
"022420","14:24:35","33","33","5.0.14.0","2","91","trial1","naming","0","0","0","0","pancakes","0","2702","1","White_Screen.jpg","5","111","Pancakes.jpg","5"
"022420","14:24:35","33","33","5.0.14.0","2","92","trial1","naming","0","0","0","0","maracas","0","3979","1","White_Screen.jpg","7","7","Maraca.jpg","7"
"022420","14:24:35","33","33","5.0.14.0","2","93","trial1","naming","0","0","0","0","swan","0","1384","1","White_Screen.jpg","5","175","Swan.jpg","5"
"022420","14:24:35","33","33","5.0.14.0","2","94","trial1","naming","0","0","0","0","office chair","0","3809","1","White_Screen.jpg","6","64","Chair_Office.jpg","6"
"022420","14:24:35","33","33","5.0.14.0","2","95","trial1","naming","0","0","0","0","temperture guage","0","8730","1","White_Screen.jpg","5","73","Thermostat_Digital.jpg","5"
"022420","14:24:35","33","33","5.0.14.0","2","96","trial1","naming","0","0","0","0","pickled eggs","0","5469","1","White_Screen.jpg","5","60","Can_Olives.jpg","5"
"022420","14:24:35","33","33","5.0.14.0","2","97","trial1","naming","0","0","0","0","table","0","2974","1","White_Screen.jpg","5","93","Desk_White.jpg","5"
"022420","14:24:35","33","33","5.0.14.0","2","98","trial1","naming","0","0","0","0","tricycle","0","5995","1","White_Screen.jpg","5","35","Tricycle.jpg","5"
"022420","14:24:35","33","33","5.0.14.0","2","99","trial1","naming","0","0","0","0","lips","0","1554","1","White_Screen.jpg","5","92","Lips_Real.jpg","5"
"022420","14:24:35","33","33","5.0.14.0","2","100","trial1","naming","0","0","0","0","bait","0","2145","1","White_Screen.jpg","5","41","Hook_Fish.jpg","5"
"022420","14:24:35","33","33","5.0.14.0","2","101","trial1","naming","0","0","0","0","ice cream sundae","0","4961","1","White_Screen.jpg","5","104","Milkshake_StrawberryStraw.jpg","5"
"022420","14:24:35","33","33","5.0.14.0","2","103","trial1","naming","0","0","0","0","candle","0","1873","1","White_Screen.jpg","5","50","Candle_Blue.jpg","5"
"022420","14:24:35","33","33","5.0.14.0","2","104","trial1","naming","0","0","0","0","nerf gun","0","2958","1","White_Screen.jpg","6","26","Gun_Nerf.jpg","6"
"022420","14:24:35","33","33","5.0.14.0","2","105","trial1","naming","0","0","0","0","staples","0","2453","1","White_Screen.jpg","5","38","Staples.jpg","5"
"022420","14:24:35","33","33","5.0.14.0","2","106","trial1","naming","0","0","0","0","onion","0","2503","1","White_Screen.jpg","5","148","OnionRed.jpg","5"
"022420","14:24:35","33","33","5.0.14.0","2","107","trial1","naming","0","0","0","0","chess piece","0","3124","1","White_Screen.jpg","7","68","ChessPiece_Bishop.jpg","7"
"022420","14:24:35","33","33","5.0.14.0","2","108","trial1","naming","0","0","0","0","peanuts","0","1934","1","White_Screen.jpg","5","101","Nuts_Peanuts.jpg","5"
"022420","14:24:35","33","33","5.0.14.0","2","109","trial1","naming","0","0","0","0","torpedo","0","3414","1","White_Screen.jpg","5","107","Torpedo.jpg","5"
"022420","14:24:35","33","33","5.0.14.0","2","110","trial1","naming","0","0","0","0","clogs","0","4039","1","White_Screen.jpg","5","49","Shoes_Mould.jpg","5"
"022420","14:24:35","33","33","5.0.14.0","2","111","trial1","naming","0","0","0","0","pot holder","0","3765","1","White_Screen.jpg","5","117","Pot_FlowerClay.jpg","5"
"022420","14:24:35","33","33","5.0.14.0","2","112","trial1","naming","0","0","0","0","handle","0","4130","1","White_Screen.jpg","6","185","CarLighter.jpg","6"
"022420","14:24:35","33","33","5.0.14.0","2","113","trial1","naming","0","0","0","0","jax","0","2992","1","White_Screen.jpg","5","165","Jacks.jpg","5"
"022420","14:24:35","33","33","5.0.14.0","2","114","trial1","naming","0","0","0","0","ostrich","0","3049","1","White_Screen.jpg","5","133","Ostrich.jpg","5"
"022420","14:24:35","33","33","5.0.14.0","2","115","trial1","naming","0","0","0","0","saw","0","9127","1","White_Screen.jpg","5","8","Table_Saw.jpg","5"
"022420","14:24:35","33","33","5.0.14.0","2","116","trial1","naming","0","0","0","0","light switch","0","3439","1","White_Screen.jpg","6","78","TelephoneJack.jpg","6"
"022420","14:24:35","33","33","5.0.14.0","2","117","trial1","naming","0","0","0","0","outlet","0","4779","1","White_Screen.jpg","6","177","ElectricOutlet.jpg","6"
"022420","14:24:35","33","33","5.0.14.0","2","118","trial1","naming","0","0","0","0","cherry","0","2568","1","White_Screen.jpg","5","30","Cherry.jpg","5"
"022420","14:24:35","33","33","5.0.14.0","2","119","trial1","naming","0","0","0","0","dvd player","0","4876","1","White_Screen.jpg","5","136","DVDPlayer.jpg","5"
"022420","14:24:35","33","33","5.0.14.0","2","120","trial1","naming","0","0","0","0","drummer","0","3521","1","White_Screen.jpg","5","72","Drum_Set.jpg","5"
"022420","14:24:35","33","33","5.0.14.0","2","121","trial1","naming","0","0","0","0","outhouse","0","4912","1","White_Screen.jpg","6","45","Outhouse.jpg","6"
"022420","14:24:35","33","33","5.0.14.0","2","122","trial1","naming","0","0","0","0","iguana","0","2777","1","White_Screen.jpg","7","21","Iguana.jpg","7"
"022420","14:24:35","33","33","5.0.14.0","2","123","trial1","naming","0","0","0","0","light","0","1988","1","White_Screen.jpg","5","155","Light_Halogen.jpg","5"
"022420","14:24:35","33","33","5.0.14.0","2","124","trial1","naming","0","0","0","0","toy gun","0","3800","1","White_Screen.jpg","6","91","WaterGun.jpg","6"
"022420","14:24:35","33","33","5.0.14.0","2","125","trial1","naming","0","0","0","0","lights","0","2836","1","White_Screen.jpg","5","80","Light_Fixtures.jpg","5"
"022420","14:24:35","33","33","5.0.14.0","2","126","trial1","naming","0","0","0","0","party hat","0","2629","1","White_Screen.jpg","6","141","Hat_Party.jpg","6"
"022420","14:24:35","33","33","5.0.14.0","2","127","trial1","naming","0","0","0","0","shoe","0","3577","1","White_Screen.jpg","5","76","Shoe_Men.jpg","5"
"022420","14:24:35","33","33","5.0.14.0","2","128","trial1","naming","0","0","0","0","smasher","0","3039","1","White_Screen.jpg","5","4","PotatoMasher_Grate.jpg","5"
"022420","14:24:35","33","33","5.0.14.0","2","129","trial1","naming","0","0","0","0","amber","0","2822","1","White_Screen.jpg","5","192","AmberWithMosquito.jpg","5"
"022420","14:24:35","33","33","5.0.14.0","2","130","trial1","naming","0","0","0","0","concrete brick","0","9718","1","White_Screen.jpg","5","128","CinderBlock.jpg","5"
"022420","14:24:35","33","33","5.0.14.0","2","131","trial1","naming","0","0","0","0","thimble","0","5197","1","White_Screen.jpg","5","79","FlintIgniter.jpg","5"
"022420","14:24:35","33","33","5.0.14.0","2","132","trial1","naming","0","0","0","0","wood block","0","5257","1","White_Screen.jpg","5","144","CuttingBoard.jpg","5"
"022420","14:24:35","33","33","5.0.14.0","2","133","trial1","naming","0","0","0","0","berries","0","2382","1","White_Screen.jpg","6","126","Currants.jpg","6"
"022420","14:24:35","33","33","5.0.14.0","2","134","trial1","naming","0","0","0","0","cucumber","0","3006","1","White_Screen.jpg","5","119","Cucumber.jpg","5"
"022420","14:24:35","33","33","5.0.14.0","2","135","trial1","naming","0","0","0","0","toothbrush","0","3306","1","White_Screen.jpg","5","46","ToothBrush.jpg","5"
"022420","14:24:35","33","33","5.0.14.0","2","136","trial1","naming","0","0","0","0","four wheeler","0","3922","1","White_Screen.jpg","6","157","AllTerrain.jpg","6"
"022420","14:24:35","33","33","5.0.14.0","2","137","trial1","naming","0","0","0","0","clock","0","2552","1","White_Screen.jpg","5","59","Clock_Digital.jpg","5"
"022420","14:24:35","33","33","5.0.14.0","2","138","trial1","naming","0","0","0","0","milk","0","4079","1","White_Screen.jpg","6","5","Can_Milk.jpg","6"
"022420","14:24:35","33","33","5.0.14.0","2","139","trial1","naming","0","0","0","0","casino table","0","8969","1","White_Screen.jpg","5","170","Table_Poker.jpg","5"
"022420","14:24:35","33","33","5.0.14.0","2","140","trial1","naming","0","0","0","0","ice cream malt","0","7471","1","White_Screen.jpg","5","3","Milkshake_Chocolate.jpg","5"
"022420","14:24:35","33","33","5.0.14.0","2","141","trial1","naming","0","0","0","0","pot","0","2895","1","White_Screen.jpg","5","48","Steamer.jpg","5"
"022420","14:24:35","33","33","5.0.14.0","2","142","trial1","naming","0","0","0","0","rug","0","3024","1","White_Screen.jpg","5","150","Bandage_Wrap.jpg","5"
"022420","14:24:35","33","33","5.0.14.0","2","143","trial1","naming","0","0","0","0","plate","0","1744","1","White_Screen.jpg","5","118","Plate_Ceramic.jpg","5"
"022420","14:24:35","33","33","5.0.14.0","2","144","trial1","naming","0","0","0","0","eggplant","0","2327","1","White_Screen.jpg","5","200","Eggplant.jpg","5"
"022420","14:24:35","33","33","5.0.14.0","2","145","trial1","naming","0","0","0","0","temperture guage","0","8514","1","White_Screen.jpg","5","37","AnsweringMachine.jpg","5"
"022420","14:24:35","33","33","5.0.14.0","2","146","trial1","naming","0","0","0","0","door","0","1981","1","White_Screen.jpg","5","131","Door_Blue.jpg","5"
"022420","14:24:35","33","33","5.0.14.0","2","147","trial1","naming","0","0","0","0","pot","0","4738","1","White_Screen.jpg","6","193","Vase_EarthToned.jpg","6"
"022420","14:24:35","33","33","5.0.14.0","2","148","trial1","naming","0","0","0","0","lobster","0","2392","1","White_Screen.jpg","6","15","Lobster.jpg","6"
"022420","14:24:35","33","33","5.0.14.0","2","149","trial1","naming","0","0","0","0","ice cream malt","0","4379","1","White_Screen.jpg","6","34","Milkshake_Strawberry.jpg","6"
"022420","14:24:35","33","33","5.0.14.0","2","150","trial1","naming","0","0","0","0","projector","0","2730","1","White_Screen.jpg","6","167","Projector_Film.jpg","6"
"022420","14:24:35","33","33","5.0.14.0","2","151","trial1","naming","0","0","0","0","chocolate egg","0","7651","1","White_Screen.jpg","5","173","Egg_Chocolate.jpg","5"
"022420","14:24:35","33","33","5.0.14.0","2","152","trial1","naming","0","0","0","0","mail","0","2250","1","White_Screen.jpg","6","153","LetterMail.jpg","6"
"022420","14:24:35","33","33","5.0.14.0","2","154","trial1","naming","0","0","0","0","golf bag","0","3928","1","White_Screen.jpg","5","29","Golf_Bag.jpg","5"
"022420","14:24:35","33","33","5.0.14.0","2","155","trial1","naming","0","0","0","0","box","0","5504","1","White_Screen.jpg","5","174","Lectern.jpg","5"
"022420","14:24:35","33","33","5.0.14.0","2","156","trial1","naming","0","0","0","0","cannon","0","2695","1","White_Screen.jpg","6","89","Gun_Bazooka.jpg","6"
"022420","14:24:35","33","33","5.0.14.0","2","157","trial1","naming","0","0","0","0","army radio","0","4132","1","White_Screen.jpg","5","143","Phone_Military.jpg","5"
"022420","14:24:35","33","33","5.0.14.0","2","158","trial1","naming","0","0","0","0","chairs","0","1744","1","White_Screen.jpg","5","199","Chairs_Stacked.jpg","5"
"022420","14:24:35","33","33","5.0.14.0","2","159","trial1","naming","0","0","0","0","toaster","0","2350","1","White_Screen.jpg","5","139","Toaster_MetalSleek.jpg","5"
"022420","14:24:35","33","33","5.0.14.0","2","160","trial1","naming","0","0","0","0","slide","0","1760","1","White_Screen.jpg","5","95","Slide.jpg","5"
"022420","14:24:35","33","33","5.0.14.0","2","161","trial1","naming","0","0","0","0","air pusher","0","4181","1","White_Screen.jpg","6","42","Bellows.jpg","6"
"022420","14:24:35","33","33","5.0.14.0","2","162","trial1","naming","0","0","0","0","bar","0","4726","1","White_Screen.jpg","5","100","AlcoholBar.jpg","5"
"022420","14:24:35","33","33","5.0.14.0","2","163","trial1","naming","0","0","0","0","clock","0","2024","1","White_Screen.jpg","6","116","Radio_Vintage.jpg","6"
"022420","14:24:35","33","33","5.0.14.0","2","164","trial1","naming","0","0","0","0","boat","0","2599","1","White_Screen.jpg","6","36","Boat_Colourful.jpg","6"
"022420","14:24:35","33","33","5.0.14.0","2","165","trial1","naming","0","0","0","0","reindeer antler hat","0","9723","1","White_Screen.jpg","6","94","ReindeerHeadband.jpg","6"
"022420","14:24:35","33","33","5.0.14.0","2","166","trial1","naming","0","0","0","0","eyeglass","0","7902","1","White_Screen.jpg","5","186","OperaGlasses.jpg","5"
"022420","14:24:35","33","33","5.0.14.0","2","167","trial1","naming","0","0","0","0","puppet box","0","4703","1","White_Screen.jpg","5","61","PuppetTheatre_BlueRed.jpg","5"
"022420","14:24:35","33","33","5.0.14.0","2","168","trial1","naming","0","0","0","0","toy deer","0","4876","1","White_Screen.jpg","6","142","Toy_Moose.jpg","6"
"022420","14:24:35","33","33","5.0.14.0","2","169","trial1","naming","0","0","0","0","ruler","0","2442","1","White_Screen.jpg","5","196","Ruler_Metal.jpg","5"
"022420","14:24:35","33","33","5.0.14.0","2","170","trial1","naming","0","0","0","0","crown","0","7572","1","White_Screen.jpg","6","122","Tiara.jpg","6"
"022420","14:24:35","33","33","5.0.14.0","2","171","trial1","naming","0","0","0","0","checker board","0","10000","1","White_Screen.jpg","5","54","Boardgame_Checkers.jpg","5"
"022420","14:24:35","33","33","5.0.14.0","2","172","trial1","naming","0","0","0","0","Enter Name","0","166","1","White_Screen.jpg","5","169","USBKey.jpg","5"
"022420","14:24:35","33","33","5.0.14.0","2","173","trial1","naming","0","0","0","0","bike handle","0","4337","1","White_Screen.jpg","5","67","BicycleBrake.jpg","5"
"022420","14:24:35","33","33","5.0.14.0","2","174","trial1","naming","0","0","0","0","blanket","0","3189","1","White_Screen.jpg","6","190","ClothRed.jpg","6"
"022420","14:24:35","33","33","5.0.14.0","2","175","trial1","naming","0","0","0","0","ash tray","0","3036","1","White_Screen.jpg","5","2","Ashtray_Cigarettes.jpg","5"
"022420","14:24:35","33","33","5.0.14.0","2","176","trial1","naming","0","0","0","0","rooster statue","0","3426","1","White_Screen.jpg","5","12","Toy_Rooster.jpg","5"
"022420","14:24:35","33","33","5.0.14.0","2","177","trial1","naming","0","0","0","0","fence posts","0","4590","1","White_Screen.jpg","5","152","Fence_Wooden.jpg","5"
"022420","14:24:35","33","33","5.0.14.0","2","178","trial1","naming","0","0","0","0","skull","0","3239","1","White_Screen.jpg","5","19","HumanSkull.jpg","5"
"022420","14:24:35","33","33","5.0.14.0","2","179","trial1","naming","0","0","0","0","lizard","0","3484","1","White_Screen.jpg","5","146","Gecko.jpg","5"
"022420","14:24:35","33","33","5.0.14.0","2","180","trial1","naming","0","0","0","0","gas station","0","9218","1","White_Screen.jpg","5","160","GasStation.jpg","5"
"022420","14:24:35","33","33","5.0.14.0","2","181","trial1","naming","0","0","0","0","ice cubes","0","4083","1","White_Screen.jpg","5","194","IceCubes.jpg","5"
