"date","time","group","subject","build","blocknum","trialnum","blockcode","trialcode","pretrialpause","posttrialpause","trialduration","trialtimeout","response","correct","latency","stimulusnumber1","stimulusitem1","stimulusonset1","stimulusnumber2","stimulusitem2","stimulusonset2"
"091219","11:31:40","22","22","5.0.14.0","2","1","trial1","naming","0","0","0","0","PIPE","0","6479","1","White_Screen.jpg","208","23","SmokingPipe.jpg","208"
"091219","11:31:40","22","22","5.0.14.0","2","2","trial1","naming","0","0","0","0","BOW","0","7321","1","White_Screen.jpg","12","22","Crossbow.jpg","12"
"091219","11:31:40","22","22","5.0.14.0","2","3","trial1","naming","0","0","0","0","THREAD","0","5451","1","White_Screen.jpg","12","116","Spool_Thread.jpg","12"
"091219","11:31:40","22","22","5.0.14.0","2","4","trial1","naming","0","0","0","0","CAMERA BOX","0","6414","1","White_Screen.jpg","11","127","Bag_Satchel.jpg","11"
"091219","11:31:40","22","22","5.0.14.0","2","5","trial1","naming","0","0","0","0","EGRET","0","4935","1","White_Screen.jpg","11","123","Bird_Pelican.jpg","11"
"091219","11:31:40","22","22","5.0.14.0","2","6","trial1","naming","0","0","0","0","COUCH","0","4616","1","White_Screen.jpg","10","176","SofaAntique.jpg","10"
"091219","11:31:40","22","22","5.0.14.0","2","7","trial1","naming","0","0","0","0","DRESS","0","4569","1","White_Screen.jpg","14","61","Dress_Cocktail.jpg","14"
"091219","11:31:40","22","22","5.0.14.0","2","8","trial1","naming","0","0","0","0","HOOK","0","10000","1","White_Screen.jpg","12","180","Lacrosse_Stick.jpg","12"
"091219","11:31:40","22","22","5.0.14.0","2","9","trial1","naming","0","0","0","0","TUBE","0","7212","1","White_Screen.jpg","12","46","TestTube_Single.jpg","12"
"091219","11:31:40","22","22","5.0.14.0","2","10","trial1","naming","0","0","0","0","BIN","0","4540","1","White_Screen.jpg","12","83","Chest.jpg","12"
"091219","11:31:40","22","22","5.0.14.0","2","11","trial1","naming","0","0","0","0","BACTERIA","0","7701","1","White_Screen.jpg","12","192","Heelpad.jpg","12"
"091219","11:31:40","22","22","5.0.14.0","2","12","trial1","naming","0","0","0","0","SIGN","0","6345","1","White_Screen.jpg","10","35","Sign_SlipperyRoad.jpg","10"
"091219","11:31:40","22","22","5.0.14.0","2","13","trial1","naming","0","0","0","0","TRAIN","0","3267","1","White_Screen.jpg","12","2","Toy_Train.jpg","12"
"091219","11:31:40","22","22","5.0.14.0","2","14","trial1","naming","0","0","0","0","BULL","0","4255","1","White_Screen.jpg","14","27","Buffalo.jpg","14"
"091219","11:31:40","22","22","5.0.14.0","2","15","trial1","naming","0","0","0","0","DRILL BIT","0","8396","1","White_Screen.jpg","12","168","Jack.jpg","12"
"091219","11:31:40","22","22","5.0.14.0","2","16","trial1","naming","0","0","0","0","HAT","0","3178","1","White_Screen.jpg","12","96","Hat_Police.jpg","12"
"091219","11:31:40","22","22","5.0.14.0","2","17","trial1","naming","0","0","0","0","PLATE","0","3563","1","White_Screen.jpg","12","104","Tray_Metal.jpg","12"
"091219","11:31:40","22","22","5.0.14.0","2","18","trial1","naming","0","0","0","0","TIN BIN","0","4542","1","White_Screen.jpg","11","28","TinChristmas.jpg","11"
"091219","11:31:40","22","22","5.0.14.0","2","19","trial1","naming","0","0","0","0","CORD","0","3019","1","White_Screen.jpg","14","18","Cord_usb.jpg","14"
"091219","11:31:40","22","22","5.0.14.0","2","20","trial1","naming","0","0","0","0","ELEPHANT","0","4292","1","White_Screen.jpg","12","162","Elephant.jpg","12"
"091219","11:31:40","22","22","5.0.14.0","2","21","trial1","naming","0","0","0","0","MUSIC SCORE","0","7023","1","White_Screen.jpg","13","44","MusicSheet.jpg","13"
"091219","11:31:40","22","22","5.0.14.0","2","22","trial1","naming","0","0","0","0","STAPLER","0","3285","1","White_Screen.jpg","12","89","Stapler_Gun.jpg","12"
"091219","11:31:40","22","22","5.0.14.0","2","23","trial1","naming","0","0","0","0","MODEL HEAD","0","9114","1","White_Screen.jpg","12","24","MannequinHead.jpg","12"
"091219","11:31:40","22","22","5.0.14.0","2","24","trial1","naming","0","0","0","0","SOAP BAR","0","4172","1","White_Screen.jpg","10","10","Soap.jpg","10"
"091219","11:31:40","22","22","5.0.14.0","2","25","trial1","naming","0","0","0","0","SMOKE ALARM","0","5140","1","White_Screen.jpg","12","195","SmokeDetector.jpg","12"
"091219","11:31:40","22","22","5.0.14.0","2","26","trial1","naming","0","0","0","0","","0","10000","1","White_Screen.jpg","12","109","PylonTraffic.jpg","12"
"091219","11:31:40","22","22","5.0.14.0","2","27","trial1","naming","0","0","0","0","EGG ROLL","0","7572","1","White_Screen.jpg","12","16","Wontons.jpg","12"
"091219","11:31:40","22","22","5.0.14.0","2","28","trial1","naming","0","0","0","0","DOLL","0","3295","1","White_Screen.jpg","12","120","Toy_FigurineSwing.jpg","12"
"091219","11:31:40","22","22","5.0.14.0","2","29","trial1","naming","0","0","0","0","DOOR KNOB","0","5363","1","White_Screen.jpg","10","153","DoorKnob.jpg","10"
"091219","11:31:40","22","22","5.0.14.0","2","30","trial1","naming","0","0","0","0","BELT","0","3364","1","White_Screen.jpg","13","66","Belt.jpg","13"
"091219","11:31:40","22","22","5.0.14.0","2","31","trial1","naming","0","0","0","0","CAN OPENER","0","6663","1","White_Screen.jpg","11","172","IceCrusher.jpg","11"
"091219","11:31:40","22","22","5.0.14.0","2","32","trial1","naming","0","0","0","0","DRILL BIT","0","4141","1","White_Screen.jpg","13","181","CarSuspension.jpg","13"
"091219","11:31:40","22","22","5.0.14.0","2","33","trial1","naming","0","0","0","0","TABLE","0","2656","1","White_Screen.jpg","11","150","Bench_Concrete.jpg","11"
"091219","11:31:40","22","22","5.0.14.0","2","34","trial1","naming","0","0","0","0","WHEEL SPOKE","0","5006","1","White_Screen.jpg","12","136","TireRims.jpg","12"
"091219","11:31:40","22","22","5.0.14.0","2","35","trial1","naming","0","0","0","0","PAPER TOWELS","0","5569","1","White_Screen.jpg","13","111","PaperTowel_Kitchen.jpg","13"
"091219","11:31:40","22","22","5.0.14.0","2","36","trial1","naming","0","0","0","0","MERRY GO ROUND","0","4889","1","White_Screen.jpg","10","75","Toy_MerryGoRound.jpg","10"
"091219","11:31:40","22","22","5.0.14.0","2","37","trial1","naming","0","0","0","0","DRILL","0","2483","1","White_Screen.jpg","10","92","Drill.jpg","10"
"091219","11:31:40","22","22","5.0.14.0","2","38","trial1","naming","0","0","0","0","GAS PUMP","0","4854","1","White_Screen.jpg","12","31","Toy_GasPump.jpg","12"
"091219","11:31:40","22","22","5.0.14.0","2","39","trial1","naming","0","0","0","0","SKI SHOES","0","7675","1","White_Screen.jpg","10","19","Bindings_Snowboard.jpg","10"
"091219","11:31:40","22","22","5.0.14.0","2","40","trial1","naming","0","0","0","0","CONTAINER","0","5398","1","White_Screen.jpg","11","25","Trash_Medical.jpg","11"
"091219","11:31:40","22","22","5.0.14.0","2","41","trial1","naming","0","0","0","0","BURGER","0","3307","1","White_Screen.jpg","10","63","Cheeseburger.jpg","10"
"091219","11:31:40","22","22","5.0.14.0","2","42","trial1","naming","0","0","0","0","LINT BRUSH","0","4533","1","White_Screen.jpg","12","165","Brush_Light.jpg","12"
"091219","11:31:40","22","22","5.0.14.0","2","43","trial1","naming","0","0","0","0","FRAME","0","5766","1","White_Screen.jpg","11","146","CertificateFramed.jpg","11"
"091219","11:31:40","22","22","5.0.14.0","2","44","trial1","naming","0","0","0","0","OXYGEN TANK","0","6563","1","White_Screen.jpg","11","67","Cannister_Gas.jpg","11"
"091219","11:31:40","22","22","5.0.14.0","2","45","trial1","naming","0","0","0","0","ARTIFACT","0","9710","1","White_Screen.jpg","12","9","Statue_SouthAmerican.jpg","12"
"091219","11:31:40","22","22","5.0.14.0","2","46","trial1","naming","0","0","0","0","FLUTE","0","3183","1","White_Screen.jpg","10","62","Flute_Tin.jpg","10"
"091219","11:31:40","22","22","5.0.14.0","2","47","trial1","naming","0","0","0","0","HONEY COMBN","0","5270","1","White_Screen.jpg","11","97","Honeycomb.jpg","11"
"091219","11:31:40","22","22","5.0.14.0","2","48","trial1","naming","0","0","0","0","SKI MASK","0","4264","1","White_Screen.jpg","11","113","Mask_HockeyGoalie.jpg","11"
"091219","11:31:40","22","22","5.0.14.0","2","49","trial1","naming","0","0","0","0","JACKET","0","3308","1","White_Screen.jpg","11","98","Jacket_Suit.jpg","11"
"091219","11:31:40","22","22","5.0.14.0","2","50","trial1","naming","0","0","0","0","ESCALATOR","0","3985","1","White_Screen.jpg","9","131","Escalator.jpg","9"
"091219","11:31:40","22","22","5.0.14.0","2","52","trial1","naming","0","0","0","0","disc","0","9709","1","White_Screen.jpg","10","101","SatelliteDish.jpg","10"
"091219","11:31:40","22","22","5.0.14.0","2","53","trial1","naming","0","0","0","0","chocolate","0","5411","1","White_Screen.jpg","10","155","ChocolateBar_Unwrapped.jpg","10"
"091219","11:31:40","22","22","5.0.14.0","2","54","trial1","naming","0","0","0","0","musical instrumwent","0","6031","1","White_Screen.jpg","10","179","Instrument_Guiro.jpg","10"
"091219","11:31:40","22","22","5.0.14.0","2","55","trial1","naming","0","0","0","0","die","0","5711","1","White_Screen.jpg","11","60","Dice.jpg","11"
"091219","11:31:40","22","22","5.0.14.0","2","56","trial1","naming","0","0","0","0","lighter","0","3975","1","White_Screen.jpg","11","114","Lighter_Yellow.jpg","11"
"091219","11:31:40","22","22","5.0.14.0","2","57","trial1","naming","0","0","0","0","pretzel","0","3519","1","White_Screen.jpg","11","82","Pretzel_Sticks.jpg","11"
"091219","11:31:40","22","22","5.0.14.0","2","58","trial1","naming","0","0","0","0","electrical cord","0","6274","1","White_Screen.jpg","11","197","Wire_ElectricalSingle.jpg","11"
"091219","11:31:40","22","22","5.0.14.0","2","59","trial1","naming","0","0","0","0","cymbals","0","3921","1","White_Screen.jpg","10","164","Drum_Cymbal.jpg","10"
"091219","11:31:40","22","22","5.0.14.0","2","60","trial1","naming","0","0","0","0","plastic toy","0","4897","1","White_Screen.jpg","13","106","Toy_Turtle.jpg","13"
"091219","11:31:40","22","22","5.0.14.0","2","61","trial1","naming","0","0","0","0","candlabra","0","9981","1","White_Screen.jpg","10","64","Candelabra.jpg","10"
"091219","11:31:40","22","22","5.0.14.0","2","62","trial1","naming","0","0","0","0","lamp","0","3190","1","White_Screen.jpg","12","188","Lamp_Table.jpg","12"
"091219","11:31:40","22","22","5.0.14.0","2","63","trial1","naming","0","0","0","0","shell","0","3376","1","White_Screen.jpg","12","32","Seashell_BayScallop.jpg","12"
"091219","11:31:40","22","22","5.0.14.0","2","64","trial1","naming","0","0","0","0","clay","0","3249","1","White_Screen.jpg","12","39","StickyTack.jpg","12"
"091219","11:31:40","22","22","5.0.14.0","2","65","trial1","naming","0","0","0","0","key chain","0","6623","1","White_Screen.jpg","11","42","ChalkLineTool.jpg","11"
"091219","11:31:40","22","22","5.0.14.0","2","66","trial1","naming","0","0","0","0","toy lion","0","3895","1","White_Screen.jpg","11","122","Toy_Lion.jpg","11"
"091219","11:31:40","22","22","5.0.14.0","2","67","trial1","naming","0","0","0","0","bell","0","2675","1","White_Screen.jpg","11","95","ServiceBell.jpg","11"
"091219","11:31:40","22","22","5.0.14.0","2","68","trial1","naming","0","0","0","0","hair dryer","0","5040","1","White_Screen.jpg","12","194","HairDryer.jpg","12"
"091219","11:31:40","22","22","5.0.14.0","2","69","trial1","naming","0","0","0","0","cat","0","2260","1","White_Screen.jpg","11","149","Cat.jpg","11"
"091219","11:31:40","22","22","5.0.14.0","2","70","trial1","naming","0","0","0","0","cage","0","3107","1","White_Screen.jpg","12","177","Balcony.jpg","12"
"091219","11:31:40","22","22","5.0.14.0","2","71","trial1","naming","0","0","0","0","grill","0","4391","1","White_Screen.jpg","12","151","Grill_Gas.jpg","12"
"091219","11:31:40","22","22","5.0.14.0","2","72","trial1","naming","0","0","0","0","star","0","4200","1","White_Screen.jpg","11","20","Star.jpg","11"
"091219","11:31:40","22","22","5.0.14.0","2","73","trial1","naming","0","0","0","0","enter button","0","7173","1","White_Screen.jpg","11","65","PowerDoorPushButton.jpg","11"
"091219","11:31:40","22","22","5.0.14.0","2","74","trial1","naming","0","0","0","0","candy box","0","9948","1","White_Screen.jpg","12","189","Booth_Carnival.jpg","12"
"091219","11:31:40","22","22","5.0.14.0","2","75","trial1","naming","0","0","0","0","lizard","0","4121","1","White_Screen.jpg","12","174","Toy_Chameleon.jpg","12"
"091219","11:31:40","22","22","5.0.14.0","2","76","trial1","naming","0","0","0","0","timber for fire","0","5013","1","White_Screen.jpg","10","43","Branches_Campfire.jpg","10"
"091219","11:31:40","22","22","5.0.14.0","2","77","trial1","naming","0","0","0","0","chess game","0","3354","1","White_Screen.jpg","10","103","Boardgame_Chess.jpg","10"
"091219","11:31:40","22","22","5.0.14.0","2","78","trial1","naming","0","0","0","0","holy mary","0","5034","1","White_Screen.jpg","11","167","Statue_VirginMary.jpg","11"
"091219","11:31:40","22","22","5.0.14.0","2","79","trial1","naming","0","0","0","0","tables","0","3070","1","White_Screen.jpg","10","84","Table_Set.jpg","10"
"091219","11:31:40","22","22","5.0.14.0","2","80","trial1","naming","0","0","0","0","harpsichord","0","5180","1","White_Screen.jpg","12","13","Organ.jpg","12"
"091219","11:31:40","22","22","5.0.14.0","2","81","trial1","naming","0","0","0","0","b ox","0","2567","1","White_Screen.jpg","12","74","Box_WoodenClosed.jpg","12"
"091219","11:31:40","22","22","5.0.14.0","2","82","trial1","naming","0","0","0","0","clay cup","0","6434","1","White_Screen.jpg","11","184","Pottery.jpg","11"
"091219","11:31:40","22","22","5.0.14.0","2","83","trial1","naming","0","0","0","0","tin soldier","0","5148","1","White_Screen.jpg","10","200","Nutcracker.jpg","10"
"091219","11:31:40","22","22","5.0.14.0","2","84","trial1","naming","0","0","0","0","holy bible","0","3963","1","White_Screen.jpg","10","129","Bible.jpg","10"
"091219","11:31:40","22","22","5.0.14.0","2","85","trial1","naming","0","0","0","0","laundry","0","4345","1","White_Screen.jpg","12","157","LaundryHamper.jpg","12"
"091219","11:31:40","22","22","5.0.14.0","2","86","trial1","naming","0","0","0","0","whip","0","3456","1","White_Screen.jpg","12","138","Whip.jpg","12"
"091219","11:31:40","22","22","5.0.14.0","2","87","trial1","naming","0","0","0","0","cleaner","0","3086","1","White_Screen.jpg","12","139","Spraybottle.jpg","12"
"091219","11:31:40","22","22","5.0.14.0","2","88","trial1","naming","0","0","0","0","jellybeans","0","3956","1","White_Screen.jpg","11","15","Jar_JellyBeans.jpg","11"
"091219","11:31:40","22","22","5.0.14.0","2","89","trial1","naming","0","0","0","0","child high chair","0","8029","1","White_Screen.jpg","11","59","Chair_High.jpg","11"
"091219","11:31:40","22","22","5.0.14.0","2","90","trial1","naming","0","0","0","0","bleach","0","5193","1","White_Screen.jpg","12","36","Bottle_Bleach.jpg","12"
"091219","11:31:40","22","22","5.0.14.0","2","91","trial1","naming","0","0","0","0","bowling pin","0","4326","1","White_Screen.jpg","12","178","BowlingPin.jpg","12"
"091219","11:31:40","22","22","5.0.14.0","2","92","trial1","naming","0","0","0","0","corn","0","3055","1","White_Screen.jpg","11","161","Corn.jpg","11"
"091219","11:31:40","22","22","5.0.14.0","2","93","trial1","naming","0","0","0","0","ha","0","10000","1","White_Screen.jpg","12","56","Piano_Keyboard.jpg","12"
"091219","11:31:40","22","22","5.0.14.0","2","94","trial1","naming","0","0","0","0","bagh","0","3098","1","White_Screen.jpg","12","118","Case_Pencil.jpg","12"
"091219","11:31:40","22","22","5.0.14.0","2","95","trial1","naming","0","0","0","0","strainer","0","5183","1","White_Screen.jpg","10","191","Sieve_TopView.jpg","10"
"091219","11:31:40","22","22","5.0.14.0","2","96","trial1","naming","0","0","0","0","spatula","0","5068","1","White_Screen.jpg","10","47","CheeseSlicer.jpg","10"
"091219","11:31:40","22","22","5.0.14.0","2","97","trial1","naming","0","0","0","0","bluebeeries","0","5457","1","White_Screen.jpg","13","140","Blueberry.jpg","13"
"091219","11:31:40","22","22","5.0.14.0","2","98","trial1","naming","0","0","0","0","envelope","0","4013","1","White_Screen.jpg","12","12","Envelope_Letter.jpg","12"
"091219","11:31:40","22","22","5.0.14.0","2","99","trial1","naming","0","0","0","0","bag","0","2410","1","White_Screen.jpg","12","37","Bag_Camera.jpg","12"
"091219","11:31:40","22","22","5.0.14.0","2","100","trial1","naming","0","0","0","0","ribbon","0","4219","1","White_Screen.jpg","12","115","RibbonString.jpg","12"
"091219","11:31:40","22","22","5.0.14.0","2","101","trial1","naming","0","0","0","0","bread","0","3307","1","White_Screen.jpg","10","7","Bread_Loaf.jpg","10"
"091219","11:31:40","22","22","5.0.14.0","2","103","trial1","naming","0","0","0","0","tortilla","0","4850","1","White_Screen.jpg","10","199","TortillaChip.jpg","10"
"091219","11:31:40","22","22","5.0.14.0","2","104","trial1","naming","0","0","0","0","gps","0","4917","1","White_Screen.jpg","12","71","BicycleOdometer.jpg","12"
"091219","11:31:40","22","22","5.0.14.0","2","105","trial1","naming","0","0","0","0","glue gun","0","5950","1","White_Screen.jpg","12","91","Gun_Glue.jpg","12"
"091219","11:31:40","22","22","5.0.14.0","2","106","trial1","naming","0","0","0","0","separator","0","7034","1","White_Screen.jpg","12","11","Partition.jpg","12"
"091219","11:31:40","22","22","5.0.14.0","2","107","trial1","naming","0","0","0","0","corvette","0","5441","1","White_Screen.jpg","11","163","Car_Ferrari.jpg","11"
"091219","11:31:40","22","22","5.0.14.0","2","108","trial1","naming","0","0","0","0","squirrel","0","3611","1","White_Screen.jpg","11","40","Chipmunk.jpg","11"
"091219","11:31:40","22","22","5.0.14.0","2","109","trial1","naming","0","0","0","0","medicine bottle","0","7395","1","White_Screen.jpg","10","21","PillBottle_Prescription.jpg","10"
"091219","11:31:40","22","22","5.0.14.0","2","110","trial1","naming","0","0","0","0","coffee beans","0","4818","1","White_Screen.jpg","11","124","CoffeeBeans.jpg","11"
"091219","11:31:40","22","22","5.0.14.0","2","111","trial1","naming","0","0","0","0","lighthouse","0","6120","1","White_Screen.jpg","9","183","LightHouse.jpg","9"
"091219","11:31:40","22","22","5.0.14.0","2","112","trial1","naming","0","0","0","0","horn","0","3115","1","White_Screen.jpg","12","33","Trumpet.jpg","12"
"091219","11:31:40","22","22","5.0.14.0","2","113","trial1","naming","0","0","0","0","spaghetti","0","5720","1","White_Screen.jpg","10","99","Pasta_Spaghetti.jpg","10"
"091219","11:31:40","22","22","5.0.14.0","2","114","trial1","naming","0","0","0","0","lamp","0","3174","1","White_Screen.jpg","12","187","PatioHeater.jpg","12"
"091219","11:31:40","22","22","5.0.14.0","2","115","trial1","naming","0","0","0","0","acorb","0","5647","1","White_Screen.jpg","11","49","Hazelnut.jpg","11"
"091219","11:31:40","22","22","5.0.14.0","2","116","trial1","naming","0","0","0","0","pitcher","0","7304","1","White_Screen.jpg","12","171","Jug_Milk.jpg","12"
"091219","11:31:40","22","22","5.0.14.0","2","117","trial1","naming","0","0","0","0","bow and arrows","0","5220","1","White_Screen.jpg","12","34","Archery_Arrows.jpg","12"
"091219","11:31:40","22","22","5.0.14.0","2","118","trial1","naming","0","0","0","0","olive oil","0","4504","1","White_Screen.jpg","11","79","Bottle_Liquor.jpg","11"
"091219","11:31:40","22","22","5.0.14.0","2","119","trial1","naming","0","0","0","0","medical machine","0","6257","1","White_Screen.jpg","12","186","Machine_Arm.jpg","12"
"091219","11:31:40","22","22","5.0.14.0","2","120","trial1","naming","0","0","0","0","water tap","0","3185","1","White_Screen.jpg","11","102","Tap.jpg","11"
"091219","11:31:40","22","22","5.0.14.0","2","121","trial1","naming","0","0","0","0","yacht","0","3066","1","White_Screen.jpg","12","121","Ship_Cruise.jpg","12"
"091219","11:31:40","22","22","5.0.14.0","2","122","trial1","naming","0","0","0","0","robot","0","5386","1","White_Screen.jpg","10","142","Toy_RobotClassic.jpg","10"
"091219","11:31:40","22","22","5.0.14.0","2","123","trial1","naming","0","0","0","0","juice drink","0","6541","1","White_Screen.jpg","11","93","Drink_Green.jpg","11"
"091219","11:31:40","22","22","5.0.14.0","2","124","trial1","naming","0","0","0","0","claw trap","0","7041","1","White_Screen.jpg","10","108","TrapAnimal.jpg","10"
"091219","11:31:40","22","22","5.0.14.0","2","125","trial1","naming","0","0","0","0","ski mask","0","3656","1","White_Screen.jpg","11","190","Mask_Ski.jpg","11"
"091219","11:31:40","22","22","5.0.14.0","2","126","trial1","naming","0","0","0","0","barometer","0","3850","1","White_Screen.jpg","14","141","Barometer_Wood.jpg","14"
"091219","11:31:40","22","22","5.0.14.0","2","127","trial1","naming","0","0","0","0","spider web","0","3819","1","White_Screen.jpg","10","148","SpiderWeb.jpg","10"
"091219","11:31:40","22","22","5.0.14.0","2","128","trial1","naming","0","0","0","0","castle","0","2519","1","White_Screen.jpg","12","5","Fortress.jpg","12"
"091219","11:31:40","22","22","5.0.14.0","2","129","trial1","naming","0","0","0","0","tool","0","4311","1","White_Screen.jpg","13","41","BunsenBurner.jpg","13"
"091219","11:31:40","22","22","5.0.14.0","2","130","trial1","naming","0","0","0","0","banana","0","3964","1","White_Screen.jpg","12","4","Banana.jpg","12"
"091219","11:31:40","22","22","5.0.14.0","2","131","trial1","naming","0","0","0","0","pin cushion","0","6526","1","White_Screen.jpg","10","160","SewingPin_Cushion.jpg","10"
"091219","11:31:40","22","22","5.0.14.0","2","132","trial1","naming","0","0","0","0","bag","0","2633","1","White_Screen.jpg","11","80","Bag_Diaper.jpg","11"
"091219","11:31:40","22","22","5.0.14.0","2","133","trial1","naming","0","0","0","0","recycle bin","0","3964","1","White_Screen.jpg","10","1","BinRecycling.jpg","10"
"091219","11:31:40","22","22","5.0.14.0","2","134","trial1","naming","0","0","0","0","stethoscope","0","5605","1","White_Screen.jpg","10","105","Stethoscope.jpg","10"
"091219","11:31:40","22","22","5.0.14.0","2","135","trial1","naming","0","0","0","0","hole punch","0","4844","1","White_Screen.jpg","12","87","ThreeHolePunch.jpg","12"
"091219","11:31:40","22","22","5.0.14.0","2","136","trial1","naming","0","0","0","0","pasta","0","3145","1","White_Screen.jpg","11","50","Pasta_Shell.jpg","11"
"091219","11:31:40","22","22","5.0.14.0","2","137","trial1","naming","0","0","0","0","flower","0","6498","1","White_Screen.jpg","11","52","Flower_Hibiscus.jpg","11"
"091219","11:31:40","22","22","5.0.14.0","2","138","trial1","naming","0","0","0","0","ironing board","0","4718","1","White_Screen.jpg","13","57","IroningBoard.jpg","13"
"091219","11:31:40","22","22","5.0.14.0","2","139","trial1","naming","0","0","0","0","roller","0","4401","1","White_Screen.jpg","11","125","RollingPin.jpg","11"
"091219","11:31:40","22","22","5.0.14.0","2","140","trial1","naming","0","0","0","0","mask","0","2573","1","White_Screen.jpg","12","158","Mask_VenetianCat.jpg","12"
"091219","11:31:40","22","22","5.0.14.0","2","141","trial1","naming","0","0","0","0","bag","0","2497","1","White_Screen.jpg","11","14","Backpack_Travel.jpg","11"
"091219","11:31:40","22","22","5.0.14.0","2","142","trial1","naming","0","0","0","0","ruler","0","3063","1","White_Screen.jpg","12","185","SetSquare.jpg","12"
"091219","11:31:40","22","22","5.0.14.0","2","143","trial1","naming","0","0","0","0","stove top","0","5590","1","White_Screen.jpg","11","85","GasBurner.jpg","11"
"091219","11:31:40","22","22","5.0.14.0","2","144","trial1","naming","0","0","0","0","photo frame","0","7848","1","White_Screen.jpg","10","166","PictureFrame.jpg","10"
"091219","11:31:40","22","22","5.0.14.0","2","145","trial1","naming","0","0","0","0","water drop","0","3213","1","White_Screen.jpg","12","143","Teardrop.jpg","12"
"091219","11:31:40","22","22","5.0.14.0","2","146","trial1","naming","0","0","0","0","rubber band","0","5272","1","White_Screen.jpg","16","88","ElasticBand.jpg","16"
"091219","11:31:40","22","22","5.0.14.0","2","147","trial1","naming","0","0","0","0","desk","0","3991","1","White_Screen.jpg","11","170","Desk_Office.jpg","11"
"091219","11:31:40","22","22","5.0.14.0","2","148","trial1","naming","0","0","0","0","k","0","10000","1","White_Screen.jpg","12","3","ComputerKey_Escape.jpg","12"
"091219","11:31:40","22","22","5.0.14.0","2","149","trial1","naming","0","0","0","0","heart","0","3880","1","White_Screen.jpg","11","38","Candy_Heart.jpg","11"
"091219","11:31:40","22","22","5.0.14.0","2","150","trial1","naming","0","0","0","0","napkin","0","3636","1","White_Screen.jpg","11","68","Napkin_Single.jpg","11"
"091219","11:31:40","22","22","5.0.14.0","2","151","trial1","naming","0","0","0","0","cooking tools","0","4921","1","White_Screen.jpg","12","107","KitchenTools.jpg","12"
"091219","11:31:40","22","22","5.0.14.0","2","152","trial1","naming","0","0","0","0","mouse","0","2986","1","White_Screen.jpg","10","173","ComputerMouse.jpg","10"
"091219","11:31:40","22","22","5.0.14.0","2","154","trial1","naming","0","0","0","0","syringe","0","5144","1","White_Screen.jpg","10","130","Syringe_Blunt.jpg","10"
"091219","11:31:40","22","22","5.0.14.0","2","155","trial1","naming","0","0","0","0","water can","0","7229","1","White_Screen.jpg","12","100","WateringCan_PlasticDarkGreen.jpg","12"
"091219","11:31:40","22","22","5.0.14.0","2","156","trial1","naming","0","0","0","0","motherboard","0","5909","1","White_Screen.jpg","11","198","RAMchip.jpg","11"
"091219","11:31:40","22","22","5.0.14.0","2","157","trial1","naming","0","0","0","0","sandwich","0","4523","1","White_Screen.jpg","12","6","Sandwich_Egg.jpg","12"
"091219","11:31:40","22","22","5.0.14.0","2","158","trial1","naming","0","0","0","0","flamingo","0","3566","1","White_Screen.jpg","12","51","Flamingo_Cartoon.jpg","12"
"091219","11:31:40","22","22","5.0.14.0","2","159","trial1","naming","0","0","0","0","canister","0","5700","1","White_Screen.jpg","12","134","DrinkShaker.jpg","12"
"091219","11:31:40","22","22","5.0.14.0","2","160","trial1","naming","0","0","0","0","gps","0","2475","1","White_Screen.jpg","13","30","AmpMeter.jpg","13"
"091219","11:31:40","22","22","5.0.14.0","2","161","trial1","naming","0","0","0","0","iron","0","4314","1","White_Screen.jpg","12","117","Iron_Antique.jpg","12"
"091219","11:31:40","22","22","5.0.14.0","2","162","trial1","naming","0","0","0","0","speaker","0","3047","1","White_Screen.jpg","9","17","Speaker_OnStand.jpg","9"
"091219","11:31:40","22","22","5.0.14.0","2","163","trial1","naming","0","0","0","0","toys","0","2989","1","White_Screen.jpg","10","135","Toy_BlocksMultiShape.jpg","10"
"091219","11:31:40","22","22","5.0.14.0","2","164","trial1","naming","0","0","0","0","pin","0","4368","1","White_Screen.jpg","14","169","SewingPin_Single.jpg","14"
"091219","11:31:40","22","22","5.0.14.0","2","165","trial1","naming","0","0","0","0","chair","0","3414","1","White_Screen.jpg","9","182","Chair_Airplane.jpg","9"
"091219","11:31:40","22","22","5.0.14.0","2","166","trial1","naming","0","0","0","0","ladder","0","3026","1","White_Screen.jpg","11","86","Ladder.jpg","11"
"091219","11:31:40","22","22","5.0.14.0","2","167","trial1","naming","0","0","0","0","road sign","0","5843","1","White_Screen.jpg","10","45","Sign_Parking.jpg","10"
"091219","11:31:40","22","22","5.0.14.0","2","168","trial1","naming","0","0","0","0","vacuum cleaner","0","9115","1","White_Screen.jpg","11","137","VacuumHandheld.jpg","11"
"091219","11:31:40","22","22","5.0.14.0","2","169","trial1","naming","0","0","0","0","tool","0","4226","1","White_Screen.jpg","12","69","WireStripper.jpg","12"
"091219","11:31:40","22","22","5.0.14.0","2","170","trial1","naming","0","0","0","0","tube","0","2841","1","White_Screen.jpg","10","154","Pipe.jpg","10"
"091219","11:31:40","22","22","5.0.14.0","2","171","trial1","naming","0","0","0","0","knife","0","5256","1","White_Screen.jpg","10","193","PocketKnife.jpg","10"
"091219","11:31:40","22","22","5.0.14.0","2","172","trial1","naming","0","0","0","0","spatula","0","3001","1","White_Screen.jpg","12","119","Spatula_1.jpg","12"
"091219","11:31:40","22","22","5.0.14.0","2","173","trial1","naming","0","0","0","0","speakers","0","2842","1","White_Screen.jpg","11","8","Speaker_Computer.jpg","11"
"091219","11:31:40","22","22","5.0.14.0","2","174","trial1","naming","0","0","0","0","robin","0","2841","1","White_Screen.jpg","10","53","Bird_Cardinal.jpg","10"
"091219","11:31:40","22","22","5.0.14.0","2","175","trial1","naming","0","0","0","0","granola","0","3384","1","White_Screen.jpg","12","145","GranolaBar.jpg","12"
"091219","11:31:40","22","22","5.0.14.0","2","176","trial1","naming","0","0","0","0","bison","0","3726","1","White_Screen.jpg","13","94","Boar.jpg","13"
"091219","11:31:40","22","22","5.0.14.0","2","177","trial1","naming","0","0","0","0","waterwheel","0","7787","1","White_Screen.jpg","10","147","Windmill_Building.jpg","10"
"091219","11:31:40","22","22","5.0.14.0","2","178","trial1","naming","0","0","0","0","lamp","0","3465","1","White_Screen.jpg","12","70","Lantern_TeaBox.jpg","12"
"091219","11:31:40","22","22","5.0.14.0","2","179","trial1","naming","0","0","0","0","candy","0","3127","1","White_Screen.jpg","10","156","Sashimi.jpg","10"
"091219","11:31:40","22","22","5.0.14.0","2","180","trial1","naming","0","0","0","0","art","0","4747","1","White_Screen.jpg","12","152","Stone_Mill.jpg","12"
"091219","11:31:40","22","22","5.0.14.0","2","181","trial1","naming","0","0","0","0","tape measure","0","3664","1","White_Screen.jpg","13","128","MeasuringTape.jpg","13"
"091219","11:31:40","22","22","5.0.14.0","2","182","trial1","naming","0","0","0","0","booties","0","6429","1","White_Screen.jpg","12","81","Booties_Blue.jpg","12"
"091219","11:31:40","22","22","5.0.14.0","2","183","trial1","naming","0","0","0","0","wii game","0","5431","1","White_Screen.jpg","11","126","NintendoWii.jpg","11"
"091219","11:31:40","22","22","5.0.14.0","2","184","trial1","naming","0","0","0","0","thumb tack","0","4816","1","White_Screen.jpg","12","58","Thumbtack.jpg","12"
"091219","11:31:40","22","22","5.0.14.0","2","185","trial1","naming","0","0","0","0","helmet","0","3644","1","White_Screen.jpg","8","132","Helmet_Soldier.jpg","8"
"091219","11:31:40","22","22","5.0.14.0","2","186","trial1","naming","0","0","0","0","table tennis","0","4351","1","White_Screen.jpg","15","55","Table_PingPong.jpg","15"
"091219","11:31:40","22","22","5.0.14.0","2","187","trial1","naming","0","0","0","0","briefcase","0","7740","1","White_Screen.jpg","17","72","Briefcase_Open.jpg","17"
"091219","11:31:40","22","22","5.0.14.0","2","188","trial1","naming","0","0","0","0","gord","0","3151","1","White_Screen.jpg","16","26","CableConnecter.jpg","16"
"091219","11:31:40","22","22","5.0.14.0","2","189","trial1","naming","0","0","0","0","air pump","0","9826","1","White_Screen.jpg","15","29","AirPump.jpg","15"
"091219","11:31:40","22","22","5.0.14.0","2","190","trial1","naming","0","0","0","0","gorilla","0","3822","1","White_Screen.jpg","13","90","Gorilla.jpg","13"
"091219","11:31:40","22","22","5.0.14.0","2","191","trial1","naming","0","0","0","0","horseshoe","0","4493","1","White_Screen.jpg","13","159","Horseshoe.jpg","13"
"091219","11:31:40","22","22","5.0.14.0","2","192","trial1","naming","0","0","0","0","tee shirt","0","3286","1","White_Screen.jpg","13","76","Shirt_Tshirt.jpg","13"
"091219","11:31:40","22","22","5.0.14.0","2","193","trial1","naming","0","0","0","0","merry go round","0","4638","1","White_Screen.jpg","10","48","Carousel copy.jpg","10"
"091219","11:31:40","22","22","5.0.14.0","2","194","trial1","naming","0","0","0","0","alvocaldo","0","10000","1","White_Screen.jpg","13","73","Avocado.jpg","13"
"091219","11:31:40","22","22","5.0.14.0","2","195","trial1","naming","0","0","0","0","owlEnter Name","0","2084","1","White_Screen.jpg","11","77","Owl.jpg","11"
"091219","11:31:40","22","22","5.0.14.0","2","196","trial1","naming","0","0","0","0","peacan","0","8188","1","White_Screen.jpg","10","133","Nuts_Pecan.jpg","10"
"091219","11:31:40","22","22","5.0.14.0","2","197","trial1","naming","0","0","0","0","kangaroo","0","5065","1","White_Screen.jpg","12","196","Kangaroo_WithJoey.jpg","12"
"091219","11:31:40","22","22","5.0.14.0","2","198","trial1","naming","0","0","0","0","bowl","0","3818","1","White_Screen.jpg","12","112","Bowl_Chinese.jpg","12"
"091219","11:31:40","22","22","5.0.14.0","2","199","trial1","naming","0","0","0","0","spatula","0","6696","1","White_Screen.jpg","12","175","PotatoMasher_Zigzag.jpg","12"
"091219","11:31:40","22","22","5.0.14.0","2","200","trial1","naming","0","0","0","0","melon","0","3365","1","White_Screen.jpg","13","110","Honeydew_Green.jpg","13"
"091219","11:31:40","22","22","5.0.14.0","2","201","trial1","naming","0","0","0","0","bag","0","2856","1","White_Screen.jpg","11","144","Bag_Hand.jpg","11"
"091219","11:31:40","22","22","5.0.14.0","2","202","trial1","naming","0","0","0","0","chest","0","2949","1","White_Screen.jpg","12","54","Trunk.jpg","12"
"091219","11:31:40","22","22","5.0.14.0","2","203","trial1","naming","0","0","0","0","tree","0","3753","1","White_Screen.jpg","11","78","Puzzle_Tree.jpg","11"
"091219","11:31:40","22","22","5.0.14.0","3","1","demographics_block","gender","0","0","0","0","female","1","22119","0","0","0","0","0","0"
"091219","11:31:40","22","22","5.0.14.0","3","1","demographics_block","age","0","0","0","0","33","1","22119","0","0","0","0","0","0"
"091219","11:31:40","22","22","5.0.14.0","3","1","demographics_block","education","0","0","0","0","15","1","22119","0","0","0","0","0","0"
"091219","11:31:40","22","22","5.0.14.0","3","2","demographics_block","left_right_handed","0","0","0","0","Left","1","53280","0","0","0","0","0","0"
"091219","11:31:40","22","22","5.0.14.0","3","2","demographics_block","raceoption1","0","0","0","0","0","1","53280","0","0","0","0","0","0"
"091219","11:31:40","22","22","5.0.14.0","3","2","demographics_block","raceoption2","0","0","0","0","","1","53280","0","0","0","0","0","0"
"091219","11:31:40","22","22","5.0.14.0","3","2","demographics_block","raceoption3","0","0","0","0","","1","53280","0","0","0","0","0","0"
"091219","11:31:40","22","22","5.0.14.0","3","2","demographics_block","raceoption4","0","0","0","0","","1","53280","0","0","0","0","0","0"
"091219","11:31:40","22","22","5.0.14.0","3","2","demographics_block","raceoption5","0","0","0","0","","1","53280","0","0","0","0","0","0"
"091219","11:31:40","22","22","5.0.14.0","3","2","demographics_block","raceoption6","0","0","0","0","","1","53280","0","0","0","0","0","0"
"091219","11:31:40","22","22","5.0.14.0","3","2","demographics_block","raceoption7","0","0","0","0","","1","53280","0","0","0","0","0","0"
"091219","11:31:40","22","22","5.0.14.0","3","2","demographics_block","raceoption8","0","0","0","0","","1","53280","0","0","0","0","0","0"
"091219","11:31:40","22","22","5.0.14.0","3","2","demographics_block","raceoption9","0","0","0","0","","1","53280","0","0","0","0","0","0"
"091219","11:31:40","22","22","5.0.14.0","3","2","demographics_block","raceother","0","0","0","0","","1","53280","0","0","0","0","0","0"
"091219","11:31:40","22","22","5.0.14.0","3","2","demographics_block","raceother","0","0","0","0","","1","53280","0","0","0","0","0","0"
"091219","11:31:40","22","22","5.0.14.0","3","2","demographics_block","english_language","0","0","0","0","Yes","1","53280","0","0","0","0","0","0"
"091219","11:31:40","22","22","5.0.14.0","3","2","demographics_block","english_languageother","0","0","0","0","","1","53280","0","0","0","0","0","0"
"091219","11:31:40","22","22","5.0.14.0","3","3","demographics_block","eyesight","0","0","0","0","Yes","1","12852","0","0","0","0","0","0"
"091219","11:31:40","22","22","5.0.14.0","3","3","demographics_block","colorblind","0","0","0","0","No","1","12852","0","0","0","0","0","0"
"091219","11:31:40","22","22","5.0.14.0","4","1","worker_id_block","worker_id_textbox","0","0","0","0","A34N69O6CMW2S1","1","11299","0","0","0","0","0","0"
"date","time","group","subject","build","blocknum","trialnum","blockcode","trialcode","pretrialpause","posttrialpause","trialduration","trialtimeout","response","correct","latency","stimulusnumber1","stimulusitem1","stimulusonset1","stimulusnumber2","stimulusitem2","stimulusonset2"
"091219","12:35:16","24","24","5.0.14.0","2","1","trial1","naming","0","0","0","0","face maskEnter Name","0","10000","1","White_Screen.jpg","75","113","Mask_HockeyGoalie.jpg","75"
"091219","12:35:16","24","24","5.0.14.0","2","2","trial1","naming","0","0","0","0","horseshoeEnter Name","0","9134","1","White_Screen.jpg","8","159","Horseshoe.jpg","8"
"091219","12:35:16","24","24","5.0.14.0","2","3","trial1","naming","0","0","0","0","jumpEnter Name","0","10000","1","White_Screen.jpg","8","138","Whip.jpg","8"
"091219","12:35:16","24","24","5.0.14.0","2","4","trial1","naming","0","0","0","0","highcairEnter Name","0","7784","1","White_Screen.jpg","9","59","Chair_High.jpg","9"
"091219","12:35:16","24","24","5.0.14.0","2","5","trial1","naming","0","0","0","0","granola barEnter Name","0","9888","1","White_Screen.jpg","11","145","GranolaBar.jpg","11"
"091219","12:35:16","24","24","5.0.14.0","2","6","trial1","naming","0","0","0","0","acornEnter Name","0","8106","1","White_Screen.jpg","11","49","Hazelnut.jpg","11"
"091219","12:35:16","24","24","5.0.14.0","2","7","trial1","naming","0","0","0","0","mouseEnter Name","0","4085","1","White_Screen.jpg","10","173","ComputerMouse.jpg","10"
"091219","12:35:16","24","24","5.0.14.0","2","8","trial1","naming","0","0","0","0","picture framEnter Name","0","9374","1","White_Screen.jpg","10","146","CertificateFramed.jpg","10"
"091219","12:35:16","24","24","5.0.14.0","2","9","trial1","naming","0","0","0","0","batteryEnter Name","0","10000","1","White_Screen.jpg","9","30","AmpMeter.jpg","9"
"091219","12:35:16","24","24","5.0.14.0","2","10","trial1","naming","0","0","0","0","statue of MEnter Name","0","10000","1","White_Screen.jpg","9","167","Statue_VirginMary.jpg","9"
"091219","12:35:16","24","24","5.0.14.0","2","11","trial1","naming","0","0","0","0","gorillaEnter Name","0","8502","1","White_Screen.jpg","9","90","Gorilla.jpg","9"
"091219","12:35:16","24","24","5.0.14.0","2","12","trial1","naming","0","0","0","0","bibleEnter Name","0","3965","1","White_Screen.jpg","12","129","Bible.jpg","12"
"091219","12:35:16","24","24","5.0.14.0","2","13","trial1","naming","0","0","0","0","barbecue grEnter Name","0","6873","1","White_Screen.jpg","9","151","Grill_Gas.jpg","9"
"091219","12:35:16","24","24","5.0.14.0","2","14","trial1","naming","0","0","0","0","trunkEnter Name","0","4770","1","White_Screen.jpg","11","54","Trunk.jpg","11"
"091219","12:35:16","24","24","5.0.14.0","2","15","trial1","naming","0","0","0","0","lighterEnter Name","0","4451","1","White_Screen.jpg","11","114","Lighter_Yellow.jpg","11"
"091219","12:35:16","24","24","5.0.14.0","2","16","trial1","naming","0","0","0","0","dieEnter Name","0","3241","1","White_Screen.jpg","12","60","Dice.jpg","12"
"091219","12:35:16","24","24","5.0.14.0","2","17","trial1","naming","0","0","0","0","napkinEnter Name","0","4603","1","White_Screen.jpg","11","68","Napkin_Single.jpg","11"
"091219","12:35:16","24","24","5.0.14.0","2","18","trial1","naming","0","0","0","0","rubber toyEnter Name","0","7335","1","White_Screen.jpg","10","174","Toy_Chameleon.jpg","10"
"091219","12:35:16","24","24","5.0.14.0","2","19","trial1","naming","0","0","0","0","cymbalsEnter Name","0","6155","1","White_Screen.jpg","9","164","Drum_Cymbal.jpg","9"
"091219","12:35:16","24","24","5.0.14.0","2","20","trial1","naming","0","0","0","0","puppet theatEnter Name","0","8252","1","White_Screen.jpg","11","189","Booth_Carnival.jpg","11"
"091219","12:35:16","24","24","5.0.14.0","2","21","trial1","naming","0","0","0","0","rockEnter Name","0","8308","1","White_Screen.jpg","11","10","Soap.jpg","11"
"091219","12:35:16","24","24","5.0.14.0","2","22","trial1","naming","0","0","0","0","shipEnter Name","0","3992","1","White_Screen.jpg","9","121","Ship_Cruise.jpg","9"
"091219","12:35:16","24","24","5.0.14.0","2","23","trial1","naming","0","0","0","0","frameEnter Name","0","5039","1","White_Screen.jpg","12","166","PictureFrame.jpg","12"
"091219","12:35:16","24","24","5.0.14.0","2","24","trial1","naming","0","0","0","0","benchEnter Name","0","4783","1","White_Screen.jpg","11","150","Bench_Concrete.jpg","11"
"091219","12:35:16","24","24","5.0.14.0","2","25","trial1","naming","0","0","0","0","burnerEnter Name","0","4277","1","White_Screen.jpg","11","85","GasBurner.jpg","11"
"091219","12:35:16","24","24","5.0.14.0","2","26","trial1","naming","0","0","0","0","spaghettiEnter Name","0","5328","1","White_Screen.jpg","11","99","Pasta_Spaghetti.jpg","11"
"091219","12:35:16","24","24","5.0.14.0","2","27","trial1","naming","0","0","0","0","pincushionEnter Name","0","5941","1","White_Screen.jpg","9","160","SewingPin_Cushion.jpg","9"
"091219","12:35:16","24","24","5.0.14.0","2","28","trial1","naming","0","0","0","0","quiverEnter Name","0","5192","1","White_Screen.jpg","12","34","Archery_Arrows.jpg","12"
"091219","12:35:16","24","24","5.0.14.0","2","29","trial1","naming","0","0","0","0","hibiscusEnter Name","0","6213","1","White_Screen.jpg","9","52","Flower_Hibiscus.jpg","9"
"091219","12:35:16","24","24","5.0.14.0","2","30","trial1","naming","0","0","0","0","faucetEnter Name","0","5909","1","White_Screen.jpg","11","102","Tap.jpg","11"
"091219","12:35:16","24","24","5.0.14.0","2","31","trial1","naming","0","0","0","0","blueberriesEnter Name","0","7105","1","White_Screen.jpg","11","140","Blueberry.jpg","11"
"091219","12:35:16","24","24","5.0.14.0","2","32","trial1","naming","0","0","0","0","chocolateEnter Name","0","5214","1","White_Screen.jpg","12","155","ChocolateBar_Unwrapped.jpg","12"
"091219","12:35:16","24","24","5.0.14.0","2","33","trial1","naming","0","0","0","0","musicEnter Name","0","4338","1","White_Screen.jpg","9","44","MusicSheet.jpg","9"
"091219","12:35:16","24","24","5.0.14.0","2","34","trial1","naming","0","0","0","0","trunkEnter Name","0","5365","1","White_Screen.jpg","13","83","Chest.jpg","13"
"091219","12:35:16","24","24","5.0.14.0","2","35","trial1","naming","0","0","0","0","chipEnter Name","0","4555","1","White_Screen.jpg","11","199","TortillaChip.jpg","11"
"091219","12:35:16","24","24","5.0.14.0","2","36","trial1","naming","0","0","0","0","staplerEnter Name","0","4747","1","White_Screen.jpg","12","89","Stapler_Gun.jpg","12"
"091219","12:35:16","24","24","5.0.14.0","2","37","trial1","naming","0","0","0","0","heaterEnter Name","0","5989","1","White_Screen.jpg","9","187","PatioHeater.jpg","9"
"091219","12:35:16","24","24","5.0.14.0","2","38","trial1","naming","0","0","0","0","slide ruleEnter Name","0","6043","1","White_Screen.jpg","13","198","RAMchip.jpg","13"
"091219","12:35:16","24","24","5.0.14.0","2","39","trial1","naming","0","0","0","0","owlEnter Name","0","3105","1","White_Screen.jpg","9","77","Owl.jpg","9"
"091219","12:35:16","24","24","5.0.14.0","2","40","trial1","naming","0","0","0","0","ironing boarEnter Name","0","5954","1","White_Screen.jpg","11","57","IroningBoard.jpg","11"
"091219","12:35:16","24","24","5.0.14.0","2","41","trial1","naming","0","0","0","0","tablesEnter Name","0","4091","1","White_Screen.jpg","12","84","Table_Set.jpg","12"
"091219","12:35:16","24","24","5.0.14.0","2","42","trial1","naming","0","0","0","0","pinEnter Name","0","3862","1","White_Screen.jpg","12","169","SewingPin_Single.jpg","12"
"091219","12:35:16","24","24","5.0.14.0","2","43","trial1","naming","0","0","0","0","cheese sliceEnter Name","0","6035","1","White_Screen.jpg","9","47","CheeseSlicer.jpg","9"
"091219","12:35:16","24","24","5.0.14.0","2","44","trial1","naming","0","0","0","0","threadEnter Name","0","4599","1","White_Screen.jpg","9","116","Spool_Thread.jpg","9"
"091219","12:35:16","24","24","5.0.14.0","2","45","trial1","naming","0","0","0","0","jellybeansEnter Name","0","6152","1","White_Screen.jpg","8","15","Jar_JellyBeans.jpg","8"
"091219","12:35:16","24","24","5.0.14.0","2","46","trial1","naming","0","0","0","0","pliersEnter Name","0","5249","1","White_Screen.jpg","9","69","WireStripper.jpg","9"
"091219","12:35:16","24","24","5.0.14.0","2","47","trial1","naming","0","0","0","0","cable hointEnter Name","0","6984","1","White_Screen.jpg","9","26","CableConnecter.jpg","9"
"091219","12:35:16","24","24","5.0.14.0","2","48","trial1","naming","0","0","0","0","bagEnter Name","0","3921","1","White_Screen.jpg","9","144","Bag_Hand.jpg","9"
"091219","12:35:16","24","24","5.0.14.0","2","49","trial1","naming","0","0","0","0","tape meauurEnter Name","0","8356","1","White_Screen.jpg","11","128","MeasuringTape.jpg","11"
"091219","12:35:16","24","24","5.0.14.0","2","50","trial1","naming","0","0","0","0","laundry bastEnter Name","0","6935","1","White_Screen.jpg","10","157","LaundryHamper.jpg","10"
"091219","12:35:16","24","24","5.0.14.0","2","52","trial1","naming","0","0","0","0","lighthouseEnter Name","0","5171","1","White_Screen.jpg","10","183","LightHouse.jpg","10"
"091219","12:35:16","24","24","5.0.14.0","2","53","trial1","naming","0","0","0","0","organEnter Name","0","6072","1","White_Screen.jpg","11","13","Organ.jpg","11"
"091219","12:35:16","24","24","5.0.14.0","2","54","trial1","naming","0","0","0","0","gas pumpEnter Name","0","5899","1","White_Screen.jpg","11","31","Toy_GasPump.jpg","11"
"091219","12:35:16","24","24","5.0.14.0","2","55","trial1","naming","0","0","0","0","batteryEnter Name","0","7820","1","White_Screen.jpg","9","25","Trash_Medical.jpg","9"
"091219","12:35:16","24","24","5.0.14.0","2","56","trial1","naming","0","0","0","0","stthoscopeEnter Name","0","8685","1","White_Screen.jpg","10","105","Stethoscope.jpg","10"
"091219","12:35:16","24","24","5.0.14.0","2","57","trial1","naming","0","0","0","0","avocdoEnter Name","0","5807","1","White_Screen.jpg","9","73","Avocado.jpg","9"
"091219","12:35:16","24","24","5.0.14.0","2","58","trial1","naming","0","0","0","0","yield signEnter Name","0","6207","1","White_Screen.jpg","11","35","Sign_SlipperyRoad.jpg","11"
"091219","12:35:16","24","24","5.0.14.0","2","59","trial1","naming","0","0","0","0","blocksEnter Name","0","5063","1","White_Screen.jpg","11","135","Toy_BlocksMultiShape.jpg","11"
"091219","12:35:16","24","24","5.0.14.0","2","60","trial1","naming","0","0","0","0","barometerEnter Name","0","5085","1","White_Screen.jpg","9","141","Barometer_Wood.jpg","9"
"091219","12:35:16","24","24","5.0.14.0","2","61","trial1","naming","0","0","0","0","carouselEnter Name","0","5593","1","White_Screen.jpg","9","48","Carousel copy.jpg","9"
"091219","12:35:16","24","24","5.0.14.0","2","62","trial1","naming","0","0","0","0","bullEnter Name","0","3834","1","White_Screen.jpg","11","27","Buffalo.jpg","11"
"091219","12:35:16","24","24","5.0.14.0","2","63","trial1","naming","0","0","0","0","breadEnter Name","0","4488","1","White_Screen.jpg","11","7","Bread_Loaf.jpg","11"
"091219","12:35:16","24","24","5.0.14.0","2","64","trial1","naming","0","0","0","0","pelicanEnter Name","0","7463","1","White_Screen.jpg","13","123","Bird_Pelican.jpg","13"
"091219","12:35:16","24","24","5.0.14.0","2","65","trial1","naming","0","0","0","0","camera bagEnter Name","0","6372","1","White_Screen.jpg","9","37","Bag_Camera.jpg","9"
"091219","12:35:16","24","24","5.0.14.0","2","66","trial1","naming","0","0","0","0","Enter Name","0","10000","1","White_Screen.jpg","12","179","Instrument_Guiro.jpg","12"
"091219","12:35:16","24","24","5.0.14.0","2","67","trial1","naming","0","0","0","0","radioEnter Name","0","5098","1","White_Screen.jpg","8","8","Speaker_Computer.jpg","8"
"091219","12:35:16","24","24","5.0.14.0","2","68","trial1","naming","0","0","0","0","robotEnter Name","0","4930","1","White_Screen.jpg","9","142","Toy_RobotClassic.jpg","9"
"091219","12:35:16","24","24","5.0.14.0","2","69","trial1","naming","0","0","0","0","orange'Enter Name","0","7231","1","White_Screen.jpg","11","156","Sashimi.jpg","11"
"091219","12:35:16","24","24","5.0.14.0","2","70","trial1","naming","0","0","0","0","ribbonEnter Name","0","4188","1","White_Screen.jpg","9","115","RibbonString.jpg","9"
"091219","12:35:16","24","24","5.0.14.0","2","71","trial1","naming","0","0","0","0","spray cleanrEnter Name","0","6233","1","White_Screen.jpg","10","139","Spraybottle.jpg","10"
"091219","12:35:16","24","24","5.0.14.0","2","72","trial1","naming","0","0","0","0","ping pong taEnter Name","0","9672","1","White_Screen.jpg","14","55","Table_PingPong.jpg","14"
"091219","12:35:16","24","24","5.0.14.0","2","73","trial1","naming","0","0","0","0","wigEnter Name","0","4287","1","White_Screen.jpg","11","24","MannequinHead.jpg","11"
"091219","12:35:16","24","24","5.0.14.0","2","74","trial1","naming","0","0","0","0","jacknifeEnter Name","0","9255","1","White_Screen.jpg","11","193","PocketKnife.jpg","11"
"091219","12:35:16","24","24","5.0.14.0","2","75","trial1","naming","0","0","0","0","cofee beansEnter Name","0","6286","1","White_Screen.jpg","9","124","CoffeeBeans.jpg","9"
"091219","12:35:16","24","24","5.0.14.0","2","76","trial1","naming","0","0","0","0","hanburgerEnter Name","0","5207","1","White_Screen.jpg","10","63","Cheeseburger.jpg","10"
"091219","12:35:16","24","24","5.0.14.0","2","77","trial1","naming","0","0","0","0","chess setEnter Name","0","6036","1","White_Screen.jpg","11","103","Boardgame_Chess.jpg","11"
"091219","12:35:16","24","24","5.0.14.0","2","78","trial1","naming","0","0","0","0","envelopeEnter Name","0","7850","1","White_Screen.jpg","11","12","Envelope_Letter.jpg","11"
"091219","12:35:16","24","24","5.0.14.0","2","79","trial1","naming","0","0","0","0","strainerEnter Name","0","5219","1","White_Screen.jpg","9","191","Sieve_TopView.jpg","9"
"091219","12:35:16","24","24","5.0.14.0","2","80","trial1","naming","0","0","0","0","melonEnter Name","0","4219","1","White_Screen.jpg","12","110","Honeydew_Green.jpg","12"
"091219","12:35:16","24","24","5.0.14.0","2","81","trial1","naming","0","0","0","0","syringeEnter Name","0","5286","1","White_Screen.jpg","10","130","Syringe_Blunt.jpg","10"
"091219","12:35:16","24","24","5.0.14.0","2","82","trial1","naming","0","0","0","0","enclosureEnter Name","0","7883","1","White_Screen.jpg","11","177","Balcony.jpg","11"
"091219","12:35:16","24","24","5.0.14.0","2","83","trial1","naming","0","0","0","0","tinEnter Name","0","3889","1","White_Screen.jpg","10","28","TinChristmas.jpg","10"
"091219","12:35:16","24","24","5.0.14.0","2","84","trial1","naming","0","0","0","0","test tubeEnter Name","0","6086","1","White_Screen.jpg","12","46","TestTube_Single.jpg","12"
"091219","12:35:16","24","24","5.0.14.0","2","85","trial1","naming","0","0","0","0","buttonEnter Name","0","5805","1","White_Screen.jpg","11","3","ComputerKey_Escape.jpg","11"
"091219","12:35:16","24","24","5.0.14.0","2","86","trial1","naming","0","0","0","0","shirttEnter Name","0","3846","1","White_Screen.jpg","11","76","Shirt_Tshirt.jpg","11"
"091219","12:35:16","24","24","5.0.14.0","2","87","trial1","naming","0","0","0","0","candelabraEnter Name","0","6954","1","White_Screen.jpg","9","64","Candelabra.jpg","9"
"091219","12:35:16","24","24","5.0.14.0","2","88","trial1","naming","0","0","0","0","usb cordEnter Name","0","7924","1","White_Screen.jpg","11","18","Cord_usb.jpg","11"
"091219","12:35:16","24","24","5.0.14.0","2","89","trial1","naming","0","0","0","0","webEnter Name","0","3466","1","White_Screen.jpg","12","148","SpiderWeb.jpg","12"
"091219","12:35:16","24","24","5.0.14.0","2","90","trial1","naming","0","0","0","0","clampEnter Name","0","9088","1","White_Screen.jpg","9","186","Machine_Arm.jpg","9"
"091219","12:35:16","24","24","5.0.14.0","2","91","trial1","naming","0","0","0","0","pipeEnter Name","0","3133","1","White_Screen.jpg","13","23","SmokingPipe.jpg","13"
"091219","12:35:16","24","24","5.0.14.0","2","92","trial1","naming","0","0","0","0","Enter Name","0","10000","1","White_Screen.jpg","11","181","CarSuspension.jpg","11"
"091219","12:35:16","24","24","5.0.14.0","2","93","trial1","naming","0","0","0","0","toyEnter Name","0","4019","1","White_Screen.jpg","9","75","Toy_MerryGoRound.jpg","9"
"091219","12:35:16","24","24","5.0.14.0","2","94","trial1","naming","0","0","0","0","pipeEnter Name","0","3622","1","White_Screen.jpg","9","154","Pipe.jpg","9"
"091219","12:35:16","24","24","5.0.14.0","2","95","trial1","naming","0","0","0","0","amebaEnter Name","0","7874","1","White_Screen.jpg","11","192","Heelpad.jpg","11"
"091219","12:35:16","24","24","5.0.14.0","2","96","trial1","naming","0","0","0","0","Enter Name","0","10000","1","White_Screen.jpg","11","152","Stone_Mill.jpg","11"
"091219","12:35:16","24","24","5.0.14.0","2","97","trial1","naming","0","0","0","0","jacketEnter Name","0","5578","1","White_Screen.jpg","9","98","Jacket_Suit.jpg","9"
"091219","12:35:16","24","24","5.0.14.0","2","98","trial1","naming","0","0","0","0","trayEnter Name","0","3879","1","White_Screen.jpg","11","104","Tray_Metal.jpg","11"
"091219","12:35:16","24","24","5.0.14.0","2","99","trial1","naming","0","0","0","0","propane tanEnter Name","0","6535","1","White_Screen.jpg","9","67","Cannister_Gas.jpg","9"
"091219","12:35:16","24","24","5.0.14.0","2","100","trial1","naming","0","0","0","0","dishEnter Name","0","5885","1","White_Screen.jpg","9","112","Bowl_Chinese.jpg","9"
"091219","12:35:16","24","24","5.0.14.0","2","101","trial1","naming","0","0","0","0","bowling pinEnter Name","0","6031","1","White_Screen.jpg","10","178","BowlingPin.jpg","10"
"091219","12:35:16","24","24","5.0.14.0","2","103","trial1","naming","0","0","0","0","maskEnter Name","0","3490","1","White_Screen.jpg","10","190","Mask_Ski.jpg","10"
"091219","12:35:16","24","24","5.0.14.0","2","104","trial1","naming","0","0","0","0","routerEnter Name","0","7561","1","White_Screen.jpg","12","126","NintendoWii.jpg","12"
"091219","12:35:16","24","24","5.0.14.0","2","105","trial1","naming","0","0","0","0","watering caEnter Name","0","8344","1","White_Screen.jpg","11","100","WateringCan_PlasticDarkGreen.jpg","11"
"091219","12:35:16","24","24","5.0.14.0","2","106","trial1","naming","0","0","0","0","drinkEnter Name","0","4926","1","White_Screen.jpg","11","93","Drink_Green.jpg","11"
"091219","12:35:16","24","24","5.0.14.0","2","107","trial1","naming","0","0","0","0","pill bottleEnter Name","0","5710","1","White_Screen.jpg","11","21","PillBottle_Prescription.jpg","11"
"091219","12:35:16","24","24","5.0.14.0","2","108","trial1","naming","0","0","0","0","shellEnter Name","0","4731","1","White_Screen.jpg","11","32","Seashell_BayScallop.jpg","11"
"091219","12:35:16","24","24","5.0.14.0","2","109","trial1","naming","0","0","0","0","dental chairEnter Name","0","7761","1","White_Screen.jpg","9","182","Chair_Airplane.jpg","9"
"091219","12:35:16","24","24","5.0.14.0","2","110","trial1","naming","0","0","0","0","sandwichEnter Name","0","7540","1","White_Screen.jpg","9","6","Sandwich_Egg.jpg","9"
"091219","12:35:16","24","24","5.0.14.0","2","111","trial1","naming","0","0","0","0","pretzelsEnter Name","0","4954","1","White_Screen.jpg","11","82","Pretzel_Sticks.jpg","11"
"091219","12:35:16","24","24","5.0.14.0","2","112","trial1","naming","0","0","0","0","cardina;Enter Name","0","5424","1","White_Screen.jpg","11","53","Bird_Cardinal.jpg","11"
"091219","12:35:16","24","24","5.0.14.0","2","113","trial1","naming","0","0","0","0","gym bagEnter Name","0","5825","1","White_Screen.jpg","11","80","Bag_Diaper.jpg","11"
"091219","12:35:16","24","24","5.0.14.0","2","114","trial1","naming","0","0","0","0","doughEnter Name","0","4284","1","White_Screen.jpg","11","39","StickyTack.jpg","11"
"091219","12:35:16","24","24","5.0.14.0","2","115","trial1","naming","0","0","0","0","cordEnter Name","0","6708","1","White_Screen.jpg","10","197","Wire_ElectricalSingle.jpg","10"
"091219","12:35:16","24","24","5.0.14.0","2","116","trial1","naming","0","0","0","0","maskEnter Name","0","4144","1","White_Screen.jpg","9","158","Mask_VenetianCat.jpg","9"
"091219","12:35:16","24","24","5.0.14.0","2","117","trial1","naming","0","0","0","0","beltEnter Name","0","3338","1","White_Screen.jpg","11","66","Belt.jpg","11"
"091219","12:35:16","24","24","5.0.14.0","2","118","trial1","naming","0","0","0","0","backpackEnter Name","0","6314","1","White_Screen.jpg","11","14","Backpack_Travel.jpg","11"
"091219","12:35:16","24","24","5.0.14.0","2","119","trial1","naming","0","0","0","0","catEnter Name","0","3668","1","White_Screen.jpg","9","149","Cat.jpg","9"
"091219","12:35:16","24","24","5.0.14.0","2","120","trial1","naming","0","0","0","0","dryerEnter Name","0","4352","1","White_Screen.jpg","9","194","HairDryer.jpg","9"
"091219","12:35:16","24","24","5.0.14.0","2","121","trial1","naming","0","0","0","0","pumpEnter Name","0","5026","1","White_Screen.jpg","9","29","AirPump.jpg","9"
"091219","12:35:16","24","24","5.0.14.0","2","122","trial1","naming","0","0","0","0","clayEnter Name","0","5347","1","White_Screen.jpg","11","184","Pottery.jpg","11"
"091219","12:35:16","24","24","5.0.14.0","2","123","trial1","naming","0","0","0","0","pecanEnter Name","0","5091","1","White_Screen.jpg","9","133","Nuts_Pecan.jpg","9"
"091219","12:35:16","24","24","5.0.14.0","2","124","trial1","naming","0","0","0","0","rolling pinEnter Name","0","6374","1","White_Screen.jpg","12","125","RollingPin.jpg","12"
"091219","12:35:16","24","24","5.0.14.0","2","125","trial1","naming","0","0","0","0","escalatorEnter Name","0","5578","1","White_Screen.jpg","12","131","Escalator.jpg","12"
"091219","12:35:16","24","24","5.0.14.0","2","126","trial1","naming","0","0","0","0","trumpetEnter Name","0","4740","1","White_Screen.jpg","8","33","Trumpet.jpg","8"
"091219","12:35:16","24","24","5.0.14.0","2","127","trial1","naming","0","0","0","0","travel bagEnter Name","0","9243","1","White_Screen.jpg","11","118","Case_Pencil.jpg","11"
"091219","12:35:16","24","24","5.0.14.0","2","128","trial1","naming","0","0","0","0","water dropEnter Name","0","6643","1","White_Screen.jpg","11","143","Teardrop.jpg","11"
"091219","12:35:16","24","24","5.0.14.0","2","129","trial1","naming","0","0","0","0","windmillEnter Name","0","5491","1","White_Screen.jpg","11","147","Windmill_Building.jpg","11"
"091219","12:35:16","24","24","5.0.14.0","2","130","trial1","naming","0","0","0","0","dressEnter Name","0","6483","1","White_Screen.jpg","11","61","Dress_Cocktail.jpg","11"
"091219","12:35:16","24","24","5.0.14.0","2","131","trial1","naming","0","0","0","0","puzzleEnter Name","0","6562","1","White_Screen.jpg","10","78","Puzzle_Tree.jpg","10"
"091219","12:35:16","24","24","5.0.14.0","2","132","trial1","naming","0","0","0","0","Enter Name","0","10000","1","White_Screen.jpg","11","41","BunsenBurner.jpg","11"
"091219","12:35:16","24","24","5.0.14.0","2","133","trial1","naming","0","0","0","0","baby shoesEnter Name","0","6649","1","White_Screen.jpg","9","81","Booties_Blue.jpg","9"
"091219","12:35:16","24","24","5.0.14.0","2","134","trial1","naming","0","0","0","0","ironEnter Name","0","3446","1","White_Screen.jpg","9","117","Iron_Antique.jpg","9"
"091219","12:35:16","24","24","5.0.14.0","2","135","trial1","naming","0","0","0","0","lionEnter Name","0","4045","1","White_Screen.jpg","11","122","Toy_Lion.jpg","11"
"091219","12:35:16","24","24","5.0.14.0","2","136","trial1","naming","0","0","0","0","lacrosse stiEnter Name","0","7588","1","White_Screen.jpg","9","180","Lacrosse_Stick.jpg","9"
"091219","12:35:16","24","24","5.0.14.0","2","137","trial1","naming","0","0","0","0","kangarooEnter Name","0","5828","1","White_Screen.jpg","12","196","Kangaroo_WithJoey.jpg","12"
"091219","12:35:16","24","24","5.0.14.0","2","138","trial1","naming","0","0","0","0","hatEnter Name","0","3856","1","White_Screen.jpg","10","96","Hat_Police.jpg","10"
"091219","12:35:16","24","24","5.0.14.0","2","139","trial1","naming","0","0","0","0","screenEnter Name","0","4908","1","White_Screen.jpg","13","11","Partition.jpg","13"
"091219","12:35:16","24","24","5.0.14.0","2","140","trial1","naming","0","0","0","0","flamingoEnter Name","0","4771","1","White_Screen.jpg","11","51","Flamingo_Cartoon.jpg","11"
"091219","12:35:16","24","24","5.0.14.0","2","141","trial1","naming","0","0","0","0","toyEnter Name","0","6981","1","White_Screen.jpg","11","120","Toy_FigurineSwing.jpg","11"
"091219","12:35:16","24","24","5.0.14.0","2","142","trial1","naming","0","0","0","0","buttonEnter Name","0","6238","1","White_Screen.jpg","9","65","PowerDoorPushButton.jpg","9"
"091219","12:35:16","24","24","5.0.14.0","2","143","trial1","naming","0","0","0","0","Enter Name","0","10000","1","White_Screen.jpg","10","168","Jack.jpg","10"
"091219","12:35:16","24","24","5.0.14.0","2","144","trial1","naming","0","0","0","0","bowEnter Name","0","4443","1","White_Screen.jpg","10","22","Crossbow.jpg","10"
"091219","12:35:16","24","24","5.0.14.0","2","145","trial1","naming","0","0","0","0","sofaEnter Name","0","3695","1","White_Screen.jpg","12","176","SofaAntique.jpg","12"
"091219","12:35:16","24","24","5.0.14.0","2","146","trial1","naming","0","0","0","0","heartEnter Name","0","4034","1","White_Screen.jpg","10","38","Candy_Heart.jpg","10"
"091219","12:35:16","24","24","5.0.14.0","2","147","trial1","naming","0","0","0","0","doorknobEnter Name","0","5549","1","White_Screen.jpg","9","153","DoorKnob.jpg","9"
"091219","12:35:16","24","24","5.0.14.0","2","148","trial1","naming","0","0","0","0","vacuumEnter Name","0","4804","1","White_Screen.jpg","10","137","VacuumHandheld.jpg","10"
"091219","12:35:16","24","24","5.0.14.0","2","149","trial1","naming","0","0","0","0","satellite dusEnter Name","0","9342","1","White_Screen.jpg","11","101","SatelliteDish.jpg","11"
"091219","12:35:16","24","24","5.0.14.0","2","150","trial1","naming","0","0","0","0","milkEnter Name","0","4753","1","White_Screen.jpg","11","36","Bottle_Bleach.jpg","11"
"091219","12:35:16","24","24","5.0.14.0","2","151","trial1","naming","0","0","0","0","recycle binEnter Name","0","7050","1","White_Screen.jpg","12","1","BinRecycling.jpg","12"
"091219","12:35:16","24","24","5.0.14.0","2","152","trial1","naming","0","0","0","0","totemEnter Name","0","8298","1","White_Screen.jpg","11","9","Statue_SouthAmerican.jpg","11"
"091219","12:35:16","24","24","5.0.14.0","2","154","trial1","naming","0","0","0","0","olive oilEnter Name","0","6253","1","White_Screen.jpg","9","79","Bottle_Liquor.jpg","9"
"091219","12:35:16","24","24","5.0.14.0","2","155","trial1","naming","0","0","0","0","elepantEnter Name","0","4309","1","White_Screen.jpg","9","162","Elephant.jpg","9"
"091219","12:35:16","24","24","5.0.14.0","2","156","trial1","naming","0","0","0","0","bellEnter Name","0","2891","1","White_Screen.jpg","12","95","ServiceBell.jpg","12"
"091219","12:35:16","24","24","5.0.14.0","2","157","trial1","naming","0","0","0","0","tire wheelEnter Name","0","5995","1","White_Screen.jpg","10","136","TireRims.jpg","10"
"091219","12:35:16","24","24","5.0.14.0","2","158","trial1","naming","0","0","0","0","alarmEnter Name","0","5844","1","White_Screen.jpg","9","195","SmokeDetector.jpg","9"
"091219","12:35:16","24","24","5.0.14.0","2","159","trial1","naming","0","0","0","0","lanternEnter Name","0","4377","1","White_Screen.jpg","12","70","Lantern_TeaBox.jpg","12"
"091219","12:35:16","24","24","5.0.14.0","2","160","trial1","naming","0","0","0","0","harmonicaEnter Name","0","8809","1","White_Screen.jpg","11","87","ThreeHolePunch.jpg","11"
"091219","12:35:16","24","24","5.0.14.0","2","161","trial1","naming","0","0","0","0","wooden soliEnter Name","0","7302","1","White_Screen.jpg","9","200","Nutcracker.jpg","9"
"091219","12:35:16","24","24","5.0.14.0","2","162","trial1","naming","0","0","0","0","parking signEnter Name","0","6611","1","White_Screen.jpg","9","45","Sign_Parking.jpg","9"
"091219","12:35:16","24","24","5.0.14.0","2","163","trial1","naming","0","0","0","0","pasta shellsEnter Name","0","7926","1","White_Screen.jpg","12","50","Pasta_Shell.jpg","12"
"091219","12:35:16","24","24","5.0.14.0","2","164","trial1","naming","0","0","0","0","lint brushEnter Name","0","10000","1","White_Screen.jpg","11","165","Brush_Light.jpg","11"
"091219","12:35:16","24","24","5.0.14.0","2","165","trial1","naming","0","0","0","0","Enter Name","0","227","1","White_Screen.jpg","9","88","ElasticBand.jpg","9"
"091219","12:35:16","24","24","5.0.14.0","2","166","trial1","naming","0","0","0","0","piano keyboEnter Name","0","8794","1","White_Screen.jpg","11","56","Piano_Keyboard.jpg","11"
"091219","12:35:16","24","24","5.0.14.0","2","167","trial1","naming","0","0","0","0","Enter Name","0","10000","1","White_Screen.jpg","10","108","TrapAnimal.jpg","10"
"091219","12:35:16","24","24","5.0.14.0","2","168","trial1","naming","0","0","0","0","castleEnter Name","0","5704","1","White_Screen.jpg","9","5","Fortress.jpg","9"
"091219","12:35:16","24","24","5.0.14.0","2","169","trial1","naming","0","0","0","0","toy trainEnter Name","0","7592","1","White_Screen.jpg","11","2","Toy_Train.jpg","11"
"091219","12:35:16","24","24","5.0.14.0","2","170","trial1","naming","0","0","0","0","right angleEnter Name","0","7361","1","White_Screen.jpg","11","185","SetSquare.jpg","11"
"091219","12:35:16","24","24","5.0.14.0","2","171","trial1","naming","0","0","0","0","star of davidEnter Name","0","8766","1","White_Screen.jpg","10","20","Star.jpg","10"
"091219","12:35:16","24","24","5.0.14.0","2","172","trial1","naming","0","0","0","0","screwdriverEnter Name","0","8359","1","White_Screen.jpg","9","92","Drill.jpg","9"
"091219","12:35:16","24","24","5.0.14.0","2","173","trial1","naming","0","0","0","0","caseEnter Name","0","5550","1","White_Screen.jpg","12","72","Briefcase_Open.jpg","12"
"091219","12:35:16","24","24","5.0.14.0","2","174","trial1","naming","0","0","0","0","gaugeEnter Name","0","9627","1","White_Screen.jpg","9","71","BicycleOdometer.jpg","9"
"091219","12:35:16","24","24","5.0.14.0","2","175","trial1","naming","0","0","0","0","fire oiEnter Name","0","10000","1","White_Screen.jpg","11","43","Branches_Campfire.jpg","11"
"091219","12:35:16","24","24","5.0.14.0","2","176","trial1","naming","0","0","0","0","tEnter Name","0","1418","1","White_Screen.jpg","11","62","Flute_Tin.jpg","11"
"091219","12:35:16","24","24","5.0.14.0","2","177","trial1","naming","0","0","0","0","traffic cEnter Name","0","10000","1","White_Screen.jpg","11","109","PylonTraffic.jpg","11"
"091219","12:35:16","24","24","5.0.14.0","2","178","trial1","naming","0","0","0","0","ohoneycomEnter Name","0","9455","1","White_Screen.jpg","9","97","Honeycomb.jpg","9"
"091219","12:35:16","24","24","5.0.14.0","2","179","trial1","naming","0","0","0","0","dumplingEnter Name","0","8851","1","White_Screen.jpg","11","16","Wontons.jpg","11"
"091219","12:35:16","24","24","5.0.14.0","2","180","trial1","naming","0","0","0","0","pinEnter Name","0","4447","1","White_Screen.jpg","10","58","Thumbtack.jpg","10"
"091219","12:35:16","24","24","5.0.14.0","2","181","trial1","naming","0","0","0","0","ladderEnter Name","0","4896","1","White_Screen.jpg","9","86","Ladder.jpg","9"
"091219","12:35:16","24","24","5.0.14.0","2","182","trial1","naming","0","0","0","0","paper towelEnter Name","0","6755","1","White_Screen.jpg","9","111","PaperTowel_Kitchen.jpg","9"
"091219","12:35:16","24","24","5.0.14.0","2","183","trial1","naming","0","0","0","0","bananaEnter Name","0","4391","1","White_Screen.jpg","11","4","Banana.jpg","11"
"091219","12:35:16","24","24","5.0.14.0","2","184","trial1","naming","0","0","0","0","Enter Name","0","10000","1","White_Screen.jpg","11","42","ChalkLineTool.jpg","11"
"091219","12:35:16","24","24","5.0.14.0","2","185","trial1","naming","0","0","0","0","squirrelEnter Name","0","5136","1","White_Screen.jpg","10","40","Chipmunk.jpg","10"
"091219","12:35:16","24","24","5.0.14.0","2","186","trial1","naming","0","0","0","0","Enter Name","0","10000","1","White_Screen.jpg","11","172","IceCrusher.jpg","11"
"091219","12:35:16","24","24","5.0.14.0","2","187","trial1","naming","0","0","0","0","pitcherEnter Name","0","5113","1","White_Screen.jpg","9","171","Jug_Milk.jpg","9"
"091219","12:35:16","24","24","5.0.14.0","2","188","trial1","naming","0","0","0","0","boxEnter Name","0","2931","1","White_Screen.jpg","11","74","Box_WoodenClosed.jpg","11"
"091219","12:35:16","24","24","5.0.14.0","2","189","trial1","naming","0","0","0","0","shakerEnter Name","0","4433","1","White_Screen.jpg","9","134","DrinkShaker.jpg","9"
"091219","12:35:16","24","24","5.0.14.0","2","190","trial1","naming","0","0","0","0","Enter Name","0","10000","1","White_Screen.jpg","9","17","Speaker_OnStand.jpg","9"
"091219","12:35:16","24","24","5.0.14.0","2","191","trial1","naming","0","0","0","0","masherEnter Name","0","4083","1","White_Screen.jpg","9","175","PotatoMasher_Zigzag.jpg","9"
"091219","12:35:16","24","24","5.0.14.0","2","192","trial1","naming","0","0","0","0","glue gunEnter Name","0","5857","1","White_Screen.jpg","9","91","Gun_Glue.jpg","9"
"091219","12:35:16","24","24","5.0.14.0","2","193","trial1","naming","0","0","0","0","spatulaEnter Name","0","5426","1","White_Screen.jpg","12","119","Spatula_1.jpg","12"
"091219","12:35:16","24","24","5.0.14.0","2","194","trial1","naming","0","0","0","0","deskEnter Name","0","4799","1","White_Screen.jpg","11","170","Desk_Office.jpg","11"
"091219","12:35:16","24","24","5.0.14.0","2","195","trial1","naming","0","0","0","0","bagEnter Name","0","5080","1","White_Screen.jpg","9","127","Bag_Satchel.jpg","9"
"091219","12:35:16","24","24","5.0.14.0","2","196","trial1","naming","0","0","0","0","utensilsEnter Name","0","7537","1","White_Screen.jpg","9","107","KitchenTools.jpg","9"
"091219","12:35:16","24","24","5.0.14.0","2","197","trial1","naming","0","0","0","0","corn Enter Name","0","4332","1","White_Screen.jpg","10","161","Corn.jpg","10"
"091219","12:35:16","24","24","5.0.14.0","2","198","trial1","naming","0","0","0","0","helmetEnter Name","0","4650","1","White_Screen.jpg","9","132","Helmet_Soldier.jpg","9"
"091219","12:35:16","24","24","5.0.14.0","2","199","trial1","naming","0","0","0","0","Enter Name","0","10000","1","White_Screen.jpg","9","19","Bindings_Snowboard.jpg","9"
"091219","12:35:16","24","24","5.0.14.0","2","200","trial1","naming","0","0","0","0","boarEnter Name","0","5021","1","White_Screen.jpg","9","94","Boar.jpg","9"
"091219","12:35:16","24","24","5.0.14.0","2","201","trial1","naming","0","0","0","0","lampEnter Name","0","3365","1","White_Screen.jpg","11","188","Lamp_Table.jpg","11"
"091219","12:35:16","24","24","5.0.14.0","2","202","trial1","naming","0","0","0","0","turtleEnter Name","0","4924","1","White_Screen.jpg","10","106","Toy_Turtle.jpg","10"
"091219","12:35:16","24","24","5.0.14.0","2","203","trial1","naming","0","0","0","0","carEnter Name","0","3978","1","White_Screen.jpg","12","163","Car_Ferrari.jpg","12"
"091219","12:35:16","24","24","5.0.14.0","3","1","demographics_block","gender","0","0","0","0","female","1","20908","0","0","0","0","0","0"
"091219","12:35:16","24","24","5.0.14.0","3","1","demographics_block","age","0","0","0","0","73","1","20908","0","0","0","0","0","0"
"091219","12:35:16","24","24","5.0.14.0","3","1","demographics_block","education","0","0","0","0","16","1","20908","0","0","0","0","0","0"
"091219","12:35:16","24","24","5.0.14.0","3","2","demographics_block","left_right_handed","0","0","0","0","Right","1","10596","0","0","0","0","0","0"
"091219","12:35:16","24","24","5.0.14.0","3","2","demographics_block","raceoption1","0","0","0","0","0","1","10596","0","0","0","0","0","0"
"091219","12:35:16","24","24","5.0.14.0","3","2","demographics_block","raceoption2","0","0","0","0","","1","10596","0","0","0","0","0","0"
"091219","12:35:16","24","24","5.0.14.0","3","2","demographics_block","raceoption3","0","0","0","0","","1","10596","0","0","0","0","0","0"
"091219","12:35:16","24","24","5.0.14.0","3","2","demographics_block","raceoption4","0","0","0","0","","1","10596","0","0","0","0","0","0"
"091219","12:35:16","24","24","5.0.14.0","3","2","demographics_block","raceoption5","0","0","0","0","","1","10596","0","0","0","0","0","0"
"091219","12:35:16","24","24","5.0.14.0","3","2","demographics_block","raceoption6","0","0","0","0","","1","10596","0","0","0","0","0","0"
"091219","12:35:16","24","24","5.0.14.0","3","2","demographics_block","raceoption7","0","0","0","0","","1","10596","0","0","0","0","0","0"
"091219","12:35:16","24","24","5.0.14.0","3","2","demographics_block","raceoption8","0","0","0","0","","1","10596","0","0","0","0","0","0"
"091219","12:35:16","24","24","5.0.14.0","3","2","demographics_block","raceoption9","0","0","0","0","","1","10596","0","0","0","0","0","0"
"091219","12:35:16","24","24","5.0.14.0","3","2","demographics_block","raceother","0","0","0","0","","1","10596","0","0","0","0","0","0"
"091219","12:35:16","24","24","5.0.14.0","3","2","demographics_block","raceother","0","0","0","0","","1","10596","0","0","0","0","0","0"
"091219","12:35:16","24","24","5.0.14.0","3","2","demographics_block","english_language","0","0","0","0","Yes","1","10596","0","0","0","0","0","0"
"091219","12:35:16","24","24","5.0.14.0","3","2","demographics_block","english_languageother","0","0","0","0","","1","10596","0","0","0","0","0","0"
"091219","12:35:16","24","24","5.0.14.0","3","3","demographics_block","eyesight","0","0","0","0","Yes","1","7962","0","0","0","0","0","0"
"091219","12:35:16","24","24","5.0.14.0","3","3","demographics_block","colorblind","0","0","0","0","No","1","7962","0","0","0","0","0","0"
"091219","12:35:16","24","24","5.0.14.0","4","1","worker_id_block","worker_id_textbox","0","0","0","0","A2O40SAISDTPT","1","58277","0","0","0","0","0","0"
"date","time","group","subject","build","blocknum","trialnum","blockcode","trialcode","pretrialpause","posttrialpause","trialduration","trialtimeout","response","correct","latency","stimulusnumber1","stimulusitem1","stimulusonset1","stimulusnumber2","stimulusitem2","stimulusonset2"
"091219","12:54:31","26","26","5.0.14.0","2","1","trial1","naming","0","0","0","0","pecan","0","3253","1","White_Screen.jpg","25","133","Nuts_Pecan.jpg","25"
"091219","12:54:31","26","26","5.0.14.0","2","2","trial1","naming","0","0","0","0","bag","0","1983","1","White_Screen.jpg","9","144","Bag_Hand.jpg","9"
"091219","12:54:31","26","26","5.0.14.0","2","3","trial1","naming","0","0","0","0","lighthouse","0","3187","1","White_Screen.jpg","9","183","LightHouse.jpg","9"
"091219","12:54:31","26","26","5.0.14.0","2","4","trial1","naming","0","0","0","0","candellabra","0","6708","1","White_Screen.jpg","9","64","Candelabra.jpg","9"
"091219","12:54:31","26","26","5.0.14.0","2","5","trial1","naming","0","0","0","0","granola bar","0","4104","1","White_Screen.jpg","9","145","GranolaBar.jpg","9"
"091219","12:54:31","26","26","5.0.14.0","2","6","trial1","naming","0","0","0","0","wire strippers","0","4799","1","White_Screen.jpg","6","69","WireStripper.jpg","6"
"091219","12:54:31","26","26","5.0.14.0","2","7","trial1","naming","0","0","0","0","escape key","0","4146","1","White_Screen.jpg","8","3","ComputerKey_Escape.jpg","8"
"091219","12:54:31","26","26","5.0.14.0","2","8","trial1","naming","0","0","0","0","silver platter","0","6226","1","White_Screen.jpg","5","104","Tray_Metal.jpg","5"
"091219","12:54:31","26","26","5.0.14.0","2","9","trial1","naming","0","0","0","0","end tables","0","4497","1","White_Screen.jpg","9","84","Table_Set.jpg","9"
"091219","12:54:31","26","26","5.0.14.0","2","10","trial1","naming","0","0","0","0","avacado","0","3006","1","White_Screen.jpg","8","73","Avocado.jpg","8"
"091219","12:54:31","26","26","5.0.14.0","2","11","trial1","naming","0","0","0","0","whip","0","2187","1","White_Screen.jpg","8","138","Whip.jpg","8"
"091219","12:54:31","26","26","5.0.14.0","2","12","trial1","naming","0","0","0","0","wii","0","2800","1","White_Screen.jpg","4","126","NintendoWii.jpg","4"
"091219","12:54:31","26","26","5.0.14.0","2","13","trial1","naming","0","0","0","0","lacrosse stick","0","3730","1","White_Screen.jpg","10","180","Lacrosse_Stick.jpg","10"
"091219","12:54:31","26","26","5.0.14.0","2","14","trial1","naming","0","0","0","0","helmet","0","3197","1","White_Screen.jpg","9","132","Helmet_Soldier.jpg","9"
"091219","12:54:31","26","26","5.0.14.0","2","15","trial1","naming","0","0","0","0","painting","0","8339","1","White_Screen.jpg","5","78","Puzzle_Tree.jpg","5"
"091219","12:54:31","26","26","5.0.14.0","2","16","trial1","naming","0","0","0","0","mask","0","1587","1","White_Screen.jpg","9","158","Mask_VenetianCat.jpg","9"
"091219","12:54:31","26","26","5.0.14.0","2","17","trial1","naming","0","0","0","0","castle","0","2024","1","White_Screen.jpg","8","5","Fortress.jpg","8"
"091219","12:54:31","26","26","5.0.14.0","2","18","trial1","naming","0","0","0","0","display","0","9122","1","White_Screen.jpg","9","71","BicycleOdometer.jpg","9"
"091219","12:54:31","26","26","5.0.14.0","2","19","trial1","naming","0","0","0","0","tack","0","1684","1","White_Screen.jpg","4","58","Thumbtack.jpg","4"
"091219","12:54:31","26","26","5.0.14.0","2","20","trial1","naming","0","0","0","0","cardinal","0","3400","1","White_Screen.jpg","9","53","Bird_Cardinal.jpg","9"
"091219","12:54:31","26","26","5.0.14.0","2","21","trial1","naming","0","0","0","0","faucet","0","5535","1","White_Screen.jpg","8","102","Tap.jpg","8"
"091219","12:54:31","26","26","5.0.14.0","2","22","trial1","naming","0","0","0","0","train","0","1987","1","White_Screen.jpg","9","2","Toy_Train.jpg","9"
"091219","12:54:31","26","26","5.0.14.0","2","23","trial1","naming","0","0","0","0","pipe","0","1608","1","White_Screen.jpg","6","23","SmokingPipe.jpg","6"
"091219","12:54:31","26","26","5.0.14.0","2","24","trial1","naming","0","0","0","0","escalta","0","10000","1","White_Screen.jpg","8","131","Escalator.jpg","8"
"091219","12:54:31","26","26","5.0.14.0","2","25","trial1","naming","0","0","0","0","speakers","0","2203","1","White_Screen.jpg","8","8","Speaker_Computer.jpg","8"
"091219","12:54:31","26","26","5.0.14.0","2","26","trial1","naming","0","0","0","0","ping pong table","0","3339","1","White_Screen.jpg","8","55","Table_PingPong.jpg","8"
"091219","12:54:31","26","26","5.0.14.0","2","27","trial1","naming","0","0","0","0","water buffalo","0","6599","1","White_Screen.jpg","6","27","Buffalo.jpg","6"
"091219","12:54:31","26","26","5.0.14.0","2","28","trial1","naming","0","0","0","0","hamper","0","4421","1","White_Screen.jpg","4","157","LaundryHamper.jpg","4"
"091219","12:54:31","26","26","5.0.14.0","2","29","trial1","naming","0","0","0","0","syringe","0","2569","1","White_Screen.jpg","4","130","Syringe_Blunt.jpg","4"
"091219","12:54:31","26","26","5.0.14.0","2","30","trial1","naming","0","0","0","0","watering can","0","3530","1","White_Screen.jpg","9","100","WateringCan_PlasticDarkGreen.jpg","9"
"091219","12:54:31","26","26","5.0.14.0","2","31","trial1","naming","0","0","0","0","soap","0","1918","1","White_Screen.jpg","8","10","Soap.jpg","8"
"091219","12:54:31","26","26","5.0.14.0","2","32","trial1","naming","0","0","0","0","sushi","0","2694","1","White_Screen.jpg","8","156","Sashimi.jpg","8"
"091219","12:54:31","26","26","5.0.14.0","2","33","trial1","naming","0","0","0","0","pretzel","0","3062","1","White_Screen.jpg","4","82","Pretzel_Sticks.jpg","4"
"091219","12:54:31","26","26","5.0.14.0","2","34","trial1","naming","0","0","0","0","carousel","0","4773","1","White_Screen.jpg","9","48","Carousel copy.jpg","9"
"091219","12:54:31","26","26","5.0.14.0","2","35","trial1","naming","0","0","0","0","paper towels","0","3255","1","White_Screen.jpg","8","111","PaperTowel_Kitchen.jpg","8"
"091219","12:54:31","26","26","5.0.14.0","2","36","trial1","naming","0","0","0","0","web","0","1526","1","White_Screen.jpg","5","148","SpiderWeb.jpg","5"
"091219","12:54:31","26","26","5.0.14.0","2","37","trial1","naming","0","0","0","0","instrument","0","5530","1","White_Screen.jpg","8","179","Instrument_Guiro.jpg","8"
"091219","12:54:31","26","26","5.0.14.0","2","38","trial1","naming","0","0","0","0","cat","0","1461","1","White_Screen.jpg","8","149","Cat.jpg","8"
"091219","12:54:31","26","26","5.0.14.0","2","39","trial1","naming","0","0","0","0","torch","0","7874","1","White_Screen.jpg","3","41","BunsenBurner.jpg","3"
"091219","12:54:31","26","26","5.0.14.0","2","40","trial1","naming","0","0","0","0","gas pump","0","4743","1","White_Screen.jpg","5","31","Toy_GasPump.jpg","5"
"091219","12:54:31","26","26","5.0.14.0","2","41","trial1","naming","0","0","0","0","lantern","0","2774","1","White_Screen.jpg","8","70","Lantern_TeaBox.jpg","8"
"091219","12:54:31","26","26","5.0.14.0","2","42","trial1","naming","0","0","0","0","spatulka","0","4639","1","White_Screen.jpg","4","119","Spatula_1.jpg","4"
"091219","12:54:31","26","26","5.0.14.0","2","43","trial1","naming","0","0","0","0","nut cracker","0","6080","1","White_Screen.jpg","9","200","Nutcracker.jpg","9"
"091219","12:54:31","26","26","5.0.14.0","2","44","trial1","naming","0","0","0","0","chameleon","0","3701","1","White_Screen.jpg","8","174","Toy_Chameleon.jpg","8"
"091219","12:54:31","26","26","5.0.14.0","2","45","trial1","naming","0","0","0","0","lion","0","1839","1","White_Screen.jpg","9","122","Toy_Lion.jpg","9"
"091219","12:54:31","26","26","5.0.14.0","2","46","trial1","naming","0","0","0","0","lacrosse helmet","0","4784","1","White_Screen.jpg","8","113","Mask_HockeyGoalie.jpg","8"
"091219","12:54:31","26","26","5.0.14.0","2","47","trial1","naming","0","0","0","0","ladder","0","1677","1","White_Screen.jpg","8","86","Ladder.jpg","8"
"091219","12:54:31","26","26","5.0.14.0","2","48","trial1","naming","0","0","0","0","jewelry box","0","6776","1","White_Screen.jpg","9","74","Box_WoodenClosed.jpg","9"
"091219","12:54:31","26","26","5.0.14.0","2","49","trial1","naming","0","0","0","0","envelope","0","3754","1","White_Screen.jpg","6","12","Envelope_Letter.jpg","6"
"091219","12:54:31","26","26","5.0.14.0","2","50","trial1","naming","0","0","0","0","chess set","0","4149","1","White_Screen.jpg","9","103","Boardgame_Chess.jpg","9"
"091219","12:54:31","26","26","5.0.14.0","2","52","trial1","naming","0","0","0","0","candy heart","0","6298","1","White_Screen.jpg","9","38","Candy_Heart.jpg","9"
"091219","12:54:31","26","26","5.0.14.0","2","53","trial1","naming","0","0","0","0","desk","0","1643","1","White_Screen.jpg","8","170","Desk_Office.jpg","8"
"091219","12:54:31","26","26","5.0.14.0","2","54","trial1","naming","0","0","0","0","camera bag","0","5288","1","White_Screen.jpg","6","37","Bag_Camera.jpg","6"
"091219","12:54:31","26","26","5.0.14.0","2","55","trial1","naming","0","0","0","0","cruise ship","0","3593","1","White_Screen.jpg","5","121","Ship_Cruise.jpg","5"
"091219","12:54:31","26","26","5.0.14.0","2","56","trial1","naming","0","0","0","0","bible","0","1617","1","White_Screen.jpg","8","129","Bible.jpg","8"
"091219","12:54:31","26","26","5.0.14.0","2","57","trial1","naming","0","0","0","0","sheet musix","0","4652","1","White_Screen.jpg","8","44","MusicSheet.jpg","8"
"091219","12:54:31","26","26","5.0.14.0","2","58","trial1","naming","0","0","0","0","cookie container","0","5863","1","White_Screen.jpg","5","28","TinChristmas.jpg","5"
"091219","12:54:31","26","26","5.0.14.0","2","59","trial1","naming","0","0","0","0","pipe","0","2702","1","White_Screen.jpg","7","154","Pipe.jpg","7"
"091219","12:54:31","26","26","5.0.14.0","2","60","trial1","naming","0","0","0","0","spaghetti","0","4344","1","White_Screen.jpg","8","99","Pasta_Spaghetti.jpg","8"
"091219","12:54:31","26","26","5.0.14.0","2","61","trial1","naming","0","0","0","0","sway bar link","0","9602","1","White_Screen.jpg","7","181","CarSuspension.jpg","7"
"091219","12:54:31","26","26","5.0.14.0","2","62","trial1","naming","0","0","0","0","lighter","0","1817","1","White_Screen.jpg","9","114","Lighter_Yellow.jpg","9"
"091219","12:54:31","26","26","5.0.14.0","2","63","trial1","naming","0","0","0","0","bread","0","1877","1","White_Screen.jpg","9","7","Bread_Loaf.jpg","9"
"091219","12:54:31","26","26","5.0.14.0","2","64","trial1","naming","0","0","0","0","bin","0","3087","1","White_Screen.jpg","6","83","Chest.jpg","6"
"091219","12:54:31","26","26","5.0.14.0","2","65","trial1","naming","0","0","0","0","bag","0","2445","1","White_Screen.jpg","8","80","Bag_Diaper.jpg","8"
"091219","12:54:31","26","26","5.0.14.0","2","66","trial1","naming","0","0","0","0","bell","0","1530","1","White_Screen.jpg","7","95","ServiceBell.jpg","7"
"091219","12:54:31","26","26","5.0.14.0","2","67","trial1","naming","0","0","0","0","dumpling","0","4624","1","White_Screen.jpg","11","16","Wontons.jpg","11"
"091219","12:54:31","26","26","5.0.14.0","2","68","trial1","naming","0","0","0","0","grill","0","1956","1","White_Screen.jpg","8","151","Grill_Gas.jpg","8"
"091219","12:54:31","26","26","5.0.14.0","2","69","trial1","naming","0","0","0","0","oil","0","2164","1","White_Screen.jpg","10","79","Bottle_Liquor.jpg","10"
"091219","12:54:31","26","26","5.0.14.0","2","70","trial1","naming","0","0","0","0","shaker","0","2238","1","White_Screen.jpg","9","134","DrinkShaker.jpg","9"
"091219","12:54:31","26","26","5.0.14.0","2","71","trial1","naming","0","0","0","0","toy robot","0","4721","1","White_Screen.jpg","8","142","Toy_RobotClassic.jpg","8"
"091219","12:54:31","26","26","5.0.14.0","2","72","trial1","naming","0","0","0","0","measuring tape","0","2700","1","White_Screen.jpg","8","128","MeasuringTape.jpg","8"
"091219","12:54:31","26","26","5.0.14.0","2","73","trial1","naming","0","0","0","0","tank","0","4408","1","White_Screen.jpg","5","67","Cannister_Gas.jpg","5"
"091219","12:54:31","26","26","5.0.14.0","2","74","trial1","naming","0","0","0","0","flamingo","0","2266","1","White_Screen.jpg","8","51","Flamingo_Cartoon.jpg","8"
"091219","12:54:31","26","26","5.0.14.0","2","75","trial1","naming","0","0","0","0","lamp","0","1544","1","White_Screen.jpg","18","188","Lamp_Table.jpg","18"
"091219","12:54:31","26","26","5.0.14.0","2","76","trial1","naming","0","0","0","0","bench","0","2672","1","White_Screen.jpg","5","150","Bench_Concrete.jpg","5"
"091219","12:54:31","26","26","5.0.14.0","2","77","trial1","naming","0","0","0","0","dice","0","3094","1","White_Screen.jpg","4","60","Dice.jpg","4"
"091219","12:54:31","26","26","5.0.14.0","2","78","trial1","naming","0","0","0","0","cymbals","0","3045","1","White_Screen.jpg","7","164","Drum_Cymbal.jpg","7"
"091219","12:54:31","26","26","5.0.14.0","2","79","trial1","naming","0","0","0","0","carousel","0","3211","1","White_Screen.jpg","5","75","Toy_MerryGoRound.jpg","5"
"091219","12:54:31","26","26","5.0.14.0","2","80","trial1","naming","0","0","0","0","chocolate bar","0","3206","1","White_Screen.jpg","7","155","ChocolateBar_Unwrapped.jpg","7"
"091219","12:54:31","26","26","5.0.14.0","2","81","trial1","naming","0","0","0","0","swing","0","2505","1","White_Screen.jpg","7","120","Toy_FigurineSwing.jpg","7"
"091219","12:54:31","26","26","5.0.14.0","2","82","trial1","naming","0","0","0","0","elephant","0","3391","1","White_Screen.jpg","9","162","Elephant.jpg","9"
"091219","12:54:31","26","26","5.0.14.0","2","83","trial1","naming","0","0","0","0","pot","0","6494","1","White_Screen.jpg","8","171","Jug_Milk.jpg","8"
"091219","12:54:31","26","26","5.0.14.0","2","84","trial1","naming","0","0","0","0","pills","0","3548","1","White_Screen.jpg","6","21","PillBottle_Prescription.jpg","6"
"091219","12:54:31","26","26","5.0.14.0","2","85","trial1","naming","0","0","0","0","drill","0","2039","1","White_Screen.jpg","4","92","Drill.jpg","4"
"091219","12:54:31","26","26","5.0.14.0","2","86","trial1","naming","0","0","0","0","recorder","0","3806","1","White_Screen.jpg","8","62","Flute_Tin.jpg","8"
"091219","12:54:31","26","26","5.0.14.0","2","87","trial1","naming","0","0","0","0","cup","0","2764","1","White_Screen.jpg","8","184","Pottery.jpg","8"
"091219","12:54:31","26","26","5.0.14.0","2","88","trial1","naming","0","0","0","0","quiver","0","4157","1","White_Screen.jpg","4","34","Archery_Arrows.jpg","4"
"091219","12:54:31","26","26","5.0.14.0","2","89","trial1","naming","0","0","0","0","turtle","0","2506","1","White_Screen.jpg","8","106","Toy_Turtle.jpg","8"
"091219","12:54:31","26","26","5.0.14.0","2","90","trial1","naming","0","0","0","0","dish","0","2864","1","White_Screen.jpg","4","112","Bowl_Chinese.jpg","4"
"091219","12:54:31","26","26","5.0.14.0","2","91","trial1","naming","0","0","0","0","backpack","0","3025","1","White_Screen.jpg","6","14","Backpack_Travel.jpg","6"
"091219","12:54:31","26","26","5.0.14.0","2","92","trial1","naming","0","0","0","0","wild hog","0","7268","1","White_Screen.jpg","5","94","Boar.jpg","5"
"091219","12:54:31","26","26","5.0.14.0","2","93","trial1","naming","0","0","0","0","kangaroo","0","3313","1","White_Screen.jpg","9","196","Kangaroo_WithJoey.jpg","9"
"091219","12:54:31","26","26","5.0.14.0","2","94","trial1","naming","0","0","0","0","chip","0","1761","1","White_Screen.jpg","9","199","TortillaChip.jpg","9"
"091219","12:54:31","26","26","5.0.14.0","2","95","trial1","naming","0","0","0","0","plug","0","5658","1","White_Screen.jpg","6","168","Jack.jpg","6"
"091219","12:54:31","26","26","5.0.14.0","2","96","trial1","naming","0","0","0","0","keyboard","0","2502","1","White_Screen.jpg","6","56","Piano_Keyboard.jpg","6"
"091219","12:54:31","26","26","5.0.14.0","2","97","trial1","naming","0","0","0","0","honeycomb","0","3314","1","White_Screen.jpg","8","97","Honeycomb.jpg","8"
"091219","12:54:31","26","26","5.0.14.0","2","98","trial1","naming","0","0","0","0","hat","0","2859","1","White_Screen.jpg","7","96","Hat_Police.jpg","7"
"091219","12:54:31","26","26","5.0.14.0","2","99","trial1","naming","0","0","0","0","press","0","5984","1","White_Screen.jpg","6","175","PotatoMasher_Zigzag.jpg","6"
"091219","12:54:31","26","26","5.0.14.0","2","100","trial1","naming","0","0","0","0","bowling pin","0","3694","1","White_Screen.jpg","5","178","BowlingPin.jpg","5"
"091219","12:54:31","26","26","5.0.14.0","2","101","trial1","naming","0","0","0","0","acorn","0","2174","1","White_Screen.jpg","8","49","Hazelnut.jpg","8"
"091219","12:54:31","26","26","5.0.14.0","2","103","trial1","naming","0","0","0","0","blocks","0","4546","1","White_Screen.jpg","10","135","Toy_BlocksMultiShape.jpg","10"
"091219","12:54:31","26","26","5.0.14.0","2","104","trial1","naming","0","0","0","0","shells","0","3991","1","White_Screen.jpg","8","50","Pasta_Shell.jpg","8"
"091219","12:54:31","26","26","5.0.14.0","2","105","trial1","naming","0","0","0","0","sandwich","0","3540","1","White_Screen.jpg","8","6","Sandwich_Egg.jpg","8"
"091219","12:54:31","26","26","5.0.14.0","2","106","trial1","naming","0","0","0","0","play doh","0","4496","1","White_Screen.jpg","5","39","StickyTack.jpg","5"
"091219","12:54:31","26","26","5.0.14.0","2","107","trial1","naming","0","0","0","0","recycling bin","0","5124","1","White_Screen.jpg","5","1","BinRecycling.jpg","5"
"091219","12:54:31","26","26","5.0.14.0","2","108","trial1","naming","0","0","0","0","bag","0","4759","1","White_Screen.jpg","9","127","Bag_Satchel.jpg","9"
"091219","12:54:31","26","26","5.0.14.0","2","109","trial1","naming","0","0","0","0","speaker","0","2183","1","White_Screen.jpg","7","17","Speaker_OnStand.jpg","7"
"091219","12:54:31","26","26","5.0.14.0","2","110","trial1","naming","0","0","0","0","bug zapper","0","5916","1","White_Screen.jpg","8","187","PatioHeater.jpg","8"
"091219","12:54:31","26","26","5.0.14.0","2","111","trial1","naming","0","0","0","0","air pump","0","4976","1","White_Screen.jpg","9","29","AirPump.jpg","9"
"091219","12:54:31","26","26","5.0.14.0","2","112","trial1","naming","0","0","0","0","rolling pin","0","2600","1","White_Screen.jpg","8","125","RollingPin.jpg","8"
"091219","12:54:31","26","26","5.0.14.0","2","113","trial1","naming","0","0","0","0","thread","0","2138","1","White_Screen.jpg","6","116","Spool_Thread.jpg","6"
"091219","12:54:31","26","26","5.0.14.0","2","114","trial1","naming","0","0","0","0","water drop","0","3466","1","White_Screen.jpg","8","143","Teardrop.jpg","8"
"091219","12:54:31","26","26","5.0.14.0","2","115","trial1","naming","0","0","0","0","railing","0","2713","1","White_Screen.jpg","4","177","Balcony.jpg","4"
"091219","12:54:31","26","26","5.0.14.0","2","116","trial1","naming","0","0","0","0","trumpet","0","2728","1","White_Screen.jpg","6","33","Trumpet.jpg","6"
"091219","12:54:31","26","26","5.0.14.0","2","117","trial1","naming","0","0","0","0","insoles","0","5294","1","White_Screen.jpg","8","192","Heelpad.jpg","8"
"091219","12:54:31","26","26","5.0.14.0","2","118","trial1","naming","0","0","0","0","picture frame","0","3699","1","White_Screen.jpg","7","166","PictureFrame.jpg","7"
"091219","12:54:31","26","26","5.0.14.0","2","119","trial1","naming","0","0","0","0","3 hole punch","0","4723","1","White_Screen.jpg","9","87","ThreeHolePunch.jpg","9"
"091219","12:54:31","26","26","5.0.14.0","2","120","trial1","naming","0","0","0","0","pelican","0","3018","1","White_Screen.jpg","8","123","Bird_Pelican.jpg","8"
"091219","12:54:31","26","26","5.0.14.0","2","121","trial1","naming","0","0","0","0","corn","0","1420","1","White_Screen.jpg","5","161","Corn.jpg","5"
"091219","12:54:31","26","26","5.0.14.0","2","122","trial1","naming","0","0","0","0","lint brush","0","4974","1","White_Screen.jpg","8","165","Brush_Light.jpg","8"
"091219","12:54:31","26","26","5.0.14.0","2","123","trial1","naming","0","0","0","0","chipmunk","0","3272","1","White_Screen.jpg","8","40","Chipmunk.jpg","8"
"091219","12:54:31","26","26","5.0.14.0","2","124","trial1","naming","0","0","0","0","booties","0","4555","1","White_Screen.jpg","5","81","Booties_Blue.jpg","5"
"091219","12:54:31","26","26","5.0.14.0","2","125","trial1","naming","0","0","0","0","hygiene bag","0","6650","1","White_Screen.jpg","9","118","Case_Pencil.jpg","9"
"091219","12:54:31","26","26","5.0.14.0","2","126","trial1","naming","0","0","0","0","scraper","0","4970","1","White_Screen.jpg","8","47","CheeseSlicer.jpg","8"
"091219","12:54:31","26","26","5.0.14.0","2","127","trial1","naming","0","0","0","0","statue","0","3141","1","White_Screen.jpg","5","9","Statue_SouthAmerican.jpg","5"
"091219","12:54:31","26","26","5.0.14.0","2","128","trial1","naming","0","0","0","0","staple gun","0","3590","1","White_Screen.jpg","7","89","Stapler_Gun.jpg","7"
"091219","12:54:31","26","26","5.0.14.0","2","129","trial1","naming","0","0","0","0","pin cushon","0","10000","1","White_Screen.jpg","5","160","SewingPin_Cushion.jpg","5"
"091219","12:54:31","26","26","5.0.14.0","2","130","trial1","naming","0","0","0","0","multi-meter","0","5089","1","White_Screen.jpg","4","30","AmpMeter.jpg","4"
"091219","12:54:31","26","26","5.0.14.0","2","131","trial1","naming","0","0","0","0","blueberries","0","5862","1","White_Screen.jpg","9","140","Blueberry.jpg","9"
"091219","12:54:31","26","26","5.0.14.0","2","132","trial1","naming","0","0","0","0","stethoscope","0","3530","1","White_Screen.jpg","5","105","Stethoscope.jpg","5"
"091219","12:54:31","26","26","5.0.14.0","2","133","trial1","naming","0","0","0","0","maniquin","0","7625","1","White_Screen.jpg","6","24","MannequinHead.jpg","6"
"091219","12:54:31","26","26","5.0.14.0","2","134","trial1","naming","0","0","0","0","trap","0","3419","1","White_Screen.jpg","8","108","TrapAnimal.jpg","8"
"091219","12:54:31","26","26","5.0.14.0","2","135","trial1","naming","0","0","0","0","hot glue gun","0","3913","1","White_Screen.jpg","8","91","Gun_Glue.jpg","8"
"091219","12:54:31","26","26","5.0.14.0","2","136","trial1","naming","0","0","0","0","printer cable","0","5471","1","White_Screen.jpg","4","18","Cord_usb.jpg","4"
"091219","12:54:31","26","26","5.0.14.0","2","137","trial1","naming","0","0","0","0","chest","0","1718","1","White_Screen.jpg","8","54","Trunk.jpg","8"
"091219","12:54:31","26","26","5.0.14.0","2","138","trial1","naming","0","0","0","0","balaclava","0","4889","1","White_Screen.jpg","8","190","Mask_Ski.jpg","8"
"091219","12:54:31","26","26","5.0.14.0","2","139","trial1","naming","0","0","0","0","suit jacket","0","4601","1","White_Screen.jpg","8","98","Jacket_Suit.jpg","8"
"091219","12:54:31","26","26","5.0.14.0","2","140","trial1","naming","0","0","0","0","banana","0","2673","1","White_Screen.jpg","8","4","Banana.jpg","8"
"091219","12:54:31","26","26","5.0.14.0","2","141","trial1","naming","0","0","0","0","flower","0","3560","1","White_Screen.jpg","5","52","Flower_Hibiscus.jpg","5"
"091219","12:54:31","26","26","5.0.14.0","2","142","trial1","naming","0","0","0","0","vial","0","3038","1","White_Screen.jpg","7","46","TestTube_Single.jpg","7"
"091219","12:54:31","26","26","5.0.14.0","2","143","trial1","naming","0","0","0","0","ribbon","0","3257","1","White_Screen.jpg","8","115","RibbonString.jpg","8"
"091219","12:54:31","26","26","5.0.14.0","2","144","trial1","naming","0","0","0","0","stone","0","7337","1","White_Screen.jpg","5","152","Stone_Mill.jpg","5"
"091219","12:54:31","26","26","5.0.14.0","2","145","trial1","naming","0","0","0","0","smoothie","0","3352","1","White_Screen.jpg","8","93","Drink_Green.jpg","8"
"091219","12:54:31","26","26","5.0.14.0","2","146","trial1","naming","0","0","0","0","dress","0","2496","1","White_Screen.jpg","9","61","Dress_Cocktail.jpg","9"
"091219","12:54:31","26","26","5.0.14.0","2","147","trial1","naming","0","0","0","0","jelly beans","0","5887","1","White_Screen.jpg","5","15","Jar_JellyBeans.jpg","5"
"091219","12:54:31","26","26","5.0.14.0","2","148","trial1","naming","0","0","0","0","picture fram","0","5695","1","White_Screen.jpg","9","146","CertificateFramed.jpg","9"
"091219","12:54:31","26","26","5.0.14.0","2","149","trial1","naming","0","0","0","0","caution sign","0","6970","1","White_Screen.jpg","5","35","Sign_SlipperyRoad.jpg","5"
"091219","12:54:31","26","26","5.0.14.0","2","150","trial1","naming","0","0","0","0","napkin","0","2227","1","White_Screen.jpg","5","68","Napkin_Single.jpg","5"
"091219","12:54:31","26","26","5.0.14.0","2","151","trial1","naming","0","0","0","0","horse shoe","0","3538","1","White_Screen.jpg","8","159","Horseshoe.jpg","8"
"091219","12:54:31","26","26","5.0.14.0","2","152","trial1","naming","0","0","0","0","square","0","5403","1","White_Screen.jpg","8","185","SetSquare.jpg","8"
"091219","12:54:31","26","26","5.0.14.0","2","154","trial1","naming","0","0","0","0","mary figure","0","5860","1","White_Screen.jpg","8","167","Statue_VirginMary.jpg","8"
"091219","12:54:31","26","26","5.0.14.0","2","155","trial1","naming","0","0","0","0","chalk line","0","5016","1","White_Screen.jpg","8","42","ChalkLineTool.jpg","8"
"091219","12:54:31","26","26","5.0.14.0","2","156","trial1","naming","0","0","0","0","handi cap door button","0","7895","1","White_Screen.jpg","5","65","PowerDoorPushButton.jpg","5"
"091219","12:54:31","26","26","5.0.14.0","2","157","trial1","naming","0","0","0","0","belt","0","1567","1","White_Screen.jpg","5","66","Belt.jpg","5"
"091219","12:54:31","26","26","5.0.14.0","2","158","trial1","naming","0","0","0","0","shell","0","1613","1","White_Screen.jpg","9","32","Seashell_BayScallop.jpg","9"
"091219","12:54:31","26","26","5.0.14.0","2","159","trial1","naming","0","0","0","0","gorilla","0","2328","1","White_Screen.jpg","4","90","Gorilla.jpg","4"
"091219","12:54:31","26","26","5.0.14.0","2","160","trial1","naming","0","0","0","0","pin","0","1525","1","White_Screen.jpg","8","169","SewingPin_Single.jpg","8"
"091219","12:54:31","26","26","5.0.14.0","2","161","trial1","naming","0","0","0","0","briefcase","0","4901","1","White_Screen.jpg","7","72","Briefcase_Open.jpg","7"
"091219","12:54:31","26","26","5.0.14.0","2","162","trial1","naming","0","0","0","0","wire","0","3360","1","White_Screen.jpg","8","197","Wire_ElectricalSingle.jpg","8"
"091219","12:54:31","26","26","5.0.14.0","2","163","trial1","naming","0","0","0","0","mouse","0","2032","1","White_Screen.jpg","7","173","ComputerMouse.jpg","7"
"091219","12:54:31","26","26","5.0.14.0","2","164","trial1","naming","0","0","0","0","parking sign","0","4774","1","White_Screen.jpg","8","45","Sign_Parking.jpg","8"
"091219","12:54:31","26","26","5.0.14.0","2","165","trial1","naming","0","0","0","0","crossbow","0","2256","1","White_Screen.jpg","5","22","Crossbow.jpg","5"
