"date","time","group","subject","build","blocknum","trialnum","blockcode","trialcode","pretrialpause","posttrialpause","trialduration","trialtimeout","response","correct","latency","stimulusnumber1","stimulusitem1","stimulusonset1","stimulusnumber2","stimulusitem2","stimulusonset2"
"091219","12:38:02","19","19","5.0.14.0","2","1","trial1","naming","0","0","0","0","signEnter Name","0","2891","1","White_Screen.jpg","152","169","Sign_Airport.jpg","152"
"091219","12:38:02","19","19","5.0.14.0","2","2","trial1","naming","0","0","0","0","spoon","0","8068","1","White_Screen.jpg","6","23","Spoons_MeasuringDetached.jpg","6"
"091219","12:38:02","19","19","5.0.14.0","2","3","trial1","naming","0","0","0","0","chair","0","3516","1","White_Screen.jpg","7","61","Chair_MedicalToilet.jpg","7"
"091219","12:38:02","19","19","5.0.14.0","2","4","trial1","naming","0","0","0","0","hook","0","3560","1","White_Screen.jpg","7","24","Hook_Ceiling.jpg","7"
"091219","12:38:02","19","19","5.0.14.0","2","5","trial1","naming","0","0","0","0","salt shaker","0","4033","1","White_Screen.jpg","8","102","SaltShaker.jpg","8"
"091219","12:38:02","19","19","5.0.14.0","2","6","trial1","naming","0","0","0","0","surgery lamp","0","4945","1","White_Screen.jpg","7","170","DentistOverheadLight.jpg","7"
"091219","12:38:02","19","19","5.0.14.0","2","7","trial1","naming","0","0","0","0","barrel","0","2759","1","White_Screen.jpg","8","1","Barrel_Upright.jpg","8"
"091219","12:38:02","19","19","5.0.14.0","2","8","trial1","naming","0","0","0","0","Crest","0","3994","1","White_Screen.jpg","8","49","Shield_Antique.jpg","8"
"091219","12:38:02","19","19","5.0.14.0","2","9","trial1","naming","0","0","0","0","stones","0","3859","1","White_Screen.jpg","9","152","Stone_Spa.jpg","9"
"091219","12:38:02","19","19","5.0.14.0","2","10","trial1","naming","0","0","0","0","skirt","0","2493","1","White_Screen.jpg","7","182","Skirt_Long.jpg","7"
"091219","12:38:02","19","19","5.0.14.0","2","11","trial1","naming","0","0","0","0","Enter Name","0","229","1","White_Screen.jpg","8","94","Lettuce_Iceberg.jpg","8"
"091219","12:38:02","19","19","5.0.14.0","2","12","trial1","naming","0","0","0","0","pattle","0","5157","1","White_Screen.jpg","8","166","Bat_Cricket.jpg","8"
"091219","12:38:02","19","19","5.0.14.0","2","13","trial1","naming","0","0","0","0","shoes","0","2149","1","White_Screen.jpg","8","117","Shoes_Pumps.jpg","8"
"091219","12:38:02","19","19","5.0.14.0","2","14","trial1","naming","0","0","0","0","party favor","0","4220","1","White_Screen.jpg","6","149","Noisemaker.jpg","6"
"091219","12:38:02","19","19","5.0.14.0","2","15","trial1","naming","0","0","0","0","makeup","0","2476","1","White_Screen.jpg","6","71","Makeup_Eyeshadow.jpg","6"
"091219","12:38:02","19","19","5.0.14.0","2","16","trial1","naming","0","0","0","0","skate","0","2645","1","White_Screen.jpg","8","54","RollerBlade.jpg","8"
"091219","12:38:02","19","19","5.0.14.0","2","17","trial1","naming","0","0","0","0","pencil","0","2276","1","White_Screen.jpg","8","5","Pencil.jpg","8"
"091219","12:38:02","19","19","5.0.14.0","2","18","trial1","naming","0","0","0","0","pea","0","3294","1","White_Screen.jpg","7","164","Can_Peas.jpg","7"
"091219","12:38:02","19","19","5.0.14.0","2","19","trial1","naming","0","0","0","0","horn","0","3864","1","White_Screen.jpg","8","177","Horn_Hunting.jpg","8"
"091219","12:38:02","19","19","5.0.14.0","2","20","trial1","naming","0","0","0","0","cage","0","1765","1","White_Screen.jpg","6","35","Cage_Bird.jpg","6"
"091219","12:38:02","19","19","5.0.14.0","2","21","trial1","naming","0","0","0","0","newspaper","0","5195","1","White_Screen.jpg","7","181","NewspaperStack.jpg","7"
"091219","12:38:02","19","19","5.0.14.0","2","22","trial1","naming","0","0","0","0","traffic light","0","5778","1","White_Screen.jpg","8","180","Light_Traffic.jpg","8"
"091219","12:38:02","19","19","5.0.14.0","2","23","trial1","naming","0","0","0","0","statue","0","2670","1","White_Screen.jpg","7","18","Statue_Cat.jpg","7"
"091219","12:38:02","19","19","5.0.14.0","2","24","trial1","naming","0","0","0","0","cord","0","1819","1","White_Screen.jpg","7","69","Cord_Ethernet.jpg","7"
"091219","12:38:02","19","19","5.0.14.0","2","25","trial1","naming","0","0","0","0","rocking horse","0","3608","1","White_Screen.jpg","8","131","Toy_RockingHorseBeige.jpg","8"
"091219","12:38:02","19","19","5.0.14.0","2","26","trial1","naming","0","0","0","0","cup of fruit","0","3286","1","White_Screen.jpg","8","125","Cup_Fruits.jpg","8"
"091219","12:38:02","19","19","5.0.14.0","2","27","trial1","naming","0","0","0","0","stairs","0","1916","1","White_Screen.jpg","6","197","Staircase_Straight.jpg","6"
"091219","12:38:02","19","19","5.0.14.0","2","28","trial1","naming","0","0","0","0","goggles","0","6085","1","White_Screen.jpg","8","74","Snorkle.jpg","8"
"091219","12:38:02","19","19","5.0.14.0","2","29","trial1","naming","0","0","0","0","washer","0","4829","1","White_Screen.jpg","7","168","DryingMachine.jpg","7"
"091219","12:38:02","19","19","5.0.14.0","2","30","trial1","naming","0","0","0","0","clock towel","0","5311","1","White_Screen.jpg","8","199","Steeple.jpg","8"
"091219","12:38:02","19","19","5.0.14.0","2","31","trial1","naming","0","0","0","0","paintbrush","0","3558","1","White_Screen.jpg","8","138","Brush_Paint.jpg","8"
"091219","12:38:02","19","19","5.0.14.0","2","32","trial1","naming","0","0","0","0","grapes","0","2392","1","White_Screen.jpg","8","95","Grape.jpg","8"
"091219","12:38:02","19","19","5.0.14.0","2","33","trial1","naming","0","0","0","0","dice","0","2024","1","White_Screen.jpg","8","147","FuzzyDice.jpg","8"
"091219","12:38:02","19","19","5.0.14.0","2","34","trial1","naming","0","0","0","0","spinning wheel","0","4980","1","White_Screen.jpg","7","128","SpinningWheel.jpg","7"
"091219","12:38:02","19","19","5.0.14.0","2","35","trial1","naming","0","0","0","0","kettle","0","2413","1","White_Screen.jpg","8","119","Kettle.jpg","8"
"091219","12:38:02","19","19","5.0.14.0","2","36","trial1","naming","0","0","0","0","bed","0","2979","1","White_Screen.jpg","8","122","Bed_Hospital.jpg","8"
"091219","12:38:02","19","19","5.0.14.0","2","37","trial1","naming","0","0","0","0","hamster","0","2412","1","White_Screen.jpg","8","76","GuineaPig.jpg","8"
"091219","12:38:02","19","19","5.0.14.0","2","38","trial1","naming","0","0","0","0","harp","0","2331","1","White_Screen.jpg","7","47","Harp.jpg","7"
"091219","12:38:02","19","19","5.0.14.0","2","39","trial1","naming","0","0","0","0","funyons","0","5240","1","White_Screen.jpg","7","161","OnionRings.jpg","7"
"091219","12:38:02","19","19","5.0.14.0","2","40","trial1","naming","0","0","0","0","broom","0","2799","1","White_Screen.jpg","8","75","Broom_Long.jpg","8"
"091219","12:38:02","19","19","5.0.14.0","2","41","trial1","naming","0","0","0","0","tape roller","0","4616","1","White_Screen.jpg","7","68","Tape_Dispenser.jpg","7"
"091219","12:38:02","19","19","5.0.14.0","2","42","trial1","naming","0","0","0","0","monitor","0","2700","1","White_Screen.jpg","6","21","BabyMonitor.jpg","6"
"091219","12:38:02","19","19","5.0.14.0","2","43","trial1","naming","0","0","0","0","celery","0","4738","1","White_Screen.jpg","7","154","Celery.jpg","7"
"091219","12:38:02","19","19","5.0.14.0","2","44","trial1","naming","0","0","0","0","condom","0","2748","1","White_Screen.jpg","7","187","Condom.jpg","7"
"091219","12:38:02","19","19","5.0.14.0","2","45","trial1","naming","0","0","0","0","fan","0","1620","1","White_Screen.jpg","8","6","PropellerFan.jpg","8"
"091219","12:38:02","19","19","5.0.14.0","2","46","trial1","naming","0","0","0","0","ship","0","4488","1","White_Screen.jpg","8","78","Ship_Model.jpg","8"
"091219","12:38:02","19","19","5.0.14.0","2","47","trial1","naming","0","0","0","0","spray bottle","0","5846","1","White_Screen.jpg","7","174","Bottle_Spray.jpg","7"
"091219","12:38:02","19","19","5.0.14.0","2","48","trial1","naming","0","0","0","0","wine glass","0","5140","1","White_Screen.jpg","8","28","Glass_Martini.jpg","8"
"091219","12:38:02","19","19","5.0.14.0","2","49","trial1","naming","0","0","0","0","visor","0","4046","1","White_Screen.jpg","8","14","Hat_Visor.jpg","8"
"091219","12:38:02","19","19","5.0.14.0","2","50","trial1","naming","0","0","0","0","flower","0","2560","1","White_Screen.jpg","8","185","Flower_Daisy.jpg","8"
"091219","12:38:02","19","19","5.0.14.0","2","52","trial1","naming","0","0","0","0","tassle","0","3291","1","White_Screen.jpg","5","130","Decoration_Chinese.jpg","5"
"091219","12:38:02","19","19","5.0.14.0","2","53","trial1","naming","0","0","0","0","hook","0","3289","1","White_Screen.jpg","8","22","Hook_Fishing.jpg","8"
"091219","12:38:02","19","19","5.0.14.0","2","54","trial1","naming","0","0","0","0","nozzle","0","3754","1","White_Screen.jpg","7","105","HoseNozzle.jpg","7"
"091219","12:38:02","19","19","5.0.14.0","2","55","trial1","naming","0","0","0","0","honey","0","4592","1","White_Screen.jpg","7","67","Jar_Honey.jpg","7"
"091219","12:38:02","19","19","5.0.14.0","2","56","trial1","naming","0","0","0","0","seat","0","3715","1","White_Screen.jpg","8","17","BicycleSeat.jpg","8"
"091219","12:38:02","19","19","5.0.14.0","2","57","trial1","naming","0","0","0","0","pickle","0","2891","1","White_Screen.jpg","6","104","Pickle.jpg","6"
"091219","12:38:02","19","19","5.0.14.0","2","58","trial1","naming","0","0","0","0","igloo","0","3715","1","White_Screen.jpg","7","184","Igloo.jpg","7"
"091219","12:38:02","19","19","5.0.14.0","2","59","trial1","naming","0","0","0","0","spout","0","4077","1","White_Screen.jpg","7","4","Pipe_Drain.jpg","7"
"091219","12:38:02","19","19","5.0.14.0","2","60","trial1","naming","0","0","0","0","toliet brush","0","3922","1","White_Screen.jpg","7","15","Brush_Toilet.jpg","7"
"091219","12:38:02","19","19","5.0.14.0","2","61","trial1","naming","0","0","0","0","Enter Name","0","1561","1","White_Screen.jpg","8","156","Mug_Beer.jpg","8"
"091219","12:38:02","19","19","5.0.14.0","2","62","trial1","naming","0","0","0","0","chaning station","0","4370","1","White_Screen.jpg","9","118","DiaperChangingStation.jpg","9"
"091219","12:38:02","19","19","5.0.14.0","2","63","trial1","naming","0","0","0","0","canister","0","5292","1","White_Screen.jpg","8","82","Thermos_MetalSleek.jpg","8"
"091219","12:38:02","19","19","5.0.14.0","2","64","trial1","naming","0","0","0","0","axe","0","1823","1","White_Screen.jpg","8","58","Axe.jpg","8"
"091219","12:38:02","19","19","5.0.14.0","2","65","trial1","naming","0","0","0","0","lipstick","0","2566","1","White_Screen.jpg","8","41","Lipstick.jpg","8"
"091219","12:38:02","19","19","5.0.14.0","2","66","trial1","naming","0","0","0","0","crane","0","2201","1","White_Screen.jpg","6","126","CraneMachine.jpg","6"
"091219","12:38:02","19","19","5.0.14.0","2","67","trial1","naming","0","0","0","0","egg","0","2605","1","White_Screen.jpg","6","37","Egg_Cup.jpg","6"
"091219","12:38:02","19","19","5.0.14.0","2","68","trial1","naming","0","0","0","0","boat","0","1868","1","White_Screen.jpg","7","159","Boat_Trailer.jpg","7"
"091219","12:38:02","19","19","5.0.14.0","2","69","trial1","naming","0","0","0","0","table","0","2422","1","White_Screen.jpg","6","43","Table_Side.jpg","6"
"091219","12:38:02","19","19","5.0.14.0","2","70","trial1","naming","0","0","0","0","steak","0","3043","1","White_Screen.jpg","7","191","MeatRaw.jpg","7"
"091219","12:38:02","19","19","5.0.14.0","2","71","trial1","naming","0","0","0","0","noodle","0","2950","1","White_Screen.jpg","7","110","Pasta_Fusilli.jpg","7"
"091219","12:38:02","19","19","5.0.14.0","2","72","trial1","naming","0","0","0","0","razor","0","3146","1","White_Screen.jpg","7","84","Razor.jpg","7"
"091219","12:38:02","19","19","5.0.14.0","2","73","trial1","naming","0","0","0","0","decoration","0","4133","1","White_Screen.jpg","8","53","Decoration_WallOrnament.jpg","8"
"091219","12:38:02","19","19","5.0.14.0","2","74","trial1","naming","0","0","0","0","adaptor","0","6734","1","White_Screen.jpg","6","188","Pipe_Pitch.jpg","6"
"091219","12:38:02","19","19","5.0.14.0","2","75","trial1","naming","0","0","0","0","Enter Name","0","3968","1","White_Screen.jpg","6","3","BicycleHandleGrip.jpg","6"
"091219","12:38:02","19","19","5.0.14.0","2","76","trial1","naming","0","0","0","0","gas container","0","5345","1","White_Screen.jpg","6","62","Jug_GallonRed.jpg","6"
"091219","12:38:02","19","19","5.0.14.0","2","77","trial1","naming","0","0","0","0","herb","0","4053","1","White_Screen.jpg","8","183","Dill.jpg","8"
"091219","12:38:02","19","19","5.0.14.0","2","78","trial1","naming","0","0","0","0","lego","0","2490","1","White_Screen.jpg","8","88","Toys_Lego.jpg","8"
"091219","12:38:02","19","19","5.0.14.0","2","79","trial1","naming","0","0","0","0","sink adaptor","0","5692","1","White_Screen.jpg","7","175","PaintSprayer.jpg","7"
"091219","12:38:02","19","19","5.0.14.0","2","80","trial1","naming","0","0","0","0","kiwi","0","2843","1","White_Screen.jpg","7","59","Kiwi.jpg","7"
"091219","12:38:02","19","19","5.0.14.0","2","81","trial1","naming","0","0","0","0","shrub","0","2216","1","White_Screen.jpg","7","96","Shrub_Boxwood.jpg","7"
"091219","12:38:02","19","19","5.0.14.0","2","82","trial1","naming","0","0","0","0","goose","0","2094","1","White_Screen.jpg","6","137","Goose_Canadian.jpg","6"
"091219","12:38:02","19","19","5.0.14.0","2","83","trial1","naming","0","0","0","0","vacuum compnen","0","10000","1","White_Screen.jpg","7","140","CoolingFan_Engine2.jpg","7"
"091219","12:38:02","19","19","5.0.14.0","2","84","trial1","naming","0","0","0","0","Jersey","0","4994","1","White_Screen.jpg","6","12","Shirt_SportsJersey.jpg","6"
"091219","12:38:02","19","19","5.0.14.0","2","85","trial1","naming","0","0","0","0","scoop","0","2871","1","White_Screen.jpg","8","155","Scoop_Flour.jpg","8"
"091219","12:38:02","19","19","5.0.14.0","2","86","trial1","naming","0","0","0","0","scorpion","0","2794","1","White_Screen.jpg","8","46","Scorpion.jpg","8"
"091219","12:38:02","19","19","5.0.14.0","2","87","trial1","naming","0","0","0","0","telephone booth","0","4012","1","White_Screen.jpg","7","42","Phone_Public.jpg","7"
"091219","12:38:02","19","19","5.0.14.0","2","88","trial1","naming","0","0","0","0","maginfiing glass","0","4217","1","White_Screen.jpg","8","196","Magnifying_Glass.jpg","8"
"091219","12:38:02","19","19","5.0.14.0","2","89","trial1","naming","0","0","0","0","paint","0","1919","1","White_Screen.jpg","7","190","WaterColorPaintset.jpg","7"
"091219","12:38:02","19","19","5.0.14.0","2","90","trial1","naming","0","0","0","0"," bag og groceies","0","5593","1","White_Screen.jpg","7","133","Bag_Groceries.jpg","7"
"091219","12:38:02","19","19","5.0.14.0","2","91","trial1","naming","0","0","0","0","eggs","0","1675","1","White_Screen.jpg","8","30","CartonEggs.jpg","8"
"091219","12:38:02","19","19","5.0.14.0","2","92","trial1","naming","0","0","0","0","cabinet","0","3658","1","White_Screen.jpg","7","31","Wardrobe.jpg","7"
"091219","12:38:02","19","19","5.0.14.0","2","93","trial1","naming","0","0","0","0","chain","0","1843","1","White_Screen.jpg","8","101","ChainRusty.jpg","8"
"091219","12:38:02","19","19","5.0.14.0","2","94","trial1","naming","0","0","0","0","seahorse","0","2914","1","White_Screen.jpg","8","55","Seahorse.jpg","8"
"091219","12:38:02","19","19","5.0.14.0","2","95","trial1","naming","0","0","0","0","pipe","0","3196","1","White_Screen.jpg","8","81","Tube.jpg","8"
"091219","12:38:02","19","19","5.0.14.0","2","96","trial1","naming","0","0","0","0","suitcase","0","3200","1","White_Screen.jpg","7","115","Suitcase.jpg","7"
"091219","12:38:02","19","19","5.0.14.0","2","97","trial1","naming","0","0","0","0","bowl","0","6860","1","White_Screen.jpg","6","145","Ramekin.jpg","6"
"091219","12:38:02","19","19","5.0.14.0","2","98","trial1","naming","0","0","0","0","cash register","0","3623","1","White_Screen.jpg","7","13","CashRegister_Antique.jpg","7"
"091219","12:38:02","19","19","5.0.14.0","2","99","trial1","naming","0","0","0","0","paint roller","0","2920","1","White_Screen.jpg","8","39","PaintRoller.jpg","8"
"091219","12:38:02","19","19","5.0.14.0","2","100","trial1","naming","0","0","0","0","garlic","0","2501","1","White_Screen.jpg","8","10","Garlic_Clove.jpg","8"
"091219","12:38:02","19","19","5.0.14.0","2","101","trial1","naming","0","0","0","0","bat","0","2517","1","White_Screen.jpg","7","87","Bat_Baseball.jpg","7"
"091219","12:38:02","19","19","5.0.14.0","2","103","trial1","naming","0","0","0","0"," can telephone","0","7376","1","White_Screen.jpg","5","144","Telephone_TinCan.jpg","5"
"091219","12:38:02","19","19","5.0.14.0","2","104","trial1","naming","0","0","0","0","watch","0","1760","1","White_Screen.jpg","8","127","Watch.jpg","8"
"091219","12:38:02","19","19","5.0.14.0","2","105","trial1","naming","0","0","0","0","peach","0","3892","1","White_Screen.jpg","7","29","Peach.jpg","7"
"091219","12:38:02","19","19","5.0.14.0","2","106","trial1","naming","0","0","0","0","GAS CONTIANER","0","4870","1","White_Screen.jpg","7","73","Can_Gas.jpg","7"
"091219","12:38:02","19","19","5.0.14.0","2","107","trial1","naming","0","0","0","0","BUTTER CHURNER","0","5437","1","White_Screen.jpg","8","99","ButterChurn.jpg","8"
"091219","12:38:02","19","19","5.0.14.0","2","108","trial1","naming","0","0","0","0","4 LEAF CLVER","0","6582","1","White_Screen.jpg","11","70","Leaf_Clover.jpg","11"
"091219","12:38:02","19","19","5.0.14.0","2","109","trial1","naming","0","0","0","0"," boat","0","3248","1","White_Screen.jpg","6","158","Boat_Dinghy.jpg","6"
"091219","12:38:02","19","19","5.0.14.0","2","110","trial1","naming","0","0","0","0"," hooka","0","3907","1","White_Screen.jpg","8","120","Hookah.jpg","8"
"091219","12:38:02","19","19","5.0.14.0","2","111","trial1","naming","0","0","0","0","duffle bag","0","3074","1","White_Screen.jpg","7","26","Bag_Gym.jpg","7"
"091219","12:38:02","19","19","5.0.14.0","2","112","trial1","naming","0","0","0","0","life persever","0","3510","1","White_Screen.jpg","7","50","TubeRing.jpg","7"
"091219","12:38:02","19","19","5.0.14.0","2","113","trial1","naming","0","0","0","0","bottle","0","3288","1","White_Screen.jpg","8","186","SoapBottle.jpg","8"
"091219","12:38:02","19","19","5.0.14.0","2","114","trial1","naming","0","0","0","0","rack","0","2664","1","White_Screen.jpg","7","121","TowelRack_Metal.jpg","7"
"091219","12:38:02","19","19","5.0.14.0","2","115","trial1","naming","0","0","0","0","eraser","0","2360","1","White_Screen.jpg","7","192","Eraser.jpg","7"
"091219","12:38:02","19","19","5.0.14.0","2","116","trial1","naming","0","0","0","0","rocking chair","0","3263","1","White_Screen.jpg","8","173","Chair_Rocking.jpg","8"
"091219","12:38:02","19","19","5.0.14.0","2","117","trial1","naming","0","0","0","0","sand castle","0","3132","1","White_Screen.jpg","8","103","Sandcastle.jpg","8"
"091219","12:38:02","19","19","5.0.14.0","2","118","trial1","naming","0","0","0","0","paper","0","1865","1","White_Screen.jpg","5","98","OrigamiPaper.jpg","5"
"091219","12:38:02","19","19","5.0.14.0","2","119","trial1","naming","0","0","0","0","muffin","0","3391","1","White_Screen.jpg","8","34","EnglishMuffin.jpg","8"
"091219","12:38:02","19","19","5.0.14.0","2","120","trial1","naming","0","0","0","0","speed sign","0","3083","1","White_Screen.jpg","8","151","Sign_SpeedLimit30.jpg","8"
"091219","12:38:02","19","19","5.0.14.0","2","121","trial1","naming","0","0","0","0","desk","0","2639","1","White_Screen.jpg","6","40","Chair_Student.jpg","6"
"091219","12:38:02","19","19","5.0.14.0","2","122","trial1","naming","0","0","0","0","drum","0","2596","1","White_Screen.jpg","9","148","Drum_Ramadan.jpg","9"
"091219","12:38:02","19","19","5.0.14.0","2","123","trial1","naming","0","0","0","0","Ctrl+'B'","1","969","1","White_Screen.jpg","8","65","Glass_Bowl.jpg","8"
"091219","12:38:02","19","19","5.0.14.0","3","1","demographics_block","gender","0","0","0","0","Female","1","9113","0","0","0","0","0","0"
"091219","12:38:02","19","19","5.0.14.0","3","1","demographics_block","age","0","0","0","0","26","1","9113","0","0","0","0","0","0"
"091219","12:38:02","19","19","5.0.14.0","3","1","demographics_block","education","0","0","0","0","BA","1","9113","0","0","0","0","0","0"
"091219","12:38:02","19","19","5.0.14.0","3","2","demographics_block","left_right_handed","0","0","0","0","Left","1","6135","0","0","0","0","0","0"
"091219","12:38:02","19","19","5.0.14.0","3","2","demographics_block","raceoption1","0","0","0","0","0","1","6135","0","0","0","0","0","0"
"091219","12:38:02","19","19","5.0.14.0","3","2","demographics_block","raceoption2","0","0","0","0","","1","6135","0","0","0","0","0","0"
"091219","12:38:02","19","19","5.0.14.0","3","2","demographics_block","raceoption3","0","0","0","0","","1","6135","0","0","0","0","0","0"
"091219","12:38:02","19","19","5.0.14.0","3","2","demographics_block","raceoption4","0","0","0","0","","1","6135","0","0","0","0","0","0"
"091219","12:38:02","19","19","5.0.14.0","3","2","demographics_block","raceoption5","0","0","0","0","","1","6135","0","0","0","0","0","0"
"091219","12:38:02","19","19","5.0.14.0","3","2","demographics_block","raceoption6","0","0","0","0","","1","6135","0","0","0","0","0","0"
"091219","12:38:02","19","19","5.0.14.0","3","2","demographics_block","raceoption7","0","0","0","0","","1","6135","0","0","0","0","0","0"
"091219","12:38:02","19","19","5.0.14.0","3","2","demographics_block","raceoption8","0","0","0","0","","1","6135","0","0","0","0","0","0"
"091219","12:38:02","19","19","5.0.14.0","3","2","demographics_block","raceoption9","0","0","0","0","","1","6135","0","0","0","0","0","0"
"091219","12:38:02","19","19","5.0.14.0","3","2","demographics_block","raceother","0","0","0","0","","1","6135","0","0","0","0","0","0"
"091219","12:38:02","19","19","5.0.14.0","3","2","demographics_block","raceother","0","0","0","0","","1","6135","0","0","0","0","0","0"
"091219","12:38:02","19","19","5.0.14.0","3","2","demographics_block","english_language","0","0","0","0","Yes","1","6135","0","0","0","0","0","0"
"091219","12:38:02","19","19","5.0.14.0","3","2","demographics_block","english_languageother","0","0","0","0","","1","6135","0","0","0","0","0","0"
"091219","12:38:02","19","19","5.0.14.0","3","3","demographics_block","eyesight","0","0","0","0","Yes","1","3961","0","0","0","0","0","0"
"091219","12:38:02","19","19","5.0.14.0","3","3","demographics_block","colorblind","0","0","0","0","No","1","3961","0","0","0","0","0","0"
"091219","12:38:02","19","19","5.0.14.0","4","1","worker_id_block","worker_id_textbox","0","0","0","0","A12723JDRPT207","1","6378","0","0","0","0","0","0"
"date","time","group","subject","build","blocknum","trialnum","blockcode","trialcode","pretrialpause","posttrialpause","trialduration","trialtimeout","response","correct","latency","stimulusnumber1","stimulusitem1","stimulusonset1","stimulusnumber2","stimulusitem2","stimulusonset2"
"091219","11:38:09","20","20","5.0.14.0","2","1","trial1","naming","0","0","0","0","hot dog","0","9191","1","White_Screen.jpg","29","63","Hotdog_Weiner.jpg","29"
"091219","11:38:09","20","20","5.0.14.0","2","2","trial1","naming","0","0","0","0","celeri","0","5409","1","White_Screen.jpg","7","154","Celery.jpg","7"
"091219","11:38:09","20","20","5.0.14.0","2","3","trial1","naming","0","0","0","0","pickle","0","3843","1","White_Screen.jpg","5","104","Pickle.jpg","5"
"091219","11:38:09","20","20","5.0.14.0","2","4","trial1","naming","0","0","0","0","shamrock","0","4258","1","White_Screen.jpg","8","70","Leaf_Clover.jpg","8"
"091219","11:38:09","20","20","5.0.14.0","2","5","trial1","naming","0","0","0","0","bisquit","0","8308","1","White_Screen.jpg","5","34","EnglishMuffin.jpg","5"
"091219","11:38:09","20","20","5.0.14.0","2","6","trial1","naming","0","0","0","0","phone","0","4398","1","White_Screen.jpg","6","42","Phone_Public.jpg","6"
"091219","11:38:09","20","20","5.0.14.0","2","7","trial1","naming","0","0","0","0","parfume","0","5383","1","White_Screen.jpg","9","176","VialLab.jpg","9"
"091219","11:38:09","20","20","5.0.14.0","2","8","trial1","naming","0","0","0","0","water colors","0","4361","1","White_Screen.jpg","7","190","WaterColorPaintset.jpg","7"
"091219","11:38:09","20","20","5.0.14.0","2","9","trial1","naming","0","0","0","0","high heal","0","9421","1","White_Screen.jpg","7","123","Shoe_Pink.jpg","7"
"091219","11:38:09","20","20","5.0.14.0","2","10","trial1","naming","0","0","0","0","sand castle","0","4506","1","White_Screen.jpg","7","103","Sandcastle.jpg","7"
"091219","11:38:09","20","20","5.0.14.0","2","11","trial1","naming","0","0","0","0","cloth stand","0","4094","1","White_Screen.jpg","10","100","MannequinBust.jpg","10"
"091219","11:38:09","20","20","5.0.14.0","2","12","trial1","naming","0","0","0","0","bowl","0","2784","1","White_Screen.jpg","7","145","Ramekin.jpg","7"
"091219","11:38:09","20","20","5.0.14.0","2","13","trial1","naming","0","0","0","0","statue","0","2340","1","White_Screen.jpg","8","18","Statue_Cat.jpg","8"
"091219","11:38:09","20","20","5.0.14.0","2","14","trial1","naming","0","0","0","0","harp","0","2172","1","White_Screen.jpg","8","47","Harp.jpg","8"
"091219","11:38:09","20","20","5.0.14.0","2","15","trial1","naming","0","0","0","0","cabbage","0","2457","1","White_Screen.jpg","8","94","Lettuce_Iceberg.jpg","8"
"091219","11:38:09","20","20","5.0.14.0","2","16","trial1","naming","0","0","0","0","straw","0","3539","1","White_Screen.jpg","8","81","Tube.jpg","8"
"091219","11:38:09","20","20","5.0.14.0","2","17","trial1","naming","0","0","0","0","pencil","0","2137","1","White_Screen.jpg","8","5","Pencil.jpg","8"
"091219","11:38:09","20","20","5.0.14.0","2","18","trial1","naming","0","0","0","0","chain","0","2136","1","White_Screen.jpg","8","101","ChainRusty.jpg","8"
"091219","11:38:09","20","20","5.0.14.0","2","19","trial1","naming","0","0","0","0","chair","0","6294","1","White_Screen.jpg","10","61","Chair_MedicalToilet.jpg","10"
"091219","11:38:09","20","20","5.0.14.0","2","20","trial1","naming","0","0","0","0","pine tree","0","3227","1","White_Screen.jpg","11","7","Tree_Fir.jpg","11"
"091219","11:38:09","20","20","5.0.14.0","2","21","trial1","naming","0","0","0","0","pot pouri","0","4910","1","White_Screen.jpg","10","129","Pouch_PotPourri.jpg","10"
"091219","11:38:09","20","20","5.0.14.0","2","22","trial1","naming","0","0","0","0","fruit cup","0","4309","1","White_Screen.jpg","8","125","Cup_Fruits.jpg","8"
"091219","11:38:09","20","20","5.0.14.0","2","23","trial1","naming","0","0","0","0","gas tank","0","6124","1","White_Screen.jpg","8","11","Can_GasSpout.jpg","8"
"091219","11:38:09","20","20","5.0.14.0","2","24","trial1","naming","0","0","0","0","lentils","0","3448","1","White_Screen.jpg","7","89","PeasSplit.jpg","7"
"091219","11:38:09","20","20","5.0.14.0","2","25","trial1","naming","0","0","0","0","duffel bag","0","3002","1","White_Screen.jpg","7","26","Bag_Gym.jpg","7"
"091219","11:38:09","20","20","5.0.14.0","2","26","trial1","naming","0","0","0","0","shirt","0","2723","1","White_Screen.jpg","10","12","Shirt_SportsJersey.jpg","10"
"091219","11:38:09","20","20","5.0.14.0","2","27","trial1","naming","0","0","0","0","bottle","0","4854","1","White_Screen.jpg","7","27","Syrup_Maple.jpg","7"
"091219","11:38:09","20","20","5.0.14.0","2","28","trial1","naming","0","0","0","0","drum","0","2307","1","White_Screen.jpg","10","148","Drum_Ramadan.jpg","10"
"091219","11:38:09","20","20","5.0.14.0","2","29","trial1","naming","0","0","0","0","igloo","0","2334","1","White_Screen.jpg","8","184","Igloo.jpg","8"
"091219","11:38:09","20","20","5.0.14.0","2","30","trial1","naming","0","0","0","0","magnifying glass","0","4763","1","White_Screen.jpg","9","196","Magnifying_Glass.jpg","9"
"091219","11:38:09","20","20","5.0.14.0","2","31","trial1","naming","0","0","0","0","hookah","0","2849","1","White_Screen.jpg","7","120","Hookah.jpg","7"
"091219","11:38:09","20","20","5.0.14.0","2","32","trial1","naming","0","0","0","0","kiwi","0","2051","1","White_Screen.jpg","8","59","Kiwi.jpg","8"
"091219","11:38:09","20","20","5.0.14.0","2","33","trial1","naming","0","0","0","0","muppet","0","3325","1","White_Screen.jpg","9","79","MonkeyPuppet.jpg","9"
"091219","11:38:09","20","20","5.0.14.0","2","34","trial1","naming","0","0","0","0","witch","0","2750","1","White_Screen.jpg","7","160","Toy_Witch.jpg","7"
"091219","11:38:09","20","20","5.0.14.0","2","35","trial1","naming","0","0","0","0","topiari","0","4250","1","White_Screen.jpg","11","96","Shrub_Boxwood.jpg","11"
"091219","11:38:09","20","20","5.0.14.0","2","36","trial1","naming","0","0","0","0","snack box","0","5149","1","White_Screen.jpg","8","178","MouthGuard.jpg","8"
"091219","11:38:09","20","20","5.0.14.0","2","37","trial1","naming","0","0","0","0","hot dog","0","4280","1","White_Screen.jpg","9","114","Hotdog_WithBun.jpg","9"
"091219","11:38:09","20","20","5.0.14.0","2","38","trial1","naming","0","0","0","0","clock tower","0","3009","1","White_Screen.jpg","8","199","Steeple.jpg","8"
"091219","11:38:09","20","20","5.0.14.0","2","39","trial1","naming","0","0","0","0","sign","0","2558","1","White_Screen.jpg","7","77","Sign_Wetfloor.jpg","7"
"091219","11:38:09","20","20","5.0.14.0","2","40","trial1","naming","0","0","0","0","baseball bat","0","3508","1","White_Screen.jpg","6","87","Bat_Baseball.jpg","6"
"091219","11:38:09","20","20","5.0.14.0","2","41","trial1","naming","0","0","0","0","chicken wing","0","2811","1","White_Screen.jpg","8","193","Chicken_FriedWing.jpg","8"
"091219","11:38:09","20","20","5.0.14.0","2","42","trial1","naming","0","0","0","0","gas tank","0","2654","1","White_Screen.jpg","8","62","Jug_GallonRed.jpg","8"
"091219","11:38:09","20","20","5.0.14.0","2","43","trial1","naming","0","0","0","0","cage","0","3633","1","White_Screen.jpg","7","35","Cage_Bird.jpg","7"
"091219","11:38:09","20","20","5.0.14.0","2","44","trial1","naming","0","0","0","0","ammo","0","10000","1","White_Screen.jpg","9","139","Bullet.jpg","9"
"091219","11:38:09","20","20","5.0.14.0","2","45","trial1","naming","0","0","0","0","Enter Name","0","10000","1","White_Screen.jpg","7","92","Stove_WithOven.jpg","7"
"091219","11:38:09","20","20","5.0.14.0","2","46","trial1","naming","0","0","0","0","ticket","0","3139","1","White_Screen.jpg","10","172","Tickets_Blank.jpg","10"
"091219","11:38:09","20","20","5.0.14.0","2","47","trial1","naming","0","0","0","0","goggle","0","3764","1","White_Screen.jpg","8","74","Snorkle.jpg","8"
"091219","11:38:09","20","20","5.0.14.0","2","48","trial1","naming","0","0","0","0","goose","0","2367","1","White_Screen.jpg","8","137","Goose_Canadian.jpg","8"
"091219","11:38:09","20","20","5.0.14.0","2","49","trial1","naming","0","0","0","0","table","0","2083","1","White_Screen.jpg","12","43","Table_Side.jpg","12"
"091219","11:38:09","20","20","5.0.14.0","2","50","trial1","naming","0","0","0","0","cup measurings","0","5808","1","White_Screen.jpg","7","23","Spoons_MeasuringDetached.jpg","7"
"091219","11:38:09","20","20","5.0.14.0","2","52","trial1","naming","0","0","0","0","triangle","0","5403","1","White_Screen.jpg","7","8","Ruler_Triangle.jpg","7"
"091219","11:38:09","20","20","5.0.14.0","2","53","trial1","naming","0","0","0","0","lego cubesEnter Name","0","5714","1","White_Screen.jpg","11","88","Toys_Lego.jpg","11"
"091219","11:38:09","20","20","5.0.14.0","2","54","trial1","naming","0","0","0","0","statue","0","2816","1","White_Screen.jpg","9","20","Statue_Man.jpg","9"
"091219","11:38:09","20","20","5.0.14.0","2","55","trial1","naming","0","0","0","0","spray bottle","0","4797","1","White_Screen.jpg","8","174","Bottle_Spray.jpg","8"
"091219","11:38:09","20","20","5.0.14.0","2","56","trial1","naming","0","0","0","0","mirror","0","4023","1","White_Screen.jpg","8","2","Frame_Oval.jpg","8"
"091219","11:38:09","20","20","5.0.14.0","2","57","trial1","naming","0","0","0","0","figurine","0","3610","1","White_Screen.jpg","7","136","Ghost.jpg","7"
"091219","11:38:09","20","20","5.0.14.0","2","58","trial1","naming","0","0","0","0","condom","0","2551","1","White_Screen.jpg","6","187","Condom.jpg","6"
"091219","11:38:09","20","20","5.0.14.0","2","59","trial1","naming","0","0","0","0","engine","0","3268","1","White_Screen.jpg","7","107","AirCompressor.jpg","7"
"091219","11:38:09","20","20","5.0.14.0","2","60","trial1","naming","0","0","0","0","garlic","0","2724","1","White_Screen.jpg","8","10","Garlic_Clove.jpg","8"
"091219","11:38:09","20","20","5.0.14.0","2","61","trial1","naming","0","0","0","0","axe","0","1790","1","White_Screen.jpg","6","58","Axe.jpg","6"
"091219","11:38:09","20","20","5.0.14.0","2","62","trial1","naming","0","0","0","0","lens","0","5449","1","White_Screen.jpg","8","33","Lens_ColourFilter.jpg","8"
"091219","11:38:09","20","20","5.0.14.0","2","63","trial1","naming","0","0","0","0","grinder","0","4919","1","White_Screen.jpg","10","19","MeatGrinder.jpg","10"
"091219","11:38:09","20","20","5.0.14.0","2","64","trial1","naming","0","0","0","0","snow ball","0","3486","1","White_Screen.jpg","8","64","SnowGlobe.jpg","8"
"091219","11:38:09","20","20","5.0.14.0","2","65","trial1","naming","0","0","0","0","stamps","0","2296","1","White_Screen.jpg","7","85","PostageStamps.jpg","7"
"091219","11:38:09","20","20","5.0.14.0","2","66","trial1","naming","0","0","0","0","suitcase","0","3297","1","White_Screen.jpg","7","115","Suitcase.jpg","7"
"091219","11:38:09","20","20","5.0.14.0","2","67","trial1","naming","0","0","0","0","holder","0","2240","1","White_Screen.jpg","8","121","TowelRack_Metal.jpg","8"
"091219","11:38:09","20","20","5.0.14.0","2","68","trial1","naming","0","0","0","0","crane","0","3764","1","White_Screen.jpg","7","126","CraneMachine.jpg","7"
"091219","11:38:09","20","20","5.0.14.0","2","69","trial1","naming","0","0","0","0","street sign","0","5143","1","White_Screen.jpg","9","151","Sign_SpeedLimit30.jpg","9"
"091219","11:38:09","20","20","5.0.14.0","2","70","trial1","naming","0","0","0","0","holder","0","2940","1","White_Screen.jpg","8","24","Hook_Ceiling.jpg","8"
"091219","11:38:09","20","20","5.0.14.0","2","71","trial1","naming","0","0","0","0","school bus","0","2899","1","White_Screen.jpg","8","113","Bus_School.jpg","8"
"091219","11:38:09","20","20","5.0.14.0","2","72","trial1","naming","0","0","0","0","pies","0","2529","1","White_Screen.jpg","10","164","Can_Peas.jpg","10"
"091219","11:38:09","20","20","5.0.14.0","2","73","trial1","naming","0","0","0","0","wheel","0","4954","1","White_Screen.jpg","8","128","SpinningWheel.jpg","8"
"091219","11:38:09","20","20","5.0.14.0","2","74","trial1","naming","0","0","0","0","Enter Name","0","10000","1","White_Screen.jpg","10","49","Shield_Antique.jpg","10"
"091219","11:38:09","20","20","5.0.14.0","2","75","trial1","naming","0","0","0","0","eraser","0","2555","1","White_Screen.jpg","8","192","Eraser.jpg","8"
"091219","11:38:09","20","20","5.0.14.0","2","76","trial1","naming","0","0","0","0","tape recorder","0","3568","1","White_Screen.jpg","11","83","RecorderCassette.jpg","11"
"091219","11:38:09","20","20","5.0.14.0","2","77","trial1","naming","0","0","0","0","lacross bat","0","7795","1","White_Screen.jpg","11","166","Bat_Cricket.jpg","11"
"091219","11:38:09","20","20","5.0.14.0","2","78","trial1","naming","0","0","0","0","faucet","0","3232","1","White_Screen.jpg","7","175","PaintSprayer.jpg","7"
"091219","11:38:09","20","20","5.0.14.0","2","79","trial1","naming","0","0","0","0","chair","0","3002","1","White_Screen.jpg","7","66","Chair_Dining.jpg","7"
"091219","11:38:09","20","20","5.0.14.0","2","80","trial1","naming","0","0","0","0","broom","0","1891","1","White_Screen.jpg","10","75","Broom_Long.jpg","10"
"091219","11:38:09","20","20","5.0.14.0","2","81","trial1","naming","0","0","0","0","shoes","0","2975","1","White_Screen.jpg","9","117","Shoes_Pumps.jpg","9"
"091219","11:38:09","20","20","5.0.14.0","2","82","trial1","naming","0","0","0","0","stairs","0","2014","1","White_Screen.jpg","8","197","Staircase_Straight.jpg","8"
"091219","11:38:09","20","20","5.0.14.0","2","83","trial1","naming","0","0","0","0","butter maker","0","3680","1","White_Screen.jpg","8","99","ButterChurn.jpg","8"
"091219","11:38:09","20","20","5.0.14.0","2","84","trial1","naming","0","0","0","0","level m","0","10000","1","White_Screen.jpg","7","167","Level.jpg","7"
"091219","11:38:09","20","20","5.0.14.0","2","85","trial1","naming","0","0","0","0","remote ","0","5001","1","White_Screen.jpg","7","80","RemoteControl.jpg","7"
"091219","11:38:09","20","20","5.0.14.0","2","86","trial1","naming","0","0","0","0","whistle","0","4952","1","White_Screen.jpg","8","149","Noisemaker.jpg","8"
"091219","11:38:09","20","20","5.0.14.0","2","87","trial1","naming","0","0","0","0","hospital bed","0","5972","1","White_Screen.jpg","9","122","Bed_Hospital.jpg","9"
"091219","11:38:09","20","20","5.0.14.0","2","88","trial1","naming","0","0","0","0","play doh","0","3542","1","White_Screen.jpg","8","86","Playdoh.jpg","8"
"091219","11:38:09","20","20","5.0.14.0","2","89","trial1","naming","0","0","0","0","explosion","0","3635","1","White_Screen.jpg","9","38","Dynamite.jpg","9"
"091219","11:38:09","20","20","5.0.14.0","2","90","trial1","naming","0","0","0","0","umbrella","0","2405","1","White_Screen.jpg","10","93","Umbrella_Classic.jpg","10"
"091219","11:38:09","20","20","5.0.14.0","2","91","trial1","naming","0","0","0","0","dice","0","2652","1","White_Screen.jpg","7","147","FuzzyDice.jpg","7"
"091219","11:38:09","20","20","5.0.14.0","2","92","trial1","naming","0","0","0","0","scorpio","0","3580","1","White_Screen.jpg","9","46","Scorpion.jpg","9"
"091219","11:38:09","20","20","5.0.14.0","2","93","trial1","naming","0","0","0","0","chair","0","1987","1","White_Screen.jpg","6","40","Chair_Student.jpg","6"
"091219","11:38:09","20","20","5.0.14.0","2","94","trial1","naming","0","0","0","0","traffic light","0","3640","1","White_Screen.jpg","7","180","Light_Traffic.jpg","7"
"091219","11:38:09","20","20","5.0.14.0","2","95","trial1","naming","0","0","0","0","man","0","1756","1","White_Screen.jpg","6","112","Man.jpg","6"
"091219","11:38:09","20","20","5.0.14.0","2","96","trial1","naming","0","0","0","0","liquid soap","0","4336","1","White_Screen.jpg","8","186","SoapBottle.jpg","8"
"091219","11:38:09","20","20","5.0.14.0","2","97","trial1","naming","0","0","0","0","baby monitor","0","3484","1","White_Screen.jpg","9","21","BabyMonitor.jpg","9"
"091219","11:38:09","20","20","5.0.14.0","2","98","trial1","naming","0","0","0","0","ethernet cable","0","4783","1","White_Screen.jpg","7","69","Cord_Ethernet.jpg","7"
"091219","11:38:09","20","20","5.0.14.0","2","99","trial1","naming","0","0","0","0","steak","0","4153","1","White_Screen.jpg","8","191","MeatRaw.jpg","8"
"091219","11:38:09","20","20","5.0.14.0","2","100","trial1","naming","0","0","0","0","water bottle","0","3332","1","White_Screen.jpg","10","200","Bottle_Blue.jpg","10"
"091219","11:38:09","20","20","5.0.14.0","2","101","trial1","naming","0","0","0","0","wheel","0","6164","1","White_Screen.jpg","9","50","TubeRing.jpg","9"
"091219","11:38:09","20","20","5.0.14.0","2","103","trial1","naming","0","0","0","0","salt shaker","0","4214","1","White_Screen.jpg","6","102","SaltShaker.jpg","6"
"091219","11:38:09","20","20","5.0.14.0","2","104","trial1","naming","0","0","0","0","Enter Name","0","10000","1","White_Screen.jpg","9","140","CoolingFan_Engine2.jpg","9"
"091219","11:38:09","20","20","5.0.14.0","2","105","trial1","naming","0","0","0","0","Enter Ntwizzlerame","0","10000","1","White_Screen.jpg","14","132","Tweezers.jpg","14"
"091219","11:38:09","20","20","5.0.14.0","2","106","trial1","naming","0","0","0","0","sEnter Name","0","297","1","White_Screen.jpg","8","111","Vest.jpg","8"
"091219","11:38:09","20","20","5.0.14.0","2","107","trial1","naming","0","0","0","0","gutter pipe","0","6107","1","White_Screen.jpg","9","4","Pipe_Drain.jpg","9"
"091219","11:38:09","20","20","5.0.14.0","2","108","trial1","naming","0","0","0","0","gas tank","0","3922","1","White_Screen.jpg","7","73","Can_Gas.jpg","7"
"091219","11:38:09","20","20","5.0.14.0","2","109","trial1","naming","0","0","0","0","Enter Name","0","2470","1","White_Screen.jpg","9","188","Pipe_Pitch.jpg","9"
"091219","11:38:09","20","20","5.0.14.0","2","110","trial1","naming","0","0","0","0","IV","0","5202","1","White_Screen.jpg","7","60","Bag_Saline.jpg","7"
"091219","11:38:09","20","20","5.0.14.0","2","111","trial1","naming","0","0","0","0","hor","0","10000","1","White_Screen.jpg","7","91","RickShaw.jpg","7"
"091219","11:38:09","20","20","5.0.14.0","2","112","trial1","naming","0","0","0","0","brain ","0","5386","1","White_Screen.jpg","6","153","BrainSagittal.jpg","6"
"091219","11:38:09","20","20","5.0.14.0","2","113","trial1","naming","0","0","0","0","skirt","0","2467","1","White_Screen.jpg","7","182","Skirt_Long.jpg","7"
"091219","11:38:09","20","20","5.0.14.0","2","114","trial1","naming","0","0","0","0","tire","0","2438","1","White_Screen.jpg","7","48","Tire_Hollow.jpg","7"
"091219","11:38:09","20","20","5.0.14.0","2","115","trial1","naming","0","0","0","0","tea spoon","0","4401","1","White_Screen.jpg","7","32","Spoon_Baby.jpg","7"
"091219","11:38:09","20","20","5.0.14.0","2","116","trial1","naming","0","0","0","0","decoration","0","3619","1","White_Screen.jpg","8","130","Decoration_Chinese.jpg","8"
"091219","11:38:09","20","20","5.0.14.0","2","117","trial1","naming","0","0","0","0","washer","0","7710","1","White_Screen.jpg","7","168","DryingMachine.jpg","7"
"091219","11:38:09","20","20","5.0.14.0","2","118","trial1","naming","0","0","0","0","water","0","10000","1","White_Screen.jpg","8","119","Kettle.jpg","8"
"091219","11:38:09","20","20","5.0.14.0","2","119","trial1","naming","0","0","0","0","decoration","0","4639","1","White_Screen.jpg","6","53","Decoration_WallOrnament.jpg","6"
"091219","11:38:09","20","20","5.0.14.0","2","120","trial1","naming","0","0","0","0","peach","0","4216","1","White_Screen.jpg","8","29","Peach.jpg","8"
"091219","11:38:09","20","20","5.0.14.0","2","121","trial1","naming","0","0","0","0","water bottle","0","3928","1","White_Screen.jpg","9","82","Thermos_MetalSleek.jpg","9"
"091219","11:38:09","20","20","5.0.14.0","2","122","trial1","naming","0","0","0","0","Enter Name","0","10000","1","White_Screen.jpg","6","14","Hat_Visor.jpg","6"
"091219","11:38:09","20","20","5.0.14.0","2","123","trial1","naming","0","0","0","0","parachute","0","5253","1","White_Screen.jpg","6","134","Paratrooper.jpg","6"
"091219","11:38:09","20","20","5.0.14.0","2","124","trial1","naming","0","0","0","0","sign","0","2780","1","White_Screen.jpg","8","169","Sign_Airport.jpg","8"
"091219","11:38:09","20","20","5.0.14.0","2","125","trial1","naming","0","0","0","0","changing table","0","7953","1","White_Screen.jpg","8","118","DiaperChangingStation.jpg","8"
"091219","11:38:09","20","20","5.0.14.0","2","126","trial1","naming","0","0","0","0","dish brush","0","7475","1","White_Screen.jpg","7","15","Brush_Toilet.jpg","7"
"091219","11:38:09","20","20","5.0.14.0","2","127","trial1","naming","0","0","0","0","furniture","0","6024","1","White_Screen.jpg","7","31","Wardrobe.jpg","7"
"091219","11:38:09","20","20","5.0.14.0","2","128","trial1","naming","0","0","0","0","LCD TV\","0","4082","1","White_Screen.jpg","6","157","Television.jpg","6"
"091219","11:38:09","20","20","5.0.14.0","2","129","trial1","naming","0","0","0","0","Enter Name","0","10000","1","White_Screen.jpg","7","143","Steamroller.jpg","7"
"091219","11:38:09","20","20","5.0.14.0","2","130","trial1","naming","0","0","0","0","plant","0","5412","1","White_Screen.jpg","8","183","Dill.jpg","8"
"091219","11:38:09","20","20","5.0.14.0","2","131","trial1","naming","0","0","0","0","oil tank","0","3606","1","White_Screen.jpg","7","51","Can_Oblong.jpg","7"
"091219","11:38:09","20","20","5.0.14.0","2","132","trial1","naming","0","0","0","0","tape","0","3770","1","White_Screen.jpg","6","68","Tape_Dispenser.jpg","6"
"091219","11:38:09","20","20","5.0.14.0","2","133","trial1","naming","0","0","0","0","light","0","8140","1","White_Screen.jpg","9","170","DentistOverheadLight.jpg","9"
"091219","11:38:09","20","20","5.0.14.0","2","134","trial1","naming","0","0","0","0","lamp","0","5151","1","White_Screen.jpg","8","116","CandleSnuffer.jpg","8"
"091219","11:38:09","20","20","5.0.14.0","2","135","trial1","naming","0","0","0","0","horn","0","4411","1","White_Screen.jpg","8","177","Horn_Hunting.jpg","8"
"091219","11:38:09","20","20","5.0.14.0","2","136","trial1","naming","0","0","0","0","cow","0","3261","1","White_Screen.jpg","8","9","Cow.jpg","8"
"091219","11:38:09","20","20","5.0.14.0","2","137","trial1","naming","0","0","0","0","corn","0","2143","1","White_Screen.jpg","8","45","Corn_Kernels.jpg","8"
"091219","11:38:09","20","20","5.0.14.0","2","138","trial1","naming","0","0","0","0","skates","0","3383","1","White_Screen.jpg","7","52","Skates.jpg","7"
"091219","11:38:09","20","20","5.0.14.0","2","139","trial1","naming","0","0","0","0","figurine","0","3140","1","White_Screen.jpg","7","150","Sculpture_MetalMan.jpg","7"
"091219","11:38:09","20","20","5.0.14.0","2","140","trial1","naming","0","0","0","0","wheel","0","2042","1","White_Screen.jpg","7","189","Distaff.jpg","7"
"091219","11:38:09","20","20","5.0.14.0","2","141","trial1","naming","0","0","0","0","roller","0","5484","1","White_Screen.jpg","7","39","PaintRoller.jpg","7"
"091219","11:38:09","20","20","5.0.14.0","2","142","trial1","naming","0","0","0","0","boat","0","1923","1","White_Screen.jpg","7","78","Ship_Model.jpg","7"
"091219","11:38:09","20","20","5.0.14.0","2","143","trial1","naming","0","0","0","0","shoes","0","4154","1","White_Screen.jpg","8","108","Shoes_Sneakers.jpg","8"
"091219","11:38:09","20","20","5.0.14.0","2","144","trial1","naming","0","0","0","0","tool","0","2911","1","White_Screen.jpg","9","90","Clamp.jpg","9"
"091219","11:38:09","20","20","5.0.14.0","2","145","trial1","naming","0","0","0","0","wooden cap","0","5819","1","White_Screen.jpg","7","179","Plate_Wooden.jpg","7"
"091219","11:38:09","20","20","5.0.14.0","2","146","trial1","naming","0","0","0","0","boat","0","2337","1","White_Screen.jpg","7","158","Boat_Dinghy.jpg","7"
"091219","11:38:09","20","20","5.0.14.0","2","147","trial1","naming","0","0","0","0","hook","0","2776","1","White_Screen.jpg","7","22","Hook_Fishing.jpg","7"
"091219","11:38:09","20","20","5.0.14.0","2","148","trial1","naming","0","0","0","0","goggles","0","2398","1","White_Screen.jpg","6","171","GogglesSwim.jpg","6"
"091219","11:38:09","20","20","5.0.14.0","2","149","trial1","naming","0","0","0","0","onion","0","3035","1","White_Screen.jpg","6","142","Leek.jpg","6"
"091219","11:38:09","20","20","5.0.14.0","2","150","trial1","naming","0","0","0","0","ear tool","0","5851","1","White_Screen.jpg","9","195","Otoscope.jpg","9"
"091219","11:38:09","20","20","5.0.14.0","2","151","trial1","naming","0","0","0","0","knife holder","0","3174","1","White_Screen.jpg","6","163","KnifeHolder.jpg","6"
"091219","11:38:09","20","20","5.0.14.0","2","152","trial1","naming","0","0","0","0","cookies in a cookie jar","0","5642","1","White_Screen.jpg","7","198","Jar_Cookie.jpg","7"
"091219","11:38:09","20","20","5.0.14.0","2","154","trial1","naming","0","0","0","0","Enter Name","0","2072","1","White_Screen.jpg","7","57","Brace_Neck.jpg","7"
"091219","11:38:09","20","20","5.0.14.0","2","155","trial1","naming","0","0","0","0","honey","0","2995","1","White_Screen.jpg","6","67","Jar_Honey.jpg","6"
"091219","11:38:09","20","20","5.0.14.0","2","156","trial1","naming","0","0","0","0","horse figurine","0","4159","1","White_Screen.jpg","8","131","Toy_RockingHorseBeige.jpg","8"
"091219","11:38:09","20","20","5.0.14.0","2","157","trial1","naming","0","0","0","0","exercise tool","0","6731","1","White_Screen.jpg","8","146","Exercise_HandTrainer.jpg","8"
"091219","11:38:09","20","20","5.0.14.0","2","158","trial1","naming","0","0","0","0","onion rings","0","4246","1","White_Screen.jpg","8","161","OnionRings.jpg","8"
"091219","11:38:09","20","20","5.0.14.0","2","159","trial1","naming","0","0","0","0","hand grip","0","4856","1","White_Screen.jpg","7","3","BicycleHandleGrip.jpg","7"
"091219","11:38:09","20","20","5.0.14.0","2","160","trial1","naming","0","0","0","0","Enter Name","0","3376","1","White_Screen.jpg","7","155","Scoop_Flour.jpg","7"
"091219","11:38:09","20","20","5.0.14.0","2","161","trial1","naming","0","0","0","0","watch","0","6227","1","White_Screen.jpg","8","127","Watch.jpg","8"
"091219","11:38:09","20","20","5.0.14.0","2","162","trial1","naming","0","0","0","0","sign","0","3188","1","White_Screen.jpg","7","124","Sign_SpeedLimit25.jpg","7"
"091219","11:38:09","20","20","5.0.14.0","2","163","trial1","naming","0","0","0","0","bicycle seat","0","4344","1","White_Screen.jpg","8","17","BicycleSeat.jpg","8"
"091219","11:38:09","20","20","5.0.14.0","2","164","trial1","naming","0","0","0","0","Enter Name","0","1661","1","White_Screen.jpg","8","165","Backhoe.jpg","8"
"091219","11:38:09","20","20","5.0.14.0","2","165","trial1","naming","0","0","0","0","gas tank\","0","3543","1","White_Screen.jpg","8","56","Canister_Oil.jpg","8"
"091219","11:38:09","20","20","5.0.14.0","2","166","trial1","naming","0","0","0","0","lock","0","2941","1","White_Screen.jpg","8","36","Keyhole.jpg","8"
"091219","11:38:09","20","20","5.0.14.0","2","167","trial1","naming","0","0","0","0","egg holder","0","5141","1","White_Screen.jpg","6","37","Egg_Cup.jpg","6"
"091219","11:38:09","20","20","5.0.14.0","2","168","trial1","naming","0","0","0","0","feet","0","4368","1","White_Screen.jpg","7","194","Feet.jpg","7"
"091219","11:38:09","20","20","5.0.14.0","2","169","trial1","naming","0","0","0","0","sea horse","0","3643","1","White_Screen.jpg","8","55","Seahorse.jpg","8"
"091219","11:38:09","20","20","5.0.14.0","2","170","trial1","naming","0","0","0","0","bag of groceries","0","6294","1","White_Screen.jpg","7","133","Bag_Groceries.jpg","7"
"091219","11:38:09","20","20","5.0.14.0","2","171","trial1","naming","0","0","0","0","notebook","0","2995","1","White_Screen.jpg","7","106","Notebook.jpg","7"
"091219","11:38:09","20","20","5.0.14.0","2","172","trial1","naming","0","0","0","0","postix","0","5942","1","White_Screen.jpg","8","98","OrigamiPaper.jpg","8"
"091219","11:38:09","20","20","5.0.14.0","2","173","trial1","naming","0","0","0","0","grapes","0","2235","1","White_Screen.jpg","6","95","Grape.jpg","6"
"091219","11:38:09","20","20","5.0.14.0","2","174","trial1","naming","0","0","0","0","bowl","0","2308","1","White_Screen.jpg","10","65","Glass_Bowl.jpg","10"
"091219","11:38:09","20","20","5.0.14.0","2","175","trial1","naming","0","0","0","0","boat","0","4087","1","White_Screen.jpg","7","44","Boat_Row.jpg","7"
"091219","11:38:09","20","20","5.0.14.0","2","176","trial1","naming","0","0","0","0","flower","0","2436","1","White_Screen.jpg","10","185","Flower_Daisy.jpg","10"
"091219","11:38:09","20","20","5.0.14.0","2","177","trial1","naming","0","0","0","0","stroller","0","2682","1","White_Screen.jpg","7","25","Stroller.jpg","7"
"091219","11:38:09","20","20","5.0.14.0","2","178","trial1","naming","0","0","0","0","lipstick","0","3714","1","White_Screen.jpg","8","41","Lipstick.jpg","8"
"091219","11:38:09","20","20","5.0.14.0","2","179","trial1","naming","0","0","0","0","gardening tool","0","4475","1","White_Screen.jpg","6","162","Trowel.jpg","6"
"091219","11:38:09","20","20","5.0.14.0","2","180","trial1","naming","0","0","0","0","roller scates","0","4242","1","White_Screen.jpg","7","54","RollerBlade.jpg","7"
"091219","11:38:09","20","20","5.0.14.0","2","181","trial1","naming","0","0","0","0","head phones","0","4947","1","White_Screen.jpg","7","141","Headset.jpg","7"
"091219","11:38:09","20","20","5.0.14.0","2","182","trial1","naming","0","0","0","0","boat","0","2397","1","White_Screen.jpg","9","159","Boat_Trailer.jpg","9"
"091219","11:38:09","20","20","5.0.14.0","2","183","trial1","naming","0","0","0","0","newpaper","0","3044","1","White_Screen.jpg","7","181","NewspaperStack.jpg","7"
"091219","11:38:09","20","20","5.0.14.0","2","184","trial1","naming","0","0","0","0","cans","0","5015","1","White_Screen.jpg","6","144","Telephone_TinCan.jpg","6"
"091219","11:38:09","20","20","5.0.14.0","2","185","trial1","naming","0","0","0","0","glass","0","4377","1","White_Screen.jpg","6","156","Mug_Beer.jpg","6"
"091219","11:38:09","20","20","5.0.14.0","2","186","trial1","naming","0","0","0","0","spray tool","0","4466","1","White_Screen.jpg","9","105","HoseNozzle.jpg","9"
"091219","11:38:09","20","20","5.0.14.0","2","187","trial1","naming","0","0","0","0","eye shaddows","0","8501","1","White_Screen.jpg","6","71","Makeup_Eyeshadow.jpg","6"
"091219","11:38:09","20","20","5.0.14.0","2","188","trial1","naming","0","0","0","0","plates","0","3005","1","White_Screen.jpg","8","72","Plate_Decorative.jpg","8"
"091219","11:38:09","20","20","5.0.14.0","2","189","trial1","naming","0","0","0","0","razor'","0","3700","1","White_Screen.jpg","6","84","Razor.jpg","6"
"091219","11:38:09","20","20","5.0.14.0","2","190","trial1","naming","0","0","0","0","mother board","0","3681","1","White_Screen.jpg","8","16","Computer_ExpansionCard.jpg","8"
"091219","11:38:09","20","20","5.0.14.0","2","191","trial1","naming","0","0","0","0","wine glass","0","3482","1","White_Screen.jpg","7","28","Glass_Martini.jpg","7"
"091219","11:38:09","20","20","5.0.14.0","2","192","trial1","naming","0","0","0","0","eggs","0","3202","1","White_Screen.jpg","7","30","CartonEggs.jpg","7"
"091219","11:38:09","20","20","5.0.14.0","2","193","trial1","naming","0","0","0","0","hamster","0","3108","1","White_Screen.jpg","10","76","GuineaPig.jpg","10"
"091219","11:38:09","20","20","5.0.14.0","2","194","trial1","naming","0","0","0","0","bottle","0","1982","1","White_Screen.jpg","7","109","Glass_bottle.jpg","7"
"091219","11:38:09","20","20","5.0.14.0","2","195","trial1","naming","0","0","0","0","jar","0","2757","1","White_Screen.jpg","6","1","Barrel_Upright.jpg","6"
"091219","11:38:09","20","20","5.0.14.0","2","196","trial1","naming","0","0","0","0","chair","0","2520","1","White_Screen.jpg","9","173","Chair_Rocking.jpg","9"
"091219","11:38:09","20","20","5.0.14.0","2","197","trial1","naming","0","0","0","0","ass","0","2009","1","White_Screen.jpg","7","135","Toy_DonkeyPlastic.jpg","7"
"091219","11:38:09","20","20","5.0.14.0","2","198","trial1","naming","0","0","0","0","stones","0","4568","1","White_Screen.jpg","7","152","Stone_Spa.jpg","7"
"091219","11:38:09","20","20","5.0.14.0","2","199","trial1","naming","0","0","0","0","counting machine","0","4219","1","White_Screen.jpg","6","13","CashRegister_Antique.jpg","6"
"091219","11:38:09","20","20","5.0.14.0","2","200","trial1","naming","0","0","0","0","Enter Name","0","10000","1","White_Screen.jpg","6","6","PropellerFan.jpg","6"
"091219","11:38:09","20","20","5.0.14.0","2","201","trial1","naming","0","0","0","0","Enter Name","0","10000","1","White_Screen.jpg","8","110","Pasta_Fusilli.jpg","8"
"091219","11:38:09","20","20","5.0.14.0","2","202","trial1","naming","0","0","0","0","brush","0","7070","1","White_Screen.jpg","8","138","Brush_Paint.jpg","8"
"091219","11:38:09","20","20","5.0.14.0","2","203","trial1","naming","0","0","0","0","cloth","0","7060","1","White_Screen.jpg","7","97","Suit_Women.jpg","7"
"091219","11:38:09","20","20","5.0.14.0","3","1","demographics_block","gender","0","0","0","0","female","1","10117","0","0","0","0","0","0"
"091219","11:38:09","20","20","5.0.14.0","3","1","demographics_block","age","0","0","0","0","43","1","10117","0","0","0","0","0","0"
"091219","11:38:09","20","20","5.0.14.0","3","1","demographics_block","education","0","0","0","0","18","1","10117","0","0","0","0","0","0"
"091219","11:38:09","20","20","5.0.14.0","3","2","demographics_block","left_right_handed","0","0","0","0","Right","1","6007","0","0","0","0","0","0"
"091219","11:38:09","20","20","5.0.14.0","3","2","demographics_block","raceoption1","0","0","0","0","0","1","6007","0","0","0","0","0","0"
"091219","11:38:09","20","20","5.0.14.0","3","2","demographics_block","raceoption2","0","0","0","0","","1","6007","0","0","0","0","0","0"
"091219","11:38:09","20","20","5.0.14.0","3","2","demographics_block","raceoption3","0","0","0","0","","1","6007","0","0","0","0","0","0"
"091219","11:38:09","20","20","5.0.14.0","3","2","demographics_block","raceoption4","0","0","0","0","","1","6007","0","0","0","0","0","0"
"091219","11:38:09","20","20","5.0.14.0","3","2","demographics_block","raceoption5","0","0","0","0","","1","6007","0","0","0","0","0","0"
"091219","11:38:09","20","20","5.0.14.0","3","2","demographics_block","raceoption6","0","0","0","0","","1","6007","0","0","0","0","0","0"
"091219","11:38:09","20","20","5.0.14.0","3","2","demographics_block","raceoption7","0","0","0","0","","1","6007","0","0","0","0","0","0"
"091219","11:38:09","20","20","5.0.14.0","3","2","demographics_block","raceoption8","0","0","0","0","","1","6007","0","0","0","0","0","0"
"091219","11:38:09","20","20","5.0.14.0","3","2","demographics_block","raceoption9","0","0","0","0","","1","6007","0","0","0","0","0","0"
"091219","11:38:09","20","20","5.0.14.0","3","2","demographics_block","raceother","0","0","0","0","","1","6007","0","0","0","0","0","0"
"091219","11:38:09","20","20","5.0.14.0","3","2","demographics_block","raceother","0","0","0","0","","1","6007","0","0","0","0","0","0"
"091219","11:38:09","20","20","5.0.14.0","3","2","demographics_block","english_language","0","0","0","0","Yes","1","6007","0","0","0","0","0","0"
"091219","11:38:09","20","20","5.0.14.0","3","2","demographics_block","english_languageother","0","0","0","0","","1","6007","0","0","0","0","0","0"
"091219","11:38:09","20","20","5.0.14.0","3","3","demographics_block","eyesight","0","0","0","0","Yes","1","4246","0","0","0","0","0","0"
"091219","11:38:09","20","20","5.0.14.0","3","3","demographics_block","colorblind","0","0","0","0","No","1","4246","0","0","0","0","0","0"
"091219","11:38:09","20","20","5.0.14.0","4","1","worker_id_block","worker_id_textbox","0","0","0","0"," |","1","17283","0","0","0","0","0","0"
"date","time","group","subject","build","blocknum","trialnum","blockcode","trialcode","pretrialpause","posttrialpause","trialduration","trialtimeout","response","correct","latency","stimulusnumber1","stimulusitem1","stimulusonset1","stimulusnumber2","stimulusitem2","stimulusonset2"
"091219","12:57:54","21","21","5.0.14.0","2","1","trial1","naming","0","0","0","0","plantEnter Name","0","5987","1","White_Screen.jpg","28","96","Shrub_Boxwood.jpg","28"
"091219","12:57:54","21","21","5.0.14.0","2","2","trial1","naming","0","0","0","0","iglooEnter Name","0","4438","1","White_Screen.jpg","4","184","Igloo.jpg","4"
"091219","12:57:54","21","21","5.0.14.0","2","3","trial1","naming","0","0","0","0","mother boarEnter Name","0","5603","1","White_Screen.jpg","4","16","Computer_ExpansionCard.jpg","4"
"091219","12:57:54","21","21","5.0.14.0","2","4","trial1","naming","0","0","0","0","sun visorEnter Name","0","4519","1","White_Screen.jpg","6","14","Hat_Visor.jpg","6"
"091219","12:57:54","21","21","5.0.14.0","2","5","trial1","naming","0","0","0","0","wooden boEnter Name","0","7281","1","White_Screen.jpg","4","179","Plate_Wooden.jpg","4"
"091219","12:57:54","21","21","5.0.14.0","2","6","trial1","naming","0","0","0","0","tape playerEnter Name","0","3761","1","White_Screen.jpg","4","83","RecorderCassette.jpg","4"
"091219","12:57:54","21","21","5.0.14.0","2","7","trial1","naming","0","0","0","0","inline skateEnter Name","0","5639","1","White_Screen.jpg","5","54","RollerBlade.jpg","5"
"091219","12:57:54","21","21","5.0.14.0","2","8","trial1","naming","0","0","0","0","drainage gutEnter Name","0","7551","1","White_Screen.jpg","4","4","Pipe_Drain.jpg","4"
"091219","12:57:54","21","21","5.0.14.0","2","9","trial1","naming","0","0","0","0","cowEnter Name","0","2164","1","White_Screen.jpg","5","9","Cow.jpg","5"
"091219","12:57:54","21","21","5.0.14.0","2","10","trial1","naming","0","0","0","0","furry diceEnter Name","0","3813","1","White_Screen.jpg","4","147","FuzzyDice.jpg","4"
"091219","12:57:54","21","21","5.0.14.0","2","11","trial1","naming","0","0","0","0","lettuceEnter Name","0","3629","1","White_Screen.jpg","4","94","Lettuce_Iceberg.jpg","4"
"091219","12:57:54","21","21","5.0.14.0","2","12","trial1","naming","0","0","0","0","paint brushEnter Name","0","3555","1","White_Screen.jpg","5","138","Brush_Paint.jpg","5"
"091219","12:57:54","21","21","5.0.14.0","2","13","trial1","naming","0","0","0","0","suitEnter Name","0","3619","1","White_Screen.jpg","4","97","Suit_Women.jpg","4"
"091219","12:57:54","21","21","5.0.14.0","2","14","trial1","naming","0","0","0","0","aiport aheadEnter Name","0","7641","1","White_Screen.jpg","4","169","Sign_Airport.jpg","4"
"091219","12:57:54","21","21","5.0.14.0","2","15","trial1","naming","0","0","0","0","honey jarEnter Name","0","4991","1","White_Screen.jpg","4","67","Jar_Honey.jpg","4"
"091219","12:57:54","21","21","5.0.14.0","2","16","trial1","naming","0","0","0","0","dynomiteEnter Name","0","5027","1","White_Screen.jpg","4","38","Dynamite.jpg","4"
"091219","12:57:54","21","21","5.0.14.0","2","17","trial1","naming","0","0","0","0","long skirtEnter Name","0","5529","1","White_Screen.jpg","4","182","Skirt_Long.jpg","4"
"091219","12:57:54","21","21","5.0.14.0","2","18","trial1","naming","0","0","0","0","colored papEnter Name","0","7057","1","White_Screen.jpg","4","98","OrigamiPaper.jpg","4"
"091219","12:57:54","21","21","5.0.14.0","2","19","trial1","naming","0","0","0","0","leaf wall hanEnter Name","0","8479","1","White_Screen.jpg","4","53","Decoration_WallOrnament.jpg","4"
"091219","12:57:54","21","21","5.0.14.0","2","20","trial1","naming","0","0","0","0","tasselEnter Name","0","5534","1","White_Screen.jpg","4","130","Decoration_Chinese.jpg","4"
"091219","12:57:54","21","21","5.0.14.0","2","21","trial1","naming","0","0","0","0","subba maskEnter Name","0","5767","1","White_Screen.jpg","4","74","Snorkle.jpg","4"
"091219","12:57:54","21","21","5.0.14.0","2","22","trial1","naming","0","0","0","0","bottleEnter Name","0","3419","1","White_Screen.jpg","4","109","Glass_bottle.jpg","4"
"091219","12:57:54","21","21","5.0.14.0","2","23","trial1","naming","0","0","0","0","mini woode Enter Name","0","7212","1","White_Screen.jpg","4","78","Ship_Model.jpg","4"
"091219","12:57:54","21","21","5.0.14.0","2","24","trial1","naming","0","0","0","0","headphonesEnter Name","0","5946","1","White_Screen.jpg","4","141","Headset.jpg","4"
"091219","12:57:54","21","21","5.0.14.0","2","25","trial1","naming","0","0","0","0","ski boatEnter Name","0","4630","1","White_Screen.jpg","4","159","Boat_Trailer.jpg","4"
"091219","12:57:54","21","21","5.0.14.0","2","26","trial1","naming","0","0","0","0","syrupEnter Name","0","4893","1","White_Screen.jpg","4","27","Syrup_Maple.jpg","4"
"091219","12:57:54","21","21","5.0.14.0","2","27","trial1","naming","0","0","0","0","dress manaiEnter Name","0","7427","1","White_Screen.jpg","4","100","MannequinBust.jpg","4"
"091219","12:57:54","21","21","5.0.14.0","2","28","trial1","naming","0","0","0","0","magnjify glaEnter Name","0","9611","1","White_Screen.jpg","4","196","Magnifying_Glass.jpg","4"
"091219","12:57:54","21","21","5.0.14.0","2","29","trial1","naming","0","0","0","0","casserole diEnter Name","0","7020","1","White_Screen.jpg","4","145","Ramekin.jpg","4"
"091219","12:57:54","21","21","5.0.14.0","2","30","trial1","naming","0","0","0","0","high heal shEnter Name","0","5839","1","White_Screen.jpg","4","123","Shoe_Pink.jpg","4"
"091219","12:57:54","21","21","5.0.14.0","2","31","trial1","naming","0","0","0","0","poached eg Enter Name","0","5862","1","White_Screen.jpg","4","37","Egg_Cup.jpg","4"
"091219","12:57:54","21","21","5.0.14.0","2","32","trial1","naming","0","0","0","0","6 eggsEnter Name","0","3911","1","White_Screen.jpg","4","30","CartonEggs.jpg","4"
"091219","12:57:54","21","21","5.0.14.0","2","33","trial1","naming","0","0","0","0","Enter Name","0","8360","1","White_Screen.jpg","5","57","Brace_Neck.jpg","5"
"091219","12:57:54","21","21","5.0.14.0","2","34","trial1","naming","0","0","0","0","celeryEnter Name","0","3376","1","White_Screen.jpg","4","154","Celery.jpg","4"
"091219","12:57:54","21","21","5.0.14.0","2","35","trial1","naming","0","0","0","0","grapesEnter Name","0","3043","1","White_Screen.jpg","4","95","Grape.jpg","4"
"091219","12:57:54","21","21","5.0.14.0","2","36","trial1","naming","0","0","0","0","english muffEnter Name","0","7610","1","White_Screen.jpg","5","34","EnglishMuffin.jpg","5"
"091219","12:57:54","21","21","5.0.14.0","2","37","trial1","naming","0","0","0","0","don't knowEnter Name","0","4775","1","White_Screen.jpg","4","120","Hookah.jpg","4"
"091219","12:57:54","21","21","5.0.14.0","2","38","trial1","naming","0","0","0","0","fresh garlicEnter Name","0","8016","1","White_Screen.jpg","4","10","Garlic_Clove.jpg","4"
"091219","12:57:54","21","21","5.0.14.0","2","39","trial1","naming","0","0","0","0","football jearEnter Name","0","8726","1","White_Screen.jpg","4","12","Shirt_SportsJersey.jpg","4"
"091219","12:57:54","21","21","5.0.14.0","2","40","trial1","naming","0","0","0","0","snow globeEnter Name","0","3773","1","White_Screen.jpg","4","64","SnowGlobe.jpg","4"
"091219","12:57:54","21","21","5.0.14.0","2","41","trial1","naming","0","0","0","0","ornate mirroEnter Name","0","6746","1","White_Screen.jpg","4","2","Frame_Oval.jpg","4"
"091219","12:57:54","21","21","5.0.14.0","2","42","trial1","naming","0","0","0","0","erasureEnter Name","0","2941","1","White_Screen.jpg","4","192","Eraser.jpg","4"
"091219","12:57:54","21","21","5.0.14.0","2","43","trial1","naming","0","0","0","0","hospital bedEnter Name","0","5110","1","White_Screen.jpg","4","122","Bed_Hospital.jpg","4"
"091219","12:57:54","21","21","5.0.14.0","2","44","trial1","naming","0","0","0","0","potpoureeEnter Name","0","7488","1","White_Screen.jpg","4","129","Pouch_PotPourri.jpg","4"
"091219","12:57:54","21","21","5.0.14.0","2","45","trial1","naming","0","0","0","0","school busEnter Name","0","3580","1","White_Screen.jpg","4","113","Bus_School.jpg","4"
"091219","12:57:54","21","21","5.0.14.0","2","46","trial1","naming","0","0","0","0","hobby horseEnter Name","0","4708","1","White_Screen.jpg","4","131","Toy_RockingHorseBeige.jpg","4"
"091219","12:57:54","21","21","5.0.14.0","2","47","trial1","naming","0","0","0","0","jar of cookieEnter Name","0","3910","1","White_Screen.jpg","4","198","Jar_Cookie.jpg","4"
"091219","12:57:54","21","21","5.0.14.0","2","48","trial1","naming","0","0","0","0","appleEnter Name","0","1862","1","White_Screen.jpg","5","29","Peach.jpg","5"
"091219","12:57:54","21","21","5.0.14.0","2","49","trial1","naming","0","0","0","0","old cash regEnter Name","0","5732","1","White_Screen.jpg","4","13","CashRegister_Antique.jpg","4"
"091219","12:57:54","21","21","5.0.14.0","2","50","trial1","naming","0","0","0","0","baseball batEnter Name","0","4403","1","White_Screen.jpg","5","87","Bat_Baseball.jpg","5"
"091219","12:57:54","21","21","5.0.14.0","2","52","trial1","naming","0","0","0","0","ticketsEnter Name","0","4801","1","White_Screen.jpg","4","172","Tickets_Blank.jpg","4"
"091219","12:57:54","21","21","5.0.14.0","2","53","trial1","naming","0","0","0","0","rubber raftEnter Name","0","5709","1","White_Screen.jpg","5","158","Boat_Dinghy.jpg","5"
"091219","12:57:54","21","21","5.0.14.0","2","54","trial1","naming","0","0","0","0","dripEnter Name","0","3570","1","White_Screen.jpg","4","60","Bag_Saline.jpg","4"
"091219","12:57:54","21","21","5.0.14.0","2","55","trial1","naming","0","0","0","0","rubberEnter Name","0","2827","1","White_Screen.jpg","4","187","Condom.jpg","4"
"091219","12:57:54","21","21","5.0.14.0","2","56","trial1","naming","0","0","0","0","strollerEnter Name","0","3725","1","White_Screen.jpg","5","25","Stroller.jpg","5"
"091219","12:57:54","21","21","5.0.14.0","2","57","trial1","naming","0","0","0","0","christmas trEnter Name","0","4091","1","White_Screen.jpg","5","7","Tree_Fir.jpg","5"
"091219","12:57:54","21","21","5.0.14.0","2","58","trial1","naming","0","0","0","0","remote contEnter Name","0","4200","1","White_Screen.jpg","4","80","RemoteControl.jpg","4"
"091219","12:57:54","21","21","5.0.14.0","2","59","trial1","naming","0","0","0","0","gas canEnter Name","0","3672","1","White_Screen.jpg","4","62","Jug_GallonRed.jpg","4"
"091219","12:57:54","21","21","5.0.14.0","2","60","trial1","naming","0","0","0","0","umbrellaEnter Name","0","3389","1","White_Screen.jpg","4","93","Umbrella_Classic.jpg","4"
"091219","12:57:54","21","21","5.0.14.0","2","61","trial1","naming","0","0","0","0","chainEnter Name","0","3579","1","White_Screen.jpg","4","101","ChainRusty.jpg","4"
"091219","12:57:54","21","21","5.0.14.0","2","62","trial1","naming","0","0","0","0","gas canEnter Name","0","6842","1","White_Screen.jpg","4","11","Can_GasSpout.jpg","4"
"091219","12:57:54","21","21","5.0.14.0","2","63","trial1","naming","0","0","0","0","glass bowlEnter Name","0","3553","1","White_Screen.jpg","4","65","Glass_Bowl.jpg","4"
"091219","12:57:54","21","21","5.0.14.0","2","64","trial1","naming","0","0","0","0","gripsEnter Name","0","4770","1","White_Screen.jpg","4","3","BicycleHandleGrip.jpg","4"
"091219","12:57:54","21","21","5.0.14.0","2","65","trial1","naming","0","0","0","0","spinning whEnter Name","0","4854","1","White_Screen.jpg","4","128","SpinningWheel.jpg","4"
"091219","12:57:54","21","21","5.0.14.0","2","66","trial1","naming","0","0","0","0","tableEnter Name","0","2017","1","White_Screen.jpg","4","43","Table_Side.jpg","4"
"091219","12:57:54","21","21","5.0.14.0","2","67","trial1","naming","0","0","0","0","life raftEnter Name","0","6573","1","White_Screen.jpg","4","50","TubeRing.jpg","4"
"091219","12:57:54","21","21","5.0.14.0","2","68","trial1","naming","0","0","0","0","compressorEnter Name","0","4124","1","White_Screen.jpg","4","107","AirCompressor.jpg","4"
"091219","12:57:54","21","21","5.0.14.0","2","69","trial1","naming","0","0","0","0","green onionEnter Name","0","6808","1","White_Screen.jpg","4","142","Leek.jpg","4"
"091219","12:57:54","21","21","5.0.14.0","2","70","trial1","naming","0","0","0","0","english peaEnter Name","0","5115","1","White_Screen.jpg","4","164","Can_Peas.jpg","4"
"091219","12:57:54","21","21","5.0.14.0","2","71","trial1","naming","0","0","0","0","spoonEnter Name","0","2267","1","White_Screen.jpg","4","32","Spoon_Baby.jpg","4"
"091219","12:57:54","21","21","5.0.14.0","2","72","trial1","naming","0","0","0","0","paint rollerEnter Name","0","6305","1","White_Screen.jpg","4","39","PaintRoller.jpg","4"
"091219","12:57:54","21","21","5.0.14.0","2","73","trial1","naming","0","0","0","0","speed limit iEnter Name","0","4882","1","White_Screen.jpg","4","151","Sign_SpeedLimit30.jpg","4"
"091219","12:57:54","21","21","5.0.14.0","2","74","trial1","naming","0","0","0","0","stampsEnter Name","0","2821","1","White_Screen.jpg","4","85","PostageStamps.jpg","4"
"091219","12:57:54","21","21","5.0.14.0","2","75","trial1","naming","0","0","0","0","cornEnter Name","0","1641","1","White_Screen.jpg","4","45","Corn_Kernels.jpg","4"
"091219","12:57:54","21","21","5.0.14.0","2","76","trial1","naming","0","0","0","0","metal gas cEnter Name","0","5832","1","White_Screen.jpg","5","56","Canister_Oil.jpg","5"
"091219","12:57:54","21","21","5.0.14.0","2","77","trial1","naming","0","0","0","0","rollerEnter Name","0","10000","1","White_Screen.jpg","5","143","Steamroller.jpg","5"
"091219","12:57:54","21","21","5.0.14.0","2","78","trial1","naming","0","0","0","0","Enter Name","0","12","1","White_Screen.jpg","4","89","PeasSplit.jpg","4"
"091219","12:57:54","21","21","5.0.14.0","2","79","trial1","naming","0","0","0","0","razorEnter Name","0","2617","1","White_Screen.jpg","4","84","Razor.jpg","4"
"091219","12:57:54","21","21","5.0.14.0","2","80","trial1","naming","0","0","0","0","churnEnter Name","0","4905","1","White_Screen.jpg","4","19","MeatGrinder.jpg","4"
"091219","12:57:54","21","21","5.0.14.0","2","81","trial1","naming","0","0","0","0","hand gripsEnter Name","0","4045","1","White_Screen.jpg","4","146","Exercise_HandTrainer.jpg","4"
"091219","12:57:54","21","21","5.0.14.0","2","82","trial1","naming","0","0","0","0","levelerEnter Name","0","3784","1","White_Screen.jpg","5","167","Level.jpg","5"
"091219","12:57:54","21","21","5.0.14.0","2","83","trial1","naming","0","0","0","0","glass mugEnter Name","0","3994","1","White_Screen.jpg","4","156","Mug_Beer.jpg","4"
"091219","12:57:54","21","21","5.0.14.0","2","84","trial1","naming","0","0","0","0","marionetEnter Name","0","7470","1","White_Screen.jpg","5","79","MonkeyPuppet.jpg","5"
"091219","12:57:54","21","21","5.0.14.0","2","85","trial1","naming","0","0","0","0","paints trayEnter Name","0","4350","1","White_Screen.jpg","4","190","WaterColorPaintset.jpg","4"
"091219","12:57:54","21","21","5.0.14.0","2","86","trial1","naming","0","0","0","0","phoneEnter Name","0","6999","1","White_Screen.jpg","4","42","Phone_Public.jpg","4"
"091219","12:57:54","21","21","5.0.14.0","2","87","trial1","naming","0","0","0","0","stoveEnter Name","0","2754","1","White_Screen.jpg","5","92","Stove_WithOven.jpg","5"
"091219","12:57:54","21","21","5.0.14.0","2","88","trial1","naming","0","0","0","0","mailing tapeEnter Name","0","9595","1","White_Screen.jpg","4","68","Tape_Dispenser.jpg","4"
"091219","12:57:54","21","21","5.0.14.0","2","89","trial1","naming","0","0","0","0","feetEnter Name","0","2705","1","White_Screen.jpg","4","194","Feet.jpg","4"
"091219","12:57:54","21","21","5.0.14.0","2","90","trial1","naming","0","0","0","0","changing talEnter Name","0","4939","1","White_Screen.jpg","4","118","DiaperChangingStation.jpg","4"
"091219","12:57:54","21","21","5.0.14.0","2","91","trial1","naming","0","0","0","0","steepleEnter Name","0","2478","1","White_Screen.jpg","4","199","Steeple.jpg","4"
"091219","12:57:54","21","21","5.0.14.0","2","92","trial1","naming","0","0","0","0","wine glassEnter Name","0","8026","1","White_Screen.jpg","4","28","Glass_Martini.jpg","4"
"091219","12:57:54","21","21","5.0.14.0","2","93","trial1","naming","0","0","0","0","groceriesEnter Name","0","3954","1","White_Screen.jpg","4","133","Bag_Groceries.jpg","4"
"091219","12:57:54","21","21","5.0.14.0","2","94","trial1","naming","0","0","0","0","rubber tubeEnter Name","0","4487","1","White_Screen.jpg","4","81","Tube.jpg","4"
"091219","12:57:54","21","21","5.0.14.0","2","95","trial1","naming","0","0","0","0","tweezersEnter Name","0","4484","1","White_Screen.jpg","4","132","Tweezers.jpg","4"
"091219","12:57:54","21","21","5.0.14.0","2","96","trial1","naming","0","0","0","0","bick seatEnter Name","0","5840","1","White_Screen.jpg","4","17","BicycleSeat.jpg","4"
"091219","12:57:54","21","21","5.0.14.0","2","97","trial1","naming","0","0","0","0","notebookEnter Name","0","2837","1","White_Screen.jpg","4","106","Notebook.jpg","4"
"091219","12:57:54","21","21","5.0.14.0","2","98","trial1","naming","0","0","0","0","tvEnter Name","0","3179","1","White_Screen.jpg","4","157","Television.jpg","4"
"091219","12:57:54","21","21","5.0.14.0","2","99","trial1","naming","0","0","0","0","party favorsEnter Name","0","5138","1","White_Screen.jpg","5","149","Noisemaker.jpg","5"
"091219","12:57:54","21","21","5.0.14.0","2","100","trial1","naming","0","0","0","0","sconceEnter Name","0","4835","1","White_Screen.jpg","4","24","Hook_Ceiling.jpg","4"
"091219","12:57:54","21","21","5.0.14.0","2","101","trial1","naming","0","0","0","0","steakEnter Name","0","2134","1","White_Screen.jpg","4","191","MeatRaw.jpg","4"
"091219","12:57:54","21","21","5.0.14.0","2","103","trial1","naming","0","0","0","0","baby monitoEnter Name","0","5750","1","White_Screen.jpg","4","21","BabyMonitor.jpg","4"
"091219","12:57:54","21","21","5.0.14.0","2","104","trial1","naming","0","0","0","0","curved hornEnter Name","0","6248","1","White_Screen.jpg","4","177","Horn_Hunting.jpg","4"
"091219","12:57:54","21","21","5.0.14.0","2","105","trial1","naming","0","0","0","0","indian drumEnter Name","0","4862","1","White_Screen.jpg","5","148","Drum_Ramadan.jpg","5"
"091219","12:57:54","21","21","5.0.14.0","2","106","trial1","naming","0","0","0","0","towel rackEnter Name","0","4383","1","White_Screen.jpg","5","121","TowelRack_Metal.jpg","5"
"091219","12:57:54","21","21","5.0.14.0","2","107","trial1","naming","0","0","0","0","hot dogEnter Name","0","2713","1","White_Screen.jpg","4","114","Hotdog_WithBun.jpg","4"
"091219","12:57:54","21","21","5.0.14.0","2","108","trial1","naming","0","0","0","0","axEnter Name","0","3092","1","White_Screen.jpg","4","58","Axe.jpg","4"
"091219","12:57:54","21","21","5.0.14.0","2","109","trial1","naming","0","0","0","0","lockEnter Name","0","4032","1","White_Screen.jpg","4","36","Keyhole.jpg","4"
"091219","12:57:54","21","21","5.0.14.0","2","110","trial1","naming","0","0","0","0","coconutEnter Name","0","4042","1","White_Screen.jpg","4","59","Kiwi.jpg","4"
"091219","12:57:54","21","21","5.0.14.0","2","111","trial1","naming","0","0","0","0","parachuterEnter Name","0","4082","1","White_Screen.jpg","4","134","Paratrooper.jpg","4"
"091219","12:57:54","21","21","5.0.14.0","2","112","trial1","naming","0","0","0","0","witchEnter Name","0","2033","1","White_Screen.jpg","4","160","Toy_Witch.jpg","4"
"091219","12:57:54","21","21","5.0.14.0","2","113","trial1","naming","0","0","0","0","spray bottleEnter Name","0","4285","1","White_Screen.jpg","4","174","Bottle_Spray.jpg","4"
"091219","12:57:54","21","21","5.0.14.0","2","114","trial1","naming","0","0","0","0","denture holeEnter Name","0","7242","1","White_Screen.jpg","4","178","MouthGuard.jpg","4"
"091219","12:57:54","21","21","5.0.14.0","2","115","trial1","naming","0","0","0","0","newxpaperEnter Name","0","3576","1","White_Screen.jpg","4","181","NewspaperStack.jpg","4"
"091219","12:57:54","21","21","5.0.14.0","2","116","trial1","naming","0","0","0","0","water bottleEnter Name","0","3722","1","White_Screen.jpg","5","200","Bottle_Blue.jpg","5"
"091219","12:57:54","21","21","5.0.14.0","2","117","trial1","naming","0","0","0","0","pickleEnter Name","0","3011","1","White_Screen.jpg","4","104","Pickle.jpg","4"
"091219","12:57:54","21","21","5.0.14.0","2","118","trial1","naming","0","0","0","0","butter churnEnter Name","0","4684","1","White_Screen.jpg","5","99","ButterChurn.jpg","5"
"091219","12:57:54","21","21","5.0.14.0","2","119","trial1","naming","0","0","0","0","Enter Name","0","5781","1","White_Screen.jpg","4","140","CoolingFan_Engine2.jpg","4"
"091219","12:57:54","21","21","5.0.14.0","2","120","trial1","naming","0","0","0","0","paint thinnerEnter Name","0","5232","1","White_Screen.jpg","5","51","Can_Oblong.jpg","5"
"091219","12:57:54","21","21","5.0.14.0","2","121","trial1","naming","0","0","0","0","stepsEnter Name","0","3141","1","White_Screen.jpg","4","197","Staircase_Straight.jpg","4"
"091219","12:57:54","21","21","5.0.14.0","2","122","trial1","naming","0","0","0","0","old suitcaseEnter Name","0","5700","1","White_Screen.jpg","5","115","Suitcase.jpg","5"
"091219","12:57:54","21","21","5.0.14.0","2","123","trial1","naming","0","0","0","0","metal gas cEnter Name","0","9956","1","White_Screen.jpg","4","73","Can_Gas.jpg","4"
"091219","12:57:54","21","21","5.0.14.0","2","124","trial1","naming","0","0","0","0","fruit cupEnter Name","0","5313","1","White_Screen.jpg","5","125","Cup_Fruits.jpg","5"
"091219","12:57:54","21","21","5.0.14.0","2","125","trial1","naming","0","0","0","0","watchEnter Name","0","2025","1","White_Screen.jpg","4","127","Watch.jpg","4"
"091219","12:57:54","21","21","5.0.14.0","2","126","trial1","naming","0","0","0","0","harpEnter Name","0","2806","1","White_Screen.jpg","5","47","Harp.jpg","5"
"091219","12:57:54","21","21","5.0.14.0","2","127","trial1","naming","0","0","0","0","triangleEnter Name","0","4781","1","White_Screen.jpg","4","8","Ruler_Triangle.jpg","4"
"091219","12:57:54","21","21","5.0.14.0","2","128","trial1","naming","0","0","0","0","bulletEnter Name","0","2576","1","White_Screen.jpg","5","139","Bullet.jpg","5"
"091219","12:57:54","21","21","5.0.14.0","2","129","trial1","naming","0","0","0","0","finger ghostEnter Name","0","6148","1","White_Screen.jpg","4","136","Ghost.jpg","4"
"091219","12:57:54","21","21","5.0.14.0","2","130","trial1","naming","0","0","0","0","sand castleEnter Name","0","3003","1","White_Screen.jpg","5","103","Sandcastle.jpg","5"
"091219","12:57:54","21","21","5.0.14.0","2","131","trial1","naming","0","0","0","0","colored lensEnter Name","0","5568","1","White_Screen.jpg","4","33","Lens_ColourFilter.jpg","4"
"091219","12:57:54","21","21","5.0.14.0","2","132","trial1","naming","0","0","0","0","eye shadowEnter Name","0","4834","1","White_Screen.jpg","23","71","Makeup_Eyeshadow.jpg","23"
"091219","12:57:54","21","21","5.0.14.0","2","133","trial1","naming","0","0","0","0","dress shoesEnter Name","0","5521","1","White_Screen.jpg","4","117","Shoes_Pumps.jpg","4"
"091219","12:57:54","21","21","5.0.14.0","2","134","trial1","naming","0","0","0","0","speed limit iEnter Name","0","4884","1","White_Screen.jpg","4","124","Sign_SpeedLimit25.jpg","4"
"091219","12:57:54","21","21","5.0.14.0","2","135","trial1","naming","0","0","0","0","craneEnter Name","0","3872","1","White_Screen.jpg","4","126","CraneMachine.jpg","4"
"091219","12:57:54","21","21","5.0.14.0","2","136","trial1","naming","0","0","0","0","tennis shoeEnter Name","0","4229","1","White_Screen.jpg","4","108","Shoes_Sneakers.jpg","4"
"091219","12:57:54","21","21","5.0.14.0","2","137","trial1","naming","0","0","0","0","scorpianEnter Name","0","4634","1","White_Screen.jpg","5","46","Scorpion.jpg","5"
"091219","12:57:54","21","21","5.0.14.0","2","138","trial1","naming","0","0","0","0","phone cansEnter Name","0","8440","1","White_Screen.jpg","4","144","Telephone_TinCan.jpg","4"
"091219","12:57:54","21","21","5.0.14.0","2","139","trial1","naming","0","0","0","0","row boatEnter Name","0","3522","1","White_Screen.jpg","5","44","Boat_Row.jpg","5"
"091219","12:57:54","21","21","5.0.14.0","2","140","trial1","naming","0","0","0","0","dryerEnter Name","0","3151","1","White_Screen.jpg","4","168","DryingMachine.jpg","4"
"091219","12:57:54","21","21","5.0.14.0","2","141","trial1","naming","0","0","0","0","lotion Enter Name","0","3437","1","White_Screen.jpg","4","186","SoapBottle.jpg","4"
"091219","12:57:54","21","21","5.0.14.0","2","142","trial1","naming","0","0","0","0","cat nick nacEnter Name","0","7505","1","White_Screen.jpg","4","18","Statue_Cat.jpg","4"
"091219","12:57:54","21","21","5.0.14.0","2","143","trial1","naming","0","0","0","0","ethernetEnter Name","0","3807","1","White_Screen.jpg","4","69","Cord_Ethernet.jpg","4"
"091219","12:57:54","21","21","5.0.14.0","2","144","trial1","naming","0","0","0","0","manEnter Name","0","2867","1","White_Screen.jpg","4","112","Man.jpg","4"
"091219","12:57:54","21","21","5.0.14.0","2","145","trial1","naming","0","0","0","0","salt shakerEnter Name","0","4924","1","White_Screen.jpg","4","102","SaltShaker.jpg","4"
"091219","12:57:54","21","21","5.0.14.0","2","146","trial1","naming","0","0","0","0","herbEnter Name","0","3269","1","White_Screen.jpg","4","183","Dill.jpg","4"
"091219","12:57:54","21","21","5.0.14.0","2","147","trial1","naming","0","0","0","0","portable potEnter Name","0","5726","1","White_Screen.jpg","4","61","Chair_MedicalToilet.jpg","4"
"091219","12:57:54","21","21","5.0.14.0","2","148","trial1","naming","0","0","0","0","stop lightEnter Name","0","3120","1","White_Screen.jpg","4","180","Light_Traffic.jpg","4"
"091219","12:57:54","21","21","5.0.14.0","2","149","trial1","naming","0","0","0","0","school deskEnter Name","0","4359","1","White_Screen.jpg","4","40","Chair_Student.jpg","4"
"091219","12:57:54","21","21","5.0.14.0","2","150","trial1","naming","0","0","0","0","doctors toolEnter Name","0","7310","1","White_Screen.jpg","4","195","Otoscope.jpg","4"
"091219","12:57:54","21","21","5.0.14.0","2","151","trial1","naming","0","0","0","0","fly fishing vtEnter Name","0","6466","1","White_Screen.jpg","4","111","Vest.jpg","4"
"091219","12:57:54","21","21","5.0.14.0","2","152","trial1","naming","0","0","0","0","onion ringsEnter Name","0","4924","1","White_Screen.jpg","5","161","OnionRings.jpg","5"
"091219","12:57:54","21","21","5.0.14.0","2","154","trial1","naming","0","0","0","0","donkeyEnter Name","0","2633","1","White_Screen.jpg","4","135","Toy_DonkeyPlastic.jpg","4"
"091219","12:57:54","21","21","5.0.14.0","2","155","trial1","naming","0","0","0","0","coffer thermEnter Name","0","7643","1","White_Screen.jpg","4","82","Thermos_MetalSleek.jpg","4"
"091219","12:57:54","21","21","5.0.14.0","2","156","trial1","naming","0","0","0","0","childs rockiEnter Name","0","4924","1","White_Screen.jpg","4","173","Chair_Rocking.jpg","4"
"091219","12:57:54","21","21","5.0.14.0","2","157","trial1","naming","0","0","0","0","broomEnter Name","0","2041","1","White_Screen.jpg","4","75","Broom_Long.jpg","4"
"091219","12:57:54","21","21","5.0.14.0","2","158","trial1","naming","0","0","0","0","don't knowEnter Name","0","4954","1","White_Screen.jpg","5","188","Pipe_Pitch.jpg","5"
"091219","12:57:54","21","21","5.0.14.0","2","159","trial1","naming","0","0","0","0","spinning whEnter Name","0","4135","1","White_Screen.jpg","4","189","Distaff.jpg","4"
"091219","12:57:54","21","21","5.0.14.0","2","160","trial1","naming","0","0","0","0","jewelry cabEnter Name","0","10000","1","White_Screen.jpg","4","31","Wardrobe.jpg","4"
"091219","12:57:54","21","21","5.0.14.0","2","161","trial1","naming","0","0","0","0","air compresEnter Name","0","7100","1","White_Screen.jpg","4","175","PaintSprayer.jpg","4"
"091219","12:57:54","21","21","5.0.14.0","2","162","trial1","naming","0","0","0","0","weinnerEnter Name","0","6992","1","White_Screen.jpg","4","63","Hotdog_Weiner.jpg","4"
"091219","12:57:54","21","21","5.0.14.0","2","163","trial1","naming","0","0","0","0","gerbilEnter Name","0","2548","1","White_Screen.jpg","4","76","GuineaPig.jpg","4"
"091219","12:57:54","21","21","5.0.14.0","2","164","trial1","naming","0","0","0","0","gym bagEnter Name","0","5463","1","White_Screen.jpg","4","26","Bag_Gym.jpg","4"
"091219","12:57:54","21","21","5.0.14.0","2","165","trial1","naming","0","0","0","0","propellerEnter Name","0","2615","1","White_Screen.jpg","5","6","PropellerFan.jpg","5"
"091219","12:57:54","21","21","5.0.14.0","2","166","trial1","naming","0","0","0","0","wicketEnter Name","0","4105","1","White_Screen.jpg","4","166","Bat_Cricket.jpg","4"
"091219","12:57:54","21","21","5.0.14.0","2","167","trial1","naming","0","0","0","0","knife blockEnter Name","0","6188","1","White_Screen.jpg","4","163","KnifeHolder.jpg","4"
"091219","12:57:54","21","21","5.0.14.0","2","168","trial1","naming","0","0","0","0","glass scrubEnter Name","0","7392","1","White_Screen.jpg","4","15","Brush_Toilet.jpg","4"
"091219","12:57:54","21","21","5.0.14.0","2","169","trial1","naming","0","0","0","0","statueEnter Name","0","3836","1","White_Screen.jpg","4","20","Statue_Man.jpg","4"
"091219","12:57:54","21","21","5.0.14.0","2","170","trial1","naming","0","0","0","0","music statuEnter Name","0","9125","1","White_Screen.jpg","4","150","Sculpture_MetalMan.jpg","4"
"091219","12:57:54","21","21","5.0.14.0","2","171","trial1","naming","0","0","0","0","spadeEnter Name","0","2448","1","White_Screen.jpg","4","162","Trowel.jpg","4"
"091219","12:57:54","21","21","5.0.14.0","2","172","trial1","naming","0","0","0","0","wet floor sigEnter Name","0","7729","1","White_Screen.jpg","4","77","Sign_Wetfloor.jpg","4"
"091219","12:57:54","21","21","5.0.14.0","2","173","trial1","naming","0","0","0","0","tireEnter Name","0","2119","1","White_Screen.jpg","4","48","Tire_Hollow.jpg","4"
"091219","12:57:54","21","21","5.0.14.0","2","174","trial1","naming","0","0","0","0","chicken winEnter Name","0","3320","1","White_Screen.jpg","4","193","Chicken_FriedWing.jpg","4"
"091219","12:57:54","21","21","5.0.14.0","2","175","trial1","naming","0","0","0","0","pastaEnter Name","0","3379","1","White_Screen.jpg","4","110","Pasta_Fusilli.jpg","4"
"091219","12:57:54","21","21","5.0.14.0","2","176","trial1","naming","0","0","0","0","legosEnter Name","0","2871","1","White_Screen.jpg","4","88","Toys_Lego.jpg","4"
"091219","12:57:54","21","21","5.0.14.0","2","177","trial1","naming","0","0","0","0","scoopEnter Name","0","3331","1","White_Screen.jpg","4","155","Scoop_Flour.jpg","4"
"091219","12:57:54","21","21","5.0.14.0","2","178","trial1","naming","0","0","0","0","fishing hookEnter Name","0","3663","1","White_Screen.jpg","4","22","Hook_Fishing.jpg","4"
"091219","12:57:54","21","21","5.0.14.0","2","179","trial1","naming","0","0","0","0","candle snuffEnter Name","0","5566","1","White_Screen.jpg","5","116","CandleSnuffer.jpg","5"
"091219","12:57:54","21","21","5.0.14.0","2","180","trial1","naming","0","0","0","0","serumEnter Name","0","4815","1","White_Screen.jpg","4","176","VialLab.jpg","4"
"091219","12:57:54","21","21","5.0.14.0","2","181","trial1","naming","0","0","0","0","chairEnter Name","0","1737","1","White_Screen.jpg","4","66","Chair_Dining.jpg","4"
"091219","12:57:54","21","21","5.0.14.0","2","182","trial1","naming","0","0","0","0","measuring sEnter Name","0","5021","1","White_Screen.jpg","4","23","Spoons_MeasuringDetached.jpg","4"
"091219","12:57:54","21","21","5.0.14.0","2","183","trial1","naming","0","0","0","0","bird cageEnter Name","0","3626","1","White_Screen.jpg","4","35","Cage_Bird.jpg","4"
"091219","12:57:54","21","21","5.0.14.0","2","184","trial1","naming","0","0","0","0","pencilEnter Name","0","2255","1","White_Screen.jpg","5","5","Pencil.jpg","5"
"091219","12:57:54","21","21","5.0.14.0","2","185","trial1","naming","0","0","0","0","barrelEnter Name","0","2400","1","White_Screen.jpg","8","1","Barrel_Upright.jpg","8"
"091219","12:57:54","21","21","5.0.14.0","2","186","trial1","naming","0","0","0","0","hackEnter Name","0","2891","1","White_Screen.jpg","4","91","RickShaw.jpg","4"
"091219","12:57:54","21","21","5.0.14.0","2","187","trial1","naming","0","0","0","0","modle of briEnter Name","0","6822","1","White_Screen.jpg","5","153","BrainSagittal.jpg","5"
"091219","12:57:54","21","21","5.0.14.0","2","188","trial1","naming","0","0","0","0","ice skatesEnter Name","0","4284","1","White_Screen.jpg","4","52","Skates.jpg","4"
"091219","12:57:54","21","21","5.0.14.0","2","189","trial1","naming","0","0","0","0","coat of armEnter Name","0","3265","1","White_Screen.jpg","4","49","Shield_Antique.jpg","4"
"091219","12:57:54","21","21","5.0.14.0","2","190","trial1","naming","0","0","0","0","sea horseEnter Name","0","3634","1","White_Screen.jpg","4","55","Seahorse.jpg","4"
"091219","12:57:54","21","21","5.0.14.0","2","191","trial1","naming","0","0","0","0","4 leaf cloverEnter Name","0","5005","1","White_Screen.jpg","4","70","Leaf_Clover.jpg","4"
"091219","12:57:54","21","21","5.0.14.0","2","192","trial1","naming","0","0","0","0","dentis lamEnter Name","0","10000","1","White_Screen.jpg","4","170","DentistOverheadLight.jpg","4"
"091219","12:57:54","21","21","5.0.14.0","2","193","trial1","naming","0","0","0","0","hoseEnter Name","0","10000","1","White_Screen.jpg","4","105","HoseNozzle.jpg","4"
"091219","12:57:54","21","21","5.0.14.0","2","194","trial1","naming","0","0","0","0","backhoeEnter Name","0","5401","1","White_Screen.jpg","4","165","Backhoe.jpg","4"
"091219","12:57:54","21","21","5.0.14.0","2","195","trial1","naming","0","0","0","0","daisyEnter Name","0","2773","1","White_Screen.jpg","4","185","Flower_Daisy.jpg","4"
"091219","12:57:54","21","21","5.0.14.0","2","196","trial1","naming","0","0","0","0","canadian goEnter Name","0","6112","1","White_Screen.jpg","5","137","Goose_Canadian.jpg","5"
"091219","12:57:54","21","21","5.0.14.0","2","197","trial1","naming","0","0","0","0","chinaEnter Name","0","2584","1","White_Screen.jpg","4","72","Plate_Decorative.jpg","4"
"091219","12:57:54","21","21","5.0.14.0","2","198","trial1","naming","0","0","0","0","pebblesEnter Name","0","4338","1","White_Screen.jpg","4","152","Stone_Spa.jpg","4"
"091219","12:57:54","21","21","5.0.14.0","2","199","trial1","naming","0","0","0","0","lifstickEnter Name","0","5327","1","White_Screen.jpg","4","41","Lipstick.jpg","4"
"091219","12:57:54","21","21","5.0.14.0","2","200","trial1","naming","0","0","0","0","coffe potEnter Name","0","6312","1","White_Screen.jpg","4","119","Kettle.jpg","4"
"091219","12:57:54","21","21","5.0.14.0","2","201","trial1","naming","0","0","0","0","gogglesEnter Name","0","3073","1","White_Screen.jpg","4","171","GogglesSwim.jpg","4"
"091219","12:57:54","21","21","5.0.14.0","2","202","trial1","naming","0","0","0","0","vise grip Enter Name","0","9752","1","White_Screen.jpg","4","90","Clamp.jpg","4"
"091219","12:57:54","21","21","5.0.14.0","2","203","trial1","naming","0","0","0","0","play dohEnter Name","0","3352","1","White_Screen.jpg","4","86","Playdoh.jpg","4"
"091219","12:57:54","21","21","5.0.14.0","3","1","demographics_block","gender","0","0","0","0","female","1","22619","0","0","0","0","0","0"
"091219","12:57:54","21","21","5.0.14.0","3","1","demographics_block","age","0","0","0","0","55","1","22619","0","0","0","0","0","0"
"091219","12:57:54","21","21","5.0.14.0","3","1","demographics_block","education","0","0","0","0","4 yr college degree","1","22619","0","0","0","0","0","0"
"091219","12:57:54","21","21","5.0.14.0","3","2","demographics_block","left_right_handed","0","0","0","0","Right","1","9082","0","0","0","0","0","0"
"091219","12:57:54","21","21","5.0.14.0","3","2","demographics_block","raceoption1","0","0","0","0","0","1","9082","0","0","0","0","0","0"
"091219","12:57:54","21","21","5.0.14.0","3","2","demographics_block","raceoption2","0","0","0","0","","1","9082","0","0","0","0","0","0"
"091219","12:57:54","21","21","5.0.14.0","3","2","demographics_block","raceoption3","0","0","0","0","","1","9082","0","0","0","0","0","0"
"091219","12:57:54","21","21","5.0.14.0","3","2","demographics_block","raceoption4","0","0","0","0","","1","9082","0","0","0","0","0","0"
"091219","12:57:54","21","21","5.0.14.0","3","2","demographics_block","raceoption5","0","0","0","0","","1","9082","0","0","0","0","0","0"
"091219","12:57:54","21","21","5.0.14.0","3","2","demographics_block","raceoption6","0","0","0","0","","1","9082","0","0","0","0","0","0"
"091219","12:57:54","21","21","5.0.14.0","3","2","demographics_block","raceoption7","0","0","0","0","","1","9082","0","0","0","0","0","0"
"091219","12:57:54","21","21","5.0.14.0","3","2","demographics_block","raceoption8","0","0","0","0","","1","9082","0","0","0","0","0","0"
"091219","12:57:54","21","21","5.0.14.0","3","2","demographics_block","raceoption9","0","0","0","0","","1","9082","0","0","0","0","0","0"
"091219","12:57:54","21","21","5.0.14.0","3","2","demographics_block","raceother","0","0","0","0","","1","9082","0","0","0","0","0","0"
"091219","12:57:54","21","21","5.0.14.0","3","2","demographics_block","raceother","0","0","0","0","","1","9082","0","0","0","0","0","0"
"091219","12:57:54","21","21","5.0.14.0","3","2","demographics_block","english_language","0","0","0","0","Yes","1","9082","0","0","0","0","0","0"
"091219","12:57:54","21","21","5.0.14.0","3","2","demographics_block","english_languageother","0","0","0","0","","1","9082","0","0","0","0","0","0"
"091219","12:57:54","21","21","5.0.14.0","3","3","demographics_block","eyesight","0","0","0","0","Yes","1","12615","0","0","0","0","0","0"
"091219","12:57:54","21","21","5.0.14.0","3","3","demographics_block","colorblind","0","0","0","0","No","1","12615","0","0","0","0","0","0"
"091219","12:57:54","21","21","5.0.14.0","4","1","worker_id_block","worker_id_textbox","0","0","0","0","A1O8JOIYLXYLGD","1","116839","0","0","0","0","0","0"
"date","time","group","subject","build","blocknum","trialnum","blockcode","trialcode","pretrialpause","posttrialpause","trialduration","trialtimeout","response","correct","latency","stimulusnumber1","stimulusitem1","stimulusonset1","stimulusnumber2","stimulusitem2","stimulusonset2"
"091219","12:02:35","22","22","5.0.14.0","2","1","trial1","naming","0","0","0","0","washerEnter Name","0","4053","1","White_Screen.jpg","357","168","DryingMachine.jpg","357"
"091219","12:02:35","22","22","5.0.14.0","2","2","trial1","naming","0","0","0","0","bowlEnter Name","0","3107","1","White_Screen.jpg","11","65","Glass_Bowl.jpg","11"
"091219","12:02:35","22","22","5.0.14.0","2","3","trial1","naming","0","0","0","0","condomEnter Name","0","4427","1","White_Screen.jpg","10","187","Condom.jpg","10"
"091219","12:02:35","22","22","5.0.14.0","2","4","trial1","naming","0","0","0","0","pipeEnter Name","0","3496","1","White_Screen.jpg","10","4","Pipe_Drain.jpg","10"
"091219","12:02:35","22","22","5.0.14.0","2","5","trial1","naming","0","0","0","0","iv cag","0","8107","1","White_Screen.jpg","11","60","Bag_Saline.jpg","11"
"091219","12:02:35","22","22","5.0.14.0","2","6","trial1","naming","0","0","0","0","sea horse","0","8826","1","White_Screen.jpg","10","55","Seahorse.jpg","10"
"091219","12:02:35","22","22","5.0.14.0","2","7","trial1","naming","0","0","0","0","spin","0","7535","1","White_Screen.jpg","10","189","Distaff.jpg","10"
"091219","12:02:35","22","22","5.0.14.0","2","8","trial1","naming","0","0","0","0","bike seat","0","6651","1","White_Screen.jpg","10","17","BicycleSeat.jpg","10"
"091219","12:02:35","22","22","5.0.14.0","2","9","trial1","naming","0","0","0","0","tube","0","4925","1","White_Screen.jpg","14","81","Tube.jpg","14"
"091219","12:02:35","22","22","5.0.14.0","2","10","trial1","naming","0","0","0","0","tweezers","0","7545","1","White_Screen.jpg","13","132","Tweezers.jpg","13"
"091219","12:02:35","22","22","5.0.14.0","2","11","trial1","naming","0","0","0","0","lamp","0","4150","1","White_Screen.jpg","14","116","CandleSnuffer.jpg","14"
"091219","12:02:35","22","22","5.0.14.0","2","12","trial1","naming","0","0","0","0","peas","0","3167","1","White_Screen.jpg","10","164","Can_Peas.jpg","10"
"091219","12:02:35","22","22","5.0.14.0","2","13","trial1","naming","0","0","0","0","fan","0","4161","1","White_Screen.jpg","13","6","PropellerFan.jpg","13"
"091219","12:02:35","22","22","5.0.14.0","2","14","trial1","naming","0","0","0","0","casset player","0","7566","1","White_Screen.jpg","12","83","RecorderCassette.jpg","12"
"091219","12:02:35","22","22","5.0.14.0","2","15","trial1","naming","0","0","0","0","armoir","0","7509","1","White_Screen.jpg","12","31","Wardrobe.jpg","12"
"091219","12:02:35","22","22","5.0.14.0","2","16","trial1","naming","0","0","0","0","duffle bag","0","5251","1","White_Screen.jpg","11","26","Bag_Gym.jpg","11"
"091219","12:02:35","22","22","5.0.14.0","2","17","trial1","naming","0","0","0","0","branches","0","8356","1","White_Screen.jpg","13","53","Decoration_WallOrnament.jpg","13"
"091219","12:02:35","22","22","5.0.14.0","2","18","trial1","naming","0","0","0","0","knife block","0","5763","1","White_Screen.jpg","14","163","KnifeHolder.jpg","14"
"091219","12:02:35","22","22","5.0.14.0","2","19","trial1","naming","0","0","0","0","hospital bed","0","5433","1","White_Screen.jpg","11","122","Bed_Hospital.jpg","11"
"091219","12:02:35","22","22","5.0.14.0","2","20","trial1","naming","0","0","0","0","motor","0","4711","1","White_Screen.jpg","12","107","AirCompressor.jpg","12"
"091219","12:02:35","22","22","5.0.14.0","2","21","trial1","naming","0","0","0","0","triangle","0","4960","1","White_Screen.jpg","10","8","Ruler_Triangle.jpg","10"
"091219","12:02:35","22","22","5.0.14.0","2","22","trial1","naming","0","0","0","0","armour","0","5779","1","White_Screen.jpg","11","49","Shield_Antique.jpg","11"
"091219","12:02:35","22","22","5.0.14.0","2","23","trial1","naming","0","0","0","0","thermos","0","4588","1","White_Screen.jpg","10","82","Thermos_MetalSleek.jpg","10"
"091219","12:02:35","22","22","5.0.14.0","2","24","trial1","naming","0","0","0","0","oil can","0","6022","1","White_Screen.jpg","10","56","Canister_Oil.jpg","10"
