"date","time","group","subject","build","blocknum","trialnum","blockcode","trialcode","pretrialpause","posttrialpause","trialduration","trialtimeout","response","correct","latency","stimulusnumber1","stimulusitem1","stimulusonset1","stimulusnumber2","stimulusitem2","stimulusonset2"
"022420","12:09:10","36","36","5.0.14.0","2","1","trial1","naming","0","0","0","0","Enter Name","0","10000","1","White_Screen.jpg","41","3","ComputerKey_Escape.jpg","41"
"022420","12:09:10","36","36","5.0.14.0","2","2","trial1","naming","0","0","0","0","Enter Name","0","2067","1","White_Screen.jpg","11","98","Jacket_Suit.jpg","11"
"022420","12:09:10","36","36","5.0.14.0","2","3","trial1","naming","0","0","0","0","Enter Name","0","125","1","White_Screen.jpg","5","39","StickyTack.jpg","5"
"022420","12:09:10","36","36","5.0.14.0","2","4","trial1","naming","0","0","0","0","Enter Name","0","133","1","White_Screen.jpg","8","76","Shirt_Tshirt.jpg","8"
"022420","12:09:10","36","36","5.0.14.0","2","5","trial1","naming","0","0","0","0","Enter Name","0","127","1","White_Screen.jpg","7","177","Balcony.jpg","7"
"022420","12:09:10","36","36","5.0.14.0","2","6","trial1","naming","0","0","0","0","Enter Name","0","127","1","White_Screen.jpg","8","22","Crossbow.jpg","8"
"022420","12:09:10","36","36","5.0.14.0","2","7","trial1","naming","0","0","0","0","Enter Name","0","128","1","White_Screen.jpg","9","94","Boar.jpg","9"
"022420","12:09:10","36","36","5.0.14.0","2","8","trial1","naming","0","0","0","0","Enter Name","0","110","1","White_Screen.jpg","12","147","Windmill_Building.jpg","12"
"022420","12:09:10","36","36","5.0.14.0","2","9","trial1","naming","0","0","0","0","Enter Name","0","117","1","White_Screen.jpg","6","49","Hazelnut.jpg","6"
"022420","12:09:10","36","36","5.0.14.0","2","10","trial1","naming","0","0","0","0","Enter Name","0","135","1","White_Screen.jpg","5","164","Drum_Cymbal.jpg","5"
"022420","12:09:10","36","36","5.0.14.0","2","11","trial1","naming","0","0","0","0","Enter Name","0","128","1","White_Screen.jpg","5","135","Toy_BlocksMultiShape.jpg","5"
"022420","12:09:10","36","36","5.0.14.0","2","12","trial1","naming","0","0","0","0","Enter Name","0","130","1","White_Screen.jpg","13","81","Booties_Blue.jpg","13"
"022420","12:09:10","36","36","5.0.14.0","2","13","trial1","naming","0","0","0","0","Enter Name","0","126","1","White_Screen.jpg","13","197","Wire_ElectricalSingle.jpg","13"
"022420","12:09:10","36","36","5.0.14.0","2","14","trial1","naming","0","0","0","0","Enter Name","0","108","1","White_Screen.jpg","5","43","Branches_Campfire.jpg","5"
"022420","12:09:10","36","36","5.0.14.0","2","15","trial1","naming","0","0","0","0","Enter Name","0","124","1","White_Screen.jpg","8","169","SewingPin_Single.jpg","8"
"022420","12:09:10","36","36","5.0.14.0","2","16","trial1","naming","0","0","0","0","Enter Name","0","133","1","White_Screen.jpg","8","37","Bag_Camera.jpg","8"
"022420","12:09:10","36","36","5.0.14.0","2","17","trial1","naming","0","0","0","0","Enter Name","0","124","1","White_Screen.jpg","10","25","Trash_Medical.jpg","10"
"022420","12:09:10","36","36","5.0.14.0","2","18","trial1","naming","0","0","0","0","Enter Name","0","127","1","White_Screen.jpg","8","75","Toy_MerryGoRound.jpg","8"
"022420","12:09:10","36","36","5.0.14.0","2","19","trial1","naming","0","0","0","0","Enter Name","0","125","1","White_Screen.jpg","12","113","Mask_HockeyGoalie.jpg","12"
"022420","12:09:10","36","36","5.0.14.0","2","20","trial1","naming","0","0","0","0","Enter Name","0","110","1","White_Screen.jpg","12","21","PillBottle_Prescription.jpg","12"
"022420","12:09:10","36","36","5.0.14.0","2","21","trial1","naming","0","0","0","0","Enter Name","0","125","1","White_Screen.jpg","6","92","Drill.jpg","6"
"022420","12:09:10","36","36","5.0.14.0","2","22","trial1","naming","0","0","0","0","Enter Name","0","150","1","White_Screen.jpg","7","41","BunsenBurner.jpg","7"
"022420","12:09:10","36","36","5.0.14.0","2","23","trial1","naming","0","0","0","0","Enter Name","0","128","1","White_Screen.jpg","5","180","Lacrosse_Stick.jpg","5"
"022420","12:09:10","36","36","5.0.14.0","2","24","trial1","naming","0","0","0","0","Enter Name","0","143","1","White_Screen.jpg","8","121","Ship_Cruise.jpg","8"
"022420","12:09:10","36","36","5.0.14.0","2","25","trial1","naming","0","0","0","0","Enter Name","0","144","1","White_Screen.jpg","8","193","PocketKnife.jpg","8"
"022420","12:09:10","36","36","5.0.14.0","2","26","trial1","naming","0","0","0","0","Enter Name","0","143","1","White_Screen.jpg","9","123","Bird_Pelican.jpg","9"
"022420","12:09:10","36","36","5.0.14.0","2","27","trial1","naming","0","0","0","0","Enter Name","0","132","1","White_Screen.jpg","5","172","IceCrusher.jpg","5"
"022420","12:09:10","36","36","5.0.14.0","2","28","trial1","naming","0","0","0","0","Enter Name","0","147","1","White_Screen.jpg","8","132","Helmet_Soldier.jpg","8"
"022420","12:09:10","36","36","5.0.14.0","2","29","trial1","naming","0","0","0","0","Enter Name","0","124","1","White_Screen.jpg","8","2","Toy_Train.jpg","8"
"022420","12:09:10","36","36","5.0.14.0","2","30","trial1","naming","0","0","0","0","Enter Name","0","140","1","White_Screen.jpg","8","52","Flower_Hibiscus.jpg","8"
"022420","12:09:10","36","36","5.0.14.0","2","31","trial1","naming","0","0","0","0","Enter Name","0","140","1","White_Screen.jpg","9","166","PictureFrame.jpg","9"
"022420","12:09:10","36","36","5.0.14.0","2","32","trial1","naming","0","0","0","0","Enter Name","0","143","1","White_Screen.jpg","8","64","Candelabra.jpg","8"
"022420","12:09:10","36","36","5.0.14.0","2","33","trial1","naming","0","0","0","0","Enter Name","0","141","1","White_Screen.jpg","13","54","Trunk.jpg","13"
"022420","12:09:10","36","36","5.0.14.0","2","34","trial1","naming","0","0","0","0","Enter Name","0","135","1","White_Screen.jpg","12","73","Avocado.jpg","12"
"022420","12:09:10","36","36","5.0.14.0","2","35","trial1","naming","0","0","0","0","Enter Name","0","130","1","White_Screen.jpg","7","89","Stapler_Gun.jpg","7"
"022420","12:09:10","36","36","5.0.14.0","2","36","trial1","naming","0","0","0","0","Enter Name","0","102","1","White_Screen.jpg","12","11","Partition.jpg","12"
"022420","12:09:10","36","36","5.0.14.0","2","37","trial1","naming","0","0","0","0","Enter Name","0","682","1","White_Screen.jpg","12","184","Pottery.jpg","12"
"022420","12:09:10","36","36","5.0.14.0","2","38","trial1","naming","0","0","0","0","Enter Name","0","97","1","White_Screen.jpg","14","16","Wontons.jpg","14"
"022420","12:09:10","36","36","5.0.14.0","2","39","trial1","naming","0","0","0","0","Enter Name","0","105","1","White_Screen.jpg","8","24","MannequinHead.jpg","8"
"022420","12:09:10","36","36","5.0.14.0","2","40","trial1","naming","0","0","0","0","Enter Name","0","107","1","White_Screen.jpg","8","59","Chair_High.jpg","8"
"022420","12:09:10","36","36","5.0.14.0","2","41","trial1","naming","0","0","0","0","Enter Name","0","113","1","White_Screen.jpg","13","30","AmpMeter.jpg","13"
"022420","12:09:10","36","36","5.0.14.0","2","42","trial1","naming","0","0","0","0","Enter Name","0","101","1","White_Screen.jpg","11","148","SpiderWeb.jpg","11"
"022420","12:09:10","36","36","5.0.14.0","2","43","trial1","naming","0","0","0","0","Enter Name","0","122","1","White_Screen.jpg","7","103","Boardgame_Chess.jpg","7"
"022420","12:09:10","36","36","5.0.14.0","2","44","trial1","naming","0","0","0","0","Enter Name","0","107","1","White_Screen.jpg","8","90","Gorilla.jpg","8"
"022420","12:09:10","36","36","5.0.14.0","2","45","trial1","naming","0","0","0","0","Enter Name","0","116","1","White_Screen.jpg","9","87","ThreeHolePunch.jpg","9"
"022420","12:09:10","36","36","5.0.14.0","2","46","trial1","naming","0","0","0","0","Enter Name","0","119","1","White_Screen.jpg","8","109","PylonTraffic.jpg","8"
"022420","12:09:10","36","36","5.0.14.0","2","47","trial1","naming","0","0","0","0","Enter Name","0","121","1","White_Screen.jpg","8","161","Corn.jpg","8"
"022420","12:09:10","36","36","5.0.14.0","2","48","trial1","naming","0","0","0","0","Enter Name","0","121","1","White_Screen.jpg","9","35","Sign_SlipperyRoad.jpg","9"
"022420","12:09:10","36","36","5.0.14.0","2","49","trial1","naming","0","0","0","0","Enter Name","0","107","1","White_Screen.jpg","9","152","Stone_Mill.jpg","9"
"022420","12:09:10","36","36","5.0.14.0","2","50","trial1","naming","0","0","0","0","Enter Name","0","125","1","White_Screen.jpg","9","156","Sashimi.jpg","9"
"022420","12:09:10","36","36","5.0.14.0","2","52","trial1","naming","0","0","0","0","Enter Name","0","430","1","White_Screen.jpg","14","151","Grill_Gas.jpg","14"
"022420","12:09:10","36","36","5.0.14.0","2","53","trial1","naming","0","0","0","0","Enter Name","0","88","1","White_Screen.jpg","7","181","CarSuspension.jpg","7"
"022420","12:09:10","36","36","5.0.14.0","2","54","trial1","naming","0","0","0","0","Enter Name","0","123","1","White_Screen.jpg","8","117","Iron_Antique.jpg","8"
"022420","12:09:10","36","36","5.0.14.0","2","55","trial1","naming","0","0","0","0","Enter Name","0","116","1","White_Screen.jpg","8","46","TestTube_Single.jpg","8"
"022420","12:09:10","36","36","5.0.14.0","2","56","trial1","naming","0","0","0","0","Enter Name","0","108","1","White_Screen.jpg","11","119","Spatula_1.jpg","11"
"022420","12:09:10","36","36","5.0.14.0","2","57","trial1","naming","0","0","0","0","Enter Name","0","129","1","White_Screen.jpg","8","141","Barometer_Wood.jpg","8"
"022420","12:09:10","36","36","5.0.14.0","2","58","trial1","naming","0","0","0","0","Enter Name","0","103","1","White_Screen.jpg","12","188","Lamp_Table.jpg","12"
"022420","12:09:10","36","36","5.0.14.0","2","59","trial1","naming","0","0","0","0","Enter Name","0","125","1","White_Screen.jpg","8","190","Mask_Ski.jpg","8"
"022420","12:09:10","36","36","5.0.14.0","2","60","trial1","naming","0","0","0","0","Enter Name","0","118","1","White_Screen.jpg","7","157","LaundryHamper.jpg","7"
"022420","12:09:10","36","36","5.0.14.0","2","61","trial1","naming","0","0","0","0","Enter Name","0","111","1","White_Screen.jpg","8","85","GasBurner.jpg","8"
"022420","12:09:10","36","36","5.0.14.0","2","62","trial1","naming","0","0","0","0","Enter Name","0","111","1","White_Screen.jpg","11","179","Instrument_Guiro.jpg","11"
"022420","12:09:10","36","36","5.0.14.0","2","63","trial1","naming","0","0","0","0","Enter Name","0","123","1","White_Screen.jpg","8","185","SetSquare.jpg","8"
"022420","12:09:10","36","36","5.0.14.0","2","64","trial1","naming","0","0","0","0","Enter Name","0","124","1","White_Screen.jpg","7","77","Owl.jpg","7"
"022420","12:09:10","36","36","5.0.14.0","2","65","trial1","naming","0","0","0","0","Enter Name","0","132","1","White_Screen.jpg","11","101","SatelliteDish.jpg","11"
"022420","12:09:10","36","36","5.0.14.0","2","66","trial1","naming","0","0","0","0","Enter Name","0","112","1","White_Screen.jpg","6","171","Jug_Milk.jpg","6"
"022420","12:09:10","36","36","5.0.14.0","2","67","trial1","naming","0","0","0","0","Enter Name","0","122","1","White_Screen.jpg","5","146","CertificateFramed.jpg","5"
"022420","12:09:10","36","36","5.0.14.0","2","68","trial1","naming","0","0","0","0","Enter Name","0","121","1","White_Screen.jpg","8","10","Soap.jpg","8"
"022420","12:09:10","36","36","5.0.14.0","2","69","trial1","naming","0","0","0","0","Enter Name","0","131","1","White_Screen.jpg","8","18","Cord_usb.jpg","8"
"022420","12:09:10","36","36","5.0.14.0","2","70","trial1","naming","0","0","0","0","Enter Name","0","118","1","White_Screen.jpg","5","69","WireStripper.jpg","5"
"022420","12:09:10","36","36","5.0.14.0","2","71","trial1","naming","0","0","0","0","Enter Name","0","119","1","White_Screen.jpg","7","170","Desk_Office.jpg","7"
"022420","12:09:10","36","36","5.0.14.0","2","72","trial1","naming","0","0","0","0","Enter Name","0","129","1","White_Screen.jpg","14","83","Chest.jpg","14"
"022420","12:09:10","36","36","5.0.14.0","2","73","trial1","naming","0","0","0","0","Enter Name","0","111","1","White_Screen.jpg","11","130","Syringe_Blunt.jpg","11"
"022420","12:09:10","36","36","5.0.14.0","2","74","trial1","naming","0","0","0","0","Enter Name","0","98","1","White_Screen.jpg","10","122","Toy_Lion.jpg","10"
"022420","12:09:10","36","36","5.0.14.0","2","75","trial1","naming","0","0","0","0","Enter Name","0","117","1","White_Screen.jpg","9","80","Bag_Diaper.jpg","9"
"022420","12:09:10","36","36","5.0.14.0","2","76","trial1","naming","0","0","0","0","Enter Name","0","128","1","White_Screen.jpg","6","45","Sign_Parking.jpg","6"
"022420","12:09:10","36","36","5.0.14.0","2","77","trial1","naming","0","0","0","0","Enter Name","0","128","1","White_Screen.jpg","8","97","Honeycomb.jpg","8"
"022420","12:09:10","36","36","5.0.14.0","2","78","trial1","naming","0","0","0","0","Enter Name","0","126","1","White_Screen.jpg","13","134","DrinkShaker.jpg","13"
"022420","12:09:10","36","36","5.0.14.0","2","79","trial1","naming","0","0","0","0","Enter Name","0","122","1","White_Screen.jpg","9","137","VacuumHandheld.jpg","9"
"022420","12:09:10","36","36","5.0.14.0","2","80","trial1","naming","0","0","0","0","Enter Name","0","141","1","White_Screen.jpg","7","175","PotatoMasher_Zigzag.jpg","7"
"022420","12:09:10","36","36","5.0.14.0","2","81","trial1","naming","0","0","0","0","Enter Name","0","130","1","White_Screen.jpg","13","108","TrapAnimal.jpg","13"
"022420","12:09:10","36","36","5.0.14.0","2","82","trial1","naming","0","0","0","0","Enter Name","0","128","1","White_Screen.jpg","5","182","Chair_Airplane.jpg","5"
"022420","12:09:10","36","36","5.0.14.0","2","83","trial1","naming","0","0","0","0","Enter Name","0","142","1","White_Screen.jpg","9","5","Fortress.jpg","9"
"022420","12:09:10","36","36","5.0.14.0","2","84","trial1","naming","0","0","0","0","Enter Name","0","142","1","White_Screen.jpg","13","176","SofaAntique.jpg","13"
"022420","12:09:10","36","36","5.0.14.0","2","85","trial1","naming","0","0","0","0","Enter Name","0","132","1","White_Screen.jpg","14","167","Statue_VirginMary.jpg","14"
"022420","12:09:10","36","36","5.0.14.0","2","86","trial1","naming","0","0","0","0","Enter Name","0","137","1","White_Screen.jpg","9","19","Bindings_Snowboard.jpg","9"
"022420","12:09:10","36","36","5.0.14.0","2","87","trial1","naming","0","0","0","0","Enter Name","0","139","1","White_Screen.jpg","8","102","Tap.jpg","8"
"022420","12:09:10","36","36","5.0.14.0","2","88","trial1","naming","0","0","0","0","Enter Name","0","131","1","White_Screen.jpg","10","165","Brush_Light.jpg","10"
"022420","12:09:10","36","36","5.0.14.0","2","89","trial1","naming","0","0","0","0","Enter Name","0","135","1","White_Screen.jpg","6","143","Teardrop.jpg","6"
"022420","12:09:10","36","36","5.0.14.0","2","90","trial1","naming","0","0","0","0","Enter Name","0","126","1","White_Screen.jpg","9","93","Drink_Green.jpg","9"
"022420","12:09:10","36","36","5.0.14.0","2","91","trial1","naming","0","0","0","0","Enter Name","0","134","1","White_Screen.jpg","12","17","Speaker_OnStand.jpg","12"
"022420","12:09:10","36","36","5.0.14.0","2","92","trial1","naming","0","0","0","0","Enter Name","0","137","1","White_Screen.jpg","8","194","HairDryer.jpg","8"
"022420","12:09:10","36","36","5.0.14.0","2","93","trial1","naming","0","0","0","0","Enter Name","0","129","1","White_Screen.jpg","8","84","Table_Set.jpg","8"
"022420","12:09:10","36","36","5.0.14.0","2","94","trial1","naming","0","0","0","0","Enter Name","0","131","1","White_Screen.jpg","10","100","WateringCan_PlasticDarkGreen.jpg","10"
"022420","12:09:10","36","36","5.0.14.0","2","95","trial1","naming","0","0","0","0","Enter Name","0","124","1","White_Screen.jpg","9","131","Escalator.jpg","9"
"022420","12:09:10","36","36","5.0.14.0","2","96","trial1","naming","0","0","0","0","Enter Name","0","130","1","White_Screen.jpg","13","32","Seashell_BayScallop.jpg","13"
"022420","12:09:10","36","36","5.0.14.0","2","97","trial1","naming","0","0","0","0","Enter Name","0","128","1","White_Screen.jpg","5","60","Dice.jpg","5"
"022420","12:09:10","36","36","5.0.14.0","2","98","trial1","naming","0","0","0","0","Enter Name","0","136","1","White_Screen.jpg","8","149","Cat.jpg","8"
"022420","12:09:10","36","36","5.0.14.0","2","99","trial1","naming","0","0","0","0","Enter Name","0","129","1","White_Screen.jpg","8","158","Mask_VenetianCat.jpg","8"
"022420","12:09:10","36","36","5.0.14.0","2","100","trial1","naming","0","0","0","0","Enter Name","0","146","1","White_Screen.jpg","8","186","Machine_Arm.jpg","8"
"022420","12:09:10","36","36","5.0.14.0","2","101","trial1","naming","0","0","0","0","Enter Name","0","132","1","White_Screen.jpg","6","88","ElasticBand.jpg","6"
"022420","12:09:10","36","36","5.0.14.0","2","103","trial1","naming","0","0","0","0","Enter Name","0","358","1","White_Screen.jpg","8","7","Bread_Loaf.jpg","8"
"022420","12:09:10","36","36","5.0.14.0","2","104","trial1","naming","0","0","0","0","Enter Name","0","114","1","White_Screen.jpg","14","162","Elephant.jpg","14"
"022420","12:09:10","36","36","5.0.14.0","2","105","trial1","naming","0","0","0","0","Enter Name","0","120","1","White_Screen.jpg","8","138","Whip.jpg","8"
"022420","12:09:10","36","36","5.0.14.0","2","106","trial1","naming","0","0","0","0","Enter Name","0","113","1","White_Screen.jpg","8","38","Candy_Heart.jpg","8"
"022420","12:09:10","36","36","5.0.14.0","2","107","trial1","naming","0","0","0","0","Enter Name","0","109","1","White_Screen.jpg","7","95","ServiceBell.jpg","7"
"022420","12:09:10","36","36","5.0.14.0","2","108","trial1","naming","0","0","0","0","Enter Name","0","141","1","White_Screen.jpg","8","40","Chipmunk.jpg","8"
"022420","12:09:10","36","36","5.0.14.0","2","109","trial1","naming","0","0","0","0","Enter Name","0","125","1","White_Screen.jpg","12","51","Flamingo_Cartoon.jpg","12"
"022420","12:09:10","36","36","5.0.14.0","2","110","trial1","naming","0","0","0","0","Enter Name","0","143","1","White_Screen.jpg","11","53","Bird_Cardinal.jpg","11"
"022420","12:09:10","36","36","5.0.14.0","2","111","trial1","naming","0","0","0","0","Enter Name","0","122","1","White_Screen.jpg","7","79","Bottle_Liquor.jpg","7"
"022420","12:09:10","36","36","5.0.14.0","2","112","trial1","naming","0","0","0","0","Enter Name","0","128","1","White_Screen.jpg","13","159","Horseshoe.jpg","13"
"022420","12:09:10","36","36","5.0.14.0","2","113","trial1","naming","0","0","0","0","Enter Name","0","132","1","White_Screen.jpg","7","1","BinRecycling.jpg","7"
"022420","12:09:10","36","36","5.0.14.0","2","114","trial1","naming","0","0","0","0","Enter Name","0","128","1","White_Screen.jpg","12","72","Briefcase_Open.jpg","12"
"022420","12:09:10","36","36","5.0.14.0","2","115","trial1","naming","0","0","0","0","Enter Name","0","142","1","White_Screen.jpg","8","8","Speaker_Computer.jpg","8"
"022420","12:09:10","36","36","5.0.14.0","2","116","trial1","naming","0","0","0","0","Enter Name","0","148","1","White_Screen.jpg","10","105","Stethoscope.jpg","10"
"022420","12:09:10","36","36","5.0.14.0","2","117","trial1","naming","0","0","0","0","Enter Name","0","125","1","White_Screen.jpg","10","126","NintendoWii.jpg","10"
"022420","12:09:10","36","36","5.0.14.0","2","118","trial1","naming","0","0","0","0","Enter Name","0","150","1","White_Screen.jpg","10","78","Puzzle_Tree.jpg","10"
"022420","12:09:10","36","36","5.0.14.0","2","119","trial1","naming","0","0","0","0","Enter Name","0","134","1","White_Screen.jpg","10","20","Star.jpg","10"
"022420","12:09:10","36","36","5.0.14.0","2","120","trial1","naming","0","0","0","0","Enter Name","0","127","1","White_Screen.jpg","10","144","Bag_Hand.jpg","10"
"022420","12:09:10","36","36","5.0.14.0","2","121","trial1","naming","0","0","0","0","Enter Name","0","139","1","White_Screen.jpg","8","129","Bible.jpg","8"
"022420","12:09:10","36","36","5.0.14.0","2","122","trial1","naming","0","0","0","0","Enter Name","0","129","1","White_Screen.jpg","10","174","Toy_Chameleon.jpg","10"
"022420","12:09:10","36","36","5.0.14.0","2","123","trial1","naming","0","0","0","0","Enter Name","0","126","1","White_Screen.jpg","7","127","Bag_Satchel.jpg","7"
"022420","12:09:10","36","36","5.0.14.0","2","124","trial1","naming","0","0","0","0","Enter Name","0","141","1","White_Screen.jpg","9","116","Spool_Thread.jpg","9"
"022420","12:09:10","36","36","5.0.14.0","2","125","trial1","naming","0","0","0","0","Enter Name","0","149","1","White_Screen.jpg","12","104","Tray_Metal.jpg","12"
"022420","12:09:10","36","36","5.0.14.0","2","126","trial1","naming","0","0","0","0","Enter Name","0","124","1","White_Screen.jpg","13","125","RollingPin.jpg","13"
"022420","12:09:10","36","36","5.0.14.0","2","127","trial1","naming","0","0","0","0","Enter Name","0","127","1","White_Screen.jpg","12","50","Pasta_Shell.jpg","12"
"022420","12:09:10","36","36","5.0.14.0","2","128","trial1","naming","0","0","0","0","Enter Name","0","135","1","White_Screen.jpg","13","140","Blueberry.jpg","13"
"022420","12:09:10","36","36","5.0.14.0","2","129","trial1","naming","0","0","0","0","Enter Name","0","131","1","White_Screen.jpg","7","74","Box_WoodenClosed.jpg","7"
"022420","12:09:10","36","36","5.0.14.0","2","130","trial1","naming","0","0","0","0","Enter Name","0","127","1","White_Screen.jpg","5","33","Trumpet.jpg","5"
"022420","12:09:10","36","36","5.0.14.0","2","131","trial1","naming","0","0","0","0","Enter Name","0","132","1","White_Screen.jpg","10","66","Belt.jpg","10"
"022420","12:09:10","36","36","5.0.14.0","2","132","trial1","naming","0","0","0","0","Enter Name","0","129","1","White_Screen.jpg","6","183","LightHouse.jpg","6"
"022420","12:09:10","36","36","5.0.14.0","2","133","trial1","naming","0","0","0","0","Enter Name","0","143","1","White_Screen.jpg","10","111","PaperTowel_Kitchen.jpg","10"
"022420","12:09:10","36","36","5.0.14.0","2","134","trial1","naming","0","0","0","0","Enter Name","0","144","1","White_Screen.jpg","11","154","Pipe.jpg","11"
"022420","12:09:10","36","36","5.0.14.0","2","135","trial1","naming","0","0","0","0","Enter Name","0","115","1","White_Screen.jpg","14","192","Heelpad.jpg","14"
"022420","12:09:10","36","36","5.0.14.0","2","136","trial1","naming","0","0","0","0","Enter Name","0","137","1","White_Screen.jpg","12","57","IroningBoard.jpg","12"
"022420","12:09:10","36","36","5.0.14.0","2","137","trial1","naming","0","0","0","0","Enter Name","0","147","1","White_Screen.jpg","9","110","Honeydew_Green.jpg","9"
"022420","12:09:10","36","36","5.0.14.0","2","138","trial1","naming","0","0","0","0","Enter Name","0","139","1","White_Screen.jpg","10","63","Cheeseburger.jpg","10"
"022420","12:09:10","36","36","5.0.14.0","2","139","trial1","naming","0","0","0","0","Enter Name","0","149","1","White_Screen.jpg","8","67","Cannister_Gas.jpg","8"
"022420","12:09:10","36","36","5.0.14.0","2","140","trial1","naming","0","0","0","0","Enter Name","0","143","1","White_Screen.jpg","6","56","Piano_Keyboard.jpg","6"
"022420","12:09:10","36","36","5.0.14.0","2","141","trial1","naming","0","0","0","0","Enter Name","0","141","1","White_Screen.jpg","12","12","Envelope_Letter.jpg","12"
"022420","12:09:10","36","36","5.0.14.0","2","142","trial1","naming","0","0","0","0","Enter Name","0","144","1","White_Screen.jpg","8","142","Toy_RobotClassic.jpg","8"
"022420","12:09:10","36","36","5.0.14.0","2","143","trial1","naming","0","0","0","0","Enter Name","0","153","1","White_Screen.jpg","7","71","BicycleOdometer.jpg","7"
"022420","12:09:10","36","36","5.0.14.0","2","144","trial1","naming","0","0","0","0","Enter Name","0","151","1","White_Screen.jpg","9","14","Backpack_Travel.jpg","9"
"022420","12:09:10","36","36","5.0.14.0","2","145","trial1","naming","0","0","0","0","Enter Name","0","153","1","White_Screen.jpg","8","62","Flute_Tin.jpg","8"
"022420","12:09:10","36","36","5.0.14.0","2","146","trial1","naming","0","0","0","0","Enter Name","0","145","1","White_Screen.jpg","9","136","TireRims.jpg","9"
"022420","12:09:10","36","36","5.0.14.0","2","147","trial1","naming","0","0","0","0","Enter Name","0","145","1","White_Screen.jpg","9","26","CableConnecter.jpg","9"
"022420","12:09:10","36","36","5.0.14.0","2","148","trial1","naming","0","0","0","0","Enter Name","0","137","1","White_Screen.jpg","12","114","Lighter_Yellow.jpg","12"
"022420","12:09:10","36","36","5.0.14.0","2","149","trial1","naming","0","0","0","0","Enter Name","0","140","1","White_Screen.jpg","8","106","Toy_Turtle.jpg","8"
"022420","12:09:10","36","36","5.0.14.0","2","150","trial1","naming","0","0","0","0","Enter Name","0","132","1","White_Screen.jpg","9","112","Bowl_Chinese.jpg","9"
"022420","12:09:10","36","36","5.0.14.0","2","151","trial1","naming","0","0","0","0","Enter Name","0","136","1","White_Screen.jpg","5","70","Lantern_TeaBox.jpg","5"
"022420","12:09:10","36","36","5.0.14.0","2","152","trial1","naming","0","0","0","0","Enter Name","0","132","1","White_Screen.jpg","12","173","ComputerMouse.jpg","12"
"022420","12:09:10","36","36","5.0.14.0","2","154","trial1","naming","0","0","0","0","Enter Name","0","327","1","White_Screen.jpg","10","27","Buffalo.jpg","10"
"022420","12:09:10","36","36","5.0.14.0","2","155","trial1","naming","0","0","0","0","Enter Name","0","135","1","White_Screen.jpg","8","191","Sieve_TopView.jpg","8"
"022420","12:09:10","36","36","5.0.14.0","2","156","trial1","naming","0","0","0","0","Enter Name","0","136","1","White_Screen.jpg","8","15","Jar_JellyBeans.jpg","8"
"022420","12:09:10","36","36","5.0.14.0","2","157","trial1","naming","0","0","0","0","Enter Name","0","129","1","White_Screen.jpg","8","178","BowlingPin.jpg","8"
"022420","12:09:10","36","36","5.0.14.0","2","158","trial1","naming","0","0","0","0","Enter Name","0","127","1","White_Screen.jpg","13","34","Archery_Arrows.jpg","13"
"022420","12:09:10","36","36","5.0.14.0","2","159","trial1","naming","0","0","0","0","Enter Name","0","136","1","White_Screen.jpg","13","6","Sandwich_Egg.jpg","13"
"022420","12:09:10","36","36","5.0.14.0","2","160","trial1","naming","0","0","0","0","Enter Name","0","139","1","White_Screen.jpg","11","118","Case_Pencil.jpg","11"
"022420","12:09:10","36","36","5.0.14.0","2","161","trial1","naming","0","0","0","0","Enter Name","0","140","1","White_Screen.jpg","9","199","TortillaChip.jpg","9"
"022420","12:09:10","36","36","5.0.14.0","2","162","trial1","naming","0","0","0","0","Enter Name","0","134","1","White_Screen.jpg","8","47","CheeseSlicer.jpg","8"
"022420","12:09:10","36","36","5.0.14.0","2","163","trial1","naming","0","0","0","0","Enter Name","0","122","1","White_Screen.jpg","14","9","Statue_SouthAmerican.jpg","14"
"022420","12:09:10","36","36","5.0.14.0","2","164","trial1","naming","0","0","0","0","Enter Name","0","129","1","White_Screen.jpg","9","82","Pretzel_Sticks.jpg","9"
"022420","12:09:10","36","36","5.0.14.0","2","165","trial1","naming","0","0","0","0","Enter Name","0","155","1","White_Screen.jpg","7","61","Dress_Cocktail.jpg","7"
"022420","12:09:10","36","36","5.0.14.0","2","166","trial1","naming","0","0","0","0","Enter Name","0","147","1","White_Screen.jpg","9","91","Gun_Glue.jpg","9"
"022420","12:09:10","36","36","5.0.14.0","2","167","trial1","naming","0","0","0","0","Enter Name","0","149","1","White_Screen.jpg","6","155","ChocolateBar_Unwrapped.jpg","6"
"022420","12:09:10","36","36","5.0.14.0","2","168","trial1","naming","0","0","0","0","Enter Name","0","133","1","White_Screen.jpg","6","160","SewingPin_Cushion.jpg","6"
"022420","12:09:10","36","36","5.0.14.0","2","169","trial1","naming","0","0","0","0","Enter Name","0","148","1","White_Screen.jpg","10","168","Jack.jpg","10"
"022420","12:09:10","36","36","5.0.14.0","2","170","trial1","naming","0","0","0","0","Enter Name","0","140","1","White_Screen.jpg","10","42","ChalkLineTool.jpg","10"
"022420","12:09:10","36","36","5.0.14.0","2","171","trial1","naming","0","0","0","0","Enter Name","0","158","1","White_Screen.jpg","8","68","Napkin_Single.jpg","8"
"022420","12:09:10","36","36","5.0.14.0","2","172","trial1","naming","0","0","0","0","Enter Name","0","140","1","White_Screen.jpg","11","55","Table_PingPong.jpg","11"
"022420","12:09:10","36","36","5.0.14.0","2","173","trial1","naming","0","0","0","0","Enter Name","0","154","1","White_Screen.jpg","13","139","Spraybottle.jpg","13"
"022420","12:09:10","36","36","5.0.14.0","2","174","trial1","naming","0","0","0","0","Enter Name","0","151","1","White_Screen.jpg","8","44","MusicSheet.jpg","8"
"022420","12:09:10","36","36","5.0.14.0","2","175","trial1","naming","0","0","0","0","Enter Name","0","152","1","White_Screen.jpg","14","96","Hat_Police.jpg","14"
"022420","12:09:10","36","36","5.0.14.0","2","176","trial1","naming","0","0","0","0","Enter Name","0","150","1","White_Screen.jpg","9","195","SmokeDetector.jpg","9"
"022420","12:09:10","36","36","5.0.14.0","2","177","trial1","naming","0","0","0","0","Enter Name","0","135","1","White_Screen.jpg","9","189","Booth_Carnival.jpg","9"
"022420","12:09:10","36","36","5.0.14.0","2","178","trial1","naming","0","0","0","0","Enter Name","0","144","1","White_Screen.jpg","9","28","TinChristmas.jpg","9"
"022420","12:09:10","36","36","5.0.14.0","2","179","trial1","naming","0","0","0","0","Enter Name","0","153","1","White_Screen.jpg","8","115","RibbonString.jpg","8"
"022420","12:09:10","36","36","5.0.14.0","2","180","trial1","naming","0","0","0","0","Enter Name","0","137","1","White_Screen.jpg","9","200","Nutcracker.jpg","9"
"022420","12:09:10","36","36","5.0.14.0","2","181","trial1","naming","0","0","0","0","Enter Name","0","148","1","White_Screen.jpg","6","145","GranolaBar.jpg","6"
"022420","12:09:10","36","36","5.0.14.0","2","182","trial1","naming","0","0","0","0","Enter Name","0","132","1","White_Screen.jpg","7","163","Car_Ferrari.jpg","7"
"022420","12:09:10","36","36","5.0.14.0","2","183","trial1","naming","0","0","0","0","Enter Name","0","133","1","White_Screen.jpg","14","29","AirPump.jpg","14"
"022420","12:09:10","36","36","5.0.14.0","2","184","trial1","naming","0","0","0","0","Enter Name","0","157","1","White_Screen.jpg","7","13","Organ.jpg","7"
"022420","12:09:10","36","36","5.0.14.0","2","185","trial1","naming","0","0","0","0","Enter Name","0","148","1","White_Screen.jpg","9","4","Banana.jpg","9"
"022420","12:09:10","36","36","5.0.14.0","2","186","trial1","naming","0","0","0","0","Enter Name","0","141","1","White_Screen.jpg","8","86","Ladder.jpg","8"
"022420","12:09:10","36","36","5.0.14.0","2","187","trial1","naming","0","0","0","0","Enter Name","0","150","1","White_Screen.jpg","8","48","Carousel copy.jpg","8"
"022420","12:09:10","36","36","5.0.14.0","2","188","trial1","naming","0","0","0","0","Enter Name","0","149","1","White_Screen.jpg","9","196","Kangaroo_WithJoey.jpg","9"
"022420","12:09:10","36","36","5.0.14.0","2","189","trial1","naming","0","0","0","0","Enter Name","0","143","1","White_Screen.jpg","8","128","MeasuringTape.jpg","8"
"022420","12:09:10","36","36","5.0.14.0","2","190","trial1","naming","0","0","0","0","Enter Name","0","150","1","White_Screen.jpg","9","120","Toy_FigurineSwing.jpg","9"
"022420","12:09:10","36","36","5.0.14.0","2","191","trial1","naming","0","0","0","0","Enter Name","0","133","1","White_Screen.jpg","12","198","RAMchip.jpg","12"
"022420","12:09:10","36","36","5.0.14.0","2","192","trial1","naming","0","0","0","0","Enter Name","0","153","1","White_Screen.jpg","8","124","CoffeeBeans.jpg","8"
"022420","12:09:10","36","36","5.0.14.0","2","193","trial1","naming","0","0","0","0","Enter Name","0","132","1","White_Screen.jpg","14","23","SmokingPipe.jpg","14"
"022420","12:09:10","36","36","5.0.14.0","2","194","trial1","naming","0","0","0","0","Enter Name","0","153","1","White_Screen.jpg","8","107","KitchenTools.jpg","8"
"022420","12:09:10","36","36","5.0.14.0","2","195","trial1","naming","0","0","0","0","Enter Name","0","135","1","White_Screen.jpg","13","36","Bottle_Bleach.jpg","13"
"022420","12:09:10","36","36","5.0.14.0","2","196","trial1","naming","0","0","0","0","Enter Name","0","151","1","White_Screen.jpg","13","31","Toy_GasPump.jpg","13"
"022420","12:09:10","36","36","5.0.14.0","2","197","trial1","naming","0","0","0","0","Enter Name","0","150","1","White_Screen.jpg","14","133","Nuts_Pecan.jpg","14"
"022420","12:09:10","36","36","5.0.14.0","2","198","trial1","naming","0","0","0","0","Enter Name","0","140","1","White_Screen.jpg","8","58","Thumbtack.jpg","8"
"022420","12:09:10","36","36","5.0.14.0","2","199","trial1","naming","0","0","0","0","Enter Name","0","155","1","White_Screen.jpg","9","150","Bench_Concrete.jpg","9"
"022420","12:09:10","36","36","5.0.14.0","2","200","trial1","naming","0","0","0","0","Enter Name","0","155","1","White_Screen.jpg","10","187","PatioHeater.jpg","10"
"022420","12:09:10","36","36","5.0.14.0","2","201","trial1","naming","0","0","0","0","Enter Name","0","148","1","White_Screen.jpg","8","99","Pasta_Spaghetti.jpg","8"
"022420","12:09:10","36","36","5.0.14.0","2","202","trial1","naming","0","0","0","0","Enter Name","0","152","1","White_Screen.jpg","5","65","PowerDoorPushButton.jpg","5"
"022420","12:09:10","36","36","5.0.14.0","2","203","trial1","naming","0","0","0","0","Enter Name","0","151","1","White_Screen.jpg","5","153","DoorKnob.jpg","5"
"022420","12:09:10","36","36","5.0.14.0","3","1","demographics_block","gender","0","0","0","0","b","1","11076","0","0","0","0","0","0"
"022420","12:09:10","36","36","5.0.14.0","3","1","demographics_block","age","0","0","0","0","b","1","11076","0","0","0","0","0","0"
"022420","12:09:10","36","36","5.0.14.0","3","1","demographics_block","education","0","0","0","0","b ","1","11076","0","0","0","0","0","0"
"022420","12:09:10","36","36","5.0.14.0","3","2","demographics_block","left_right_handed","0","0","0","0","Left","1","6553","0","0","0","0","0","0"
"022420","12:09:10","36","36","5.0.14.0","3","2","demographics_block","raceoption1","0","0","0","0","0","1","6553","0","0","0","0","0","0"
"022420","12:09:10","36","36","5.0.14.0","3","2","demographics_block","raceoption2","0","0","0","0","","1","6553","0","0","0","0","0","0"
"022420","12:09:10","36","36","5.0.14.0","3","2","demographics_block","raceoption3","0","0","0","0","","1","6553","0","0","0","0","0","0"
"022420","12:09:10","36","36","5.0.14.0","3","2","demographics_block","raceoption4","0","0","0","0","","1","6553","0","0","0","0","0","0"
"022420","12:09:10","36","36","5.0.14.0","3","2","demographics_block","raceoption5","0","0","0","0","","1","6553","0","0","0","0","0","0"
"022420","12:09:10","36","36","5.0.14.0","3","2","demographics_block","raceoption6","0","0","0","0","","1","6553","0","0","0","0","0","0"
"022420","12:09:10","36","36","5.0.14.0","3","2","demographics_block","raceoption7","0","0","0","0","","1","6553","0","0","0","0","0","0"
"022420","12:09:10","36","36","5.0.14.0","3","2","demographics_block","raceoption8","0","0","0","0","","1","6553","0","0","0","0","0","0"
"022420","12:09:10","36","36","5.0.14.0","3","2","demographics_block","raceoption9","0","0","0","0","","1","6553","0","0","0","0","0","0"
"022420","12:09:10","36","36","5.0.14.0","3","2","demographics_block","raceother","0","0","0","0","","1","6553","0","0","0","0","0","0"
"022420","12:09:10","36","36","5.0.14.0","3","2","demographics_block","raceother","0","0","0","0","","1","6553","0","0","0","0","0","0"
"022420","12:09:10","36","36","5.0.14.0","3","2","demographics_block","english_language","0","0","0","0","Yes","1","6553","0","0","0","0","0","0"
"022420","12:09:10","36","36","5.0.14.0","3","2","demographics_block","english_languageother","0","0","0","0","","1","6553","0","0","0","0","0","0"
"022420","12:09:10","36","36","5.0.14.0","3","3","demographics_block","eyesight","0","0","0","0","Yes","1","4408","0","0","0","0","0","0"
"022420","12:09:10","36","36","5.0.14.0","3","3","demographics_block","colorblind","0","0","0","0","No","1","4408","0","0","0","0","0","0"
"022420","12:09:10","36","36","5.0.14.0","4","1","worker_id_block","worker_id_textbox","0","0","0","0","b","1","4291","0","0","0","0","0","0"
"022420","14:08:38","34","34","5.0.14.0","2","1","trial1","naming","0","0","0","0","swing ","0","7203","1","White_Screen.jpg","59","120","Toy_FigurineSwing.jpg","59"
"022420","14:08:38","34","34","5.0.14.0","2","2","trial1","naming","0","0","0","0","nintendo wii","0","8157","1","White_Screen.jpg","6","126","NintendoWii.jpg","6"
"022420","14:08:38","34","34","5.0.14.0","2","3","trial1","naming","0","0","0","0","cardinal","0","4154","1","White_Screen.jpg","8","53","Bird_Cardinal.jpg","8"
"022420","14:08:38","34","34","5.0.14.0","2","4","trial1","naming","0","0","0","0","smoothie","0","2477","1","White_Screen.jpg","7","93","Drink_Green.jpg","7"
"022420","14:08:38","34","34","5.0.14.0","2","5","trial1","naming","0","0","0","0","hair dryer","0","4321","1","White_Screen.jpg","6","194","HairDryer.jpg","6"
"022420","14:08:38","34","34","5.0.14.0","2","6","trial1","naming","0","0","0","0","escape key","0","5314","1","White_Screen.jpg","11","3","ComputerKey_Escape.jpg","11"
"022420","14:08:38","34","34","5.0.14.0","2","7","trial1","naming","0","0","0","0","cat","0","3072","1","White_Screen.jpg","6","149","Cat.jpg","6"
"022420","14:08:38","34","34","5.0.14.0","2","8","trial1","naming","0","0","0","0","cymbals","0","2634","1","White_Screen.jpg","5","164","Drum_Cymbal.jpg","5"
"022420","14:08:38","34","34","5.0.14.0","2","9","trial1","naming","0","0","0","0","ladder","0","2719","1","White_Screen.jpg","9","86","Ladder.jpg","9"
"022420","14:08:38","34","34","5.0.14.0","2","10","trial1","naming","0","0","0","0","banana","0","1879","1","White_Screen.jpg","8","4","Banana.jpg","8"
"022420","14:08:38","34","34","5.0.14.0","2","11","trial1","naming","0","0","0","0","lacrosse stick","0","5604","1","White_Screen.jpg","8","180","Lacrosse_Stick.jpg","8"
"022420","14:08:38","34","34","5.0.14.0","2","12","trial1","naming","0","0","0","0","cheesebuger","0","4951","1","White_Screen.jpg","8","63","Cheeseburger.jpg","8"
"022420","14:08:38","34","34","5.0.14.0","2","13","trial1","naming","0","0","0","0","sushi","0","8372","1","White_Screen.jpg","7","156","Sashimi.jpg","7"
"022420","14:08:38","34","34","5.0.14.0","2","14","trial1","naming","0","0","0","0","horseshoe","0","2835","1","White_Screen.jpg","9","159","Horseshoe.jpg","9"
"022420","14:08:38","34","34","5.0.14.0","2","15","trial1","naming","0","0","0","0","bottle","0","4083","1","White_Screen.jpg","7","79","Bottle_Liquor.jpg","7"
"022420","14:08:38","34","34","5.0.14.0","2","16","trial1","naming","0","0","0","0","keyboard","0","3278","1","White_Screen.jpg","6","56","Piano_Keyboard.jpg","6"
"022420","14:08:38","34","34","5.0.14.0","2","17","trial1","naming","0","0","0","0","goalie helmet","0","6945","1","White_Screen.jpg","9","113","Mask_HockeyGoalie.jpg","9"
"022420","14:08:38","34","34","5.0.14.0","2","18","trial1","naming","0","0","0","0","speakers","0","2746","1","White_Screen.jpg","7","8","Speaker_Computer.jpg","7"
"022420","14:08:38","34","34","5.0.14.0","2","19","trial1","naming","0","0","0","0","laundry basket","0","3609","1","White_Screen.jpg","7","157","LaundryHamper.jpg","7"
"022420","14:08:38","34","34","5.0.14.0","2","20","trial1","naming","0","0","0","0","escalator","0","2637","1","White_Screen.jpg","7","131","Escalator.jpg","7"
"022420","14:08:38","34","34","5.0.14.0","2","21","trial1","naming","0","0","0","0","french bread","0","3788","1","White_Screen.jpg","8","7","Bread_Loaf.jpg","8"
"022420","14:08:38","34","34","5.0.14.0","2","22","trial1","naming","0","0","0","0","avocado","0","2669","1","White_Screen.jpg","7","73","Avocado.jpg","7"
"022420","14:08:38","34","34","5.0.14.0","2","23","trial1","naming","0","0","0","0","dust buster","0","3251","1","White_Screen.jpg","7","137","VacuumHandheld.jpg","7"
"022420","14:08:38","34","34","5.0.14.0","2","24","trial1","naming","0","0","0","0","ping pong table","0","4737","1","White_Screen.jpg","11","55","Table_PingPong.jpg","11"
"022420","14:08:38","34","34","5.0.14.0","2","25","trial1","naming","0","0","0","0","Enter Name","0","10000","1","White_Screen.jpg","7","186","Machine_Arm.jpg","7"
"022420","14:08:38","34","34","5.0.14.0","2","26","trial1","naming","0","0","0","0","pill bottle","0","5402","1","White_Screen.jpg","6","21","PillBottle_Prescription.jpg","6"
"022420","14:08:38","34","34","5.0.14.0","2","27","trial1","naming","0","0","0","0","plastic lizard","0","4101","1","White_Screen.jpg","7","174","Toy_Chameleon.jpg","7"
"022420","14:08:38","34","34","5.0.14.0","2","28","trial1","naming","0","0","0","0","play back","0","5483","1","White_Screen.jpg","10","189","Booth_Carnival.jpg","10"
"022420","14:08:38","34","34","5.0.14.0","2","29","trial1","naming","0","0","0","0","hibiscus","0","2859","1","White_Screen.jpg","10","52","Flower_Hibiscus.jpg","10"
"022420","14:08:38","34","34","5.0.14.0","2","30","trial1","naming","0","0","0","0","case","0","4345","1","White_Screen.jpg","7","127","Bag_Satchel.jpg","7"
"022420","14:08:38","34","34","5.0.14.0","2","31","trial1","naming","0","0","0","0","hole puncher","0","3258","1","White_Screen.jpg","10","87","ThreeHolePunch.jpg","10"
"022420","14:08:38","34","34","5.0.14.0","2","32","trial1","naming","0","0","0","0","chipmunk","0","3697","1","White_Screen.jpg","12","40","Chipmunk.jpg","12"
"022420","14:08:38","34","34","5.0.14.0","2","33","trial1","naming","0","0","0","0","chestnut","0","3328","1","White_Screen.jpg","9","49","Hazelnut.jpg","9"
"022420","14:08:38","34","34","5.0.14.0","2","34","trial1","naming","0","0","0","0","star","0","3235","1","White_Screen.jpg","9","20","Star.jpg","9"
"022420","14:08:38","34","34","5.0.14.0","2","35","trial1","naming","0","0","0","0","seashell","0","2347","1","White_Screen.jpg","7","32","Seashell_BayScallop.jpg","7"
"022420","14:08:38","34","34","5.0.14.0","2","36","trial1","naming","0","0","0","0","masher","0","2666","1","White_Screen.jpg","8","175","PotatoMasher_Zigzag.jpg","8"
"022420","14:08:38","34","34","5.0.14.0","2","37","trial1","naming","0","0","0","0","block toy","0","2998","1","White_Screen.jpg","6","135","Toy_BlocksMultiShape.jpg","6"
"022420","14:08:38","34","34","5.0.14.0","2","38","trial1","naming","0","0","0","0","belt","0","1986","1","White_Screen.jpg","10","66","Belt.jpg","10"
"022420","14:08:38","34","34","5.0.14.0","2","39","trial1","naming","0","0","0","0","warthog","0","3761","1","White_Screen.jpg","7","94","Boar.jpg","7"
"022420","14:08:38","34","34","5.0.14.0","2","40","trial1","naming","0","0","0","0","sharps container","0","4391","1","White_Screen.jpg","7","25","Trash_Medical.jpg","7"
"022420","14:08:38","34","34","5.0.14.0","2","41","trial1","naming","0","0","0","0","thread spool","0","3675","1","White_Screen.jpg","8","116","Spool_Thread.jpg","8"
"022420","14:08:38","34","34","5.0.14.0","2","42","trial1","naming","0","0","0","0","hot glue gun","0","4236","1","White_Screen.jpg","9","91","Gun_Glue.jpg","9"
"022420","14:08:38","34","34","5.0.14.0","2","43","trial1","naming","0","0","0","0","kitchen tools","0","5473","1","White_Screen.jpg","9","107","KitchenTools.jpg","9"
"022420","14:08:38","34","34","5.0.14.0","2","44","trial1","naming","0","0","0","0","ear of corn","0","2916","1","White_Screen.jpg","10","161","Corn.jpg","10"
"022420","14:08:38","34","34","5.0.14.0","2","45","trial1","naming","0","0","0","0","sheet music","0","2776","1","White_Screen.jpg","8","44","MusicSheet.jpg","8"
"022420","14:08:38","34","34","5.0.14.0","2","46","trial1","naming","0","0","0","0","butane heater","0","4044","1","White_Screen.jpg","10","187","PatioHeater.jpg","10"
"022420","14:08:38","34","34","5.0.14.0","2","47","trial1","naming","0","0","0","0","wooden box","0","3748","1","White_Screen.jpg","10","74","Box_WoodenClosed.jpg","10"
"022420","14:08:38","34","34","5.0.14.0","2","48","trial1","naming","0","0","0","0","mary statue","0","4488","1","White_Screen.jpg","6","167","Statue_VirginMary.jpg","6"
"022420","14:08:38","34","34","5.0.14.0","2","49","trial1","naming","0","0","0","0","sewing pin","0","4067","1","White_Screen.jpg","8","169","SewingPin_Single.jpg","8"
"022420","14:08:38","34","34","5.0.14.0","2","50","trial1","naming","0","0","0","0","knife","0","3514","1","White_Screen.jpg","8","193","PocketKnife.jpg","8"
"022420","14:08:38","34","34","5.0.14.0","2","52","trial1","naming","0","0","0","0","carousel","0","5165","1","White_Screen.jpg","8","48","Carousel copy.jpg","8"
"022420","14:08:38","34","34","5.0.14.0","2","53","trial1","naming","0","0","0","0","recycling bin","0","3387","1","White_Screen.jpg","27","1","BinRecycling.jpg","27"
"022420","14:08:38","34","34","5.0.14.0","2","54","trial1","naming","0","0","0","0","briefcase","0","3068","1","White_Screen.jpg","8","72","Briefcase_Open.jpg","8"
"022420","14:08:38","34","34","5.0.14.0","2","55","trial1","naming","0","0","0","0","tea strainer","0","3864","1","White_Screen.jpg","8","191","Sieve_TopView.jpg","8"
"022420","14:08:38","34","34","5.0.14.0","2","56","trial1","naming","0","0","0","0","bell","0","2236","1","White_Screen.jpg","9","95","ServiceBell.jpg","9"
"022420","14:08:38","34","34","5.0.14.0","2","57","trial1","naming","0","0","0","0","toy car","0","2428","1","White_Screen.jpg","9","163","Car_Ferrari.jpg","9"
"022420","14:08:38","34","34","5.0.14.0","2","58","trial1","naming","0","0","0","0","carousel","0","3052","1","White_Screen.jpg","8","75","Toy_MerryGoRound.jpg","8"
"022420","14:08:38","34","34","5.0.14.0","2","59","trial1","naming","0","0","0","0","staple gun","0","3815","1","White_Screen.jpg","7","89","Stapler_Gun.jpg","7"
"022420","14:08:38","34","34","5.0.14.0","2","60","trial1","naming","0","0","0","0","hamper","0","2180","1","White_Screen.jpg","8","83","Chest.jpg","8"
"022420","14:08:38","34","34","5.0.14.0","2","61","trial1","naming","0","0","0","0","envelope","0","2527","1","White_Screen.jpg","9","12","Envelope_Letter.jpg","9"
"022420","14:08:38","34","34","5.0.14.0","2","62","trial1","naming","0","0","0","0","blueberries","0","2555","1","White_Screen.jpg","10","140","Blueberry.jpg","10"
"022420","14:08:38","34","34","5.0.14.0","2","63","trial1","naming","0","0","0","0","crossbow","0","2627","1","White_Screen.jpg","7","22","Crossbow.jpg","7"
"022420","14:08:38","34","34","5.0.14.0","2","64","trial1","naming","0","0","0","0","tortilla chip","0","3870","1","White_Screen.jpg","8","199","TortillaChip.jpg","8"
"022420","14:08:38","34","34","5.0.14.0","2","65","trial1","naming","0","0","0","0","candelabra","0","3254","1","White_Screen.jpg","7","64","Candelabra.jpg","7"
"022420","14:08:38","34","34","5.0.14.0","2","66","trial1","naming","0","0","0","0","cruise ship","0","3185","1","White_Screen.jpg","6","121","Ship_Cruise.jpg","6"
"022420","14:08:38","34","34","5.0.14.0","2","67","trial1","naming","0","0","0","0","vial","0","2502","1","White_Screen.jpg","9","46","TestTube_Single.jpg","9"
"022420","14:08:38","34","34","5.0.14.0","2","68","trial1","naming","0","0","0","0","thumbtack","0","2855","1","White_Screen.jpg","9","58","Thumbtack.jpg","9"
"022420","14:08:38","34","34","5.0.14.0","2","69","trial1","naming","0","0","0","0","mask","0","1932","1","White_Screen.jpg","8","158","Mask_VenetianCat.jpg","8"
"022420","14:08:38","34","34","5.0.14.0","2","70","trial1","naming","0","0","0","0","water drop","0","4146","1","White_Screen.jpg","7","143","Teardrop.jpg","7"
"022420","14:08:38","34","34","5.0.14.0","2","71","trial1","naming","0","0","0","0","recorder","0","5162","1","White_Screen.jpg","21","62","Flute_Tin.jpg","21"
"022420","14:08:38","34","34","5.0.14.0","2","72","trial1","naming","0","0","0","0","mayan statue","0","3981","1","White_Screen.jpg","13","9","Statue_SouthAmerican.jpg","13"
"022420","14:08:38","34","34","5.0.14.0","2","73","trial1","naming","0","0","0","0","rolling pin","0","2696","1","White_Screen.jpg","7","125","RollingPin.jpg","7"
"022420","14:08:38","34","34","5.0.14.0","2","74","trial1","naming","0","0","0","0","musical instrument","0","3753","1","White_Screen.jpg","10","179","Instrument_Guiro.jpg","10"
"022420","14:08:38","34","34","5.0.14.0","2","75","trial1","naming","0","0","0","0","picture frame","0","4261","1","White_Screen.jpg","6","166","PictureFrame.jpg","6"
"022420","14:08:38","34","34","5.0.14.0","2","76","trial1","naming","0","0","0","0","sphygmomanometer","0","8652","1","White_Screen.jpg","12","105","Stethoscope.jpg","12"
"022420","14:08:38","34","34","5.0.14.0","2","77","trial1","naming","0","0","0","0","mannequin with wig","0","10000","1","White_Screen.jpg","11","24","MannequinHead.jpg","11"
"022420","14:08:38","34","34","5.0.14.0","2","78","trial1","naming","0","0","0","0","Enter Name","0","66","1","White_Screen.jpg","8","173","ComputerMouse.jpg","8"
"022420","14:08:38","34","34","5.0.14.0","2","79","trial1","naming","0","0","0","0","camera case","0","4935","1","White_Screen.jpg","7","37","Bag_Camera.jpg","7"
"022420","14:08:38","34","34","5.0.14.0","2","80","trial1","naming","0","0","0","0","pipe organ","0","4784","1","White_Screen.jpg","7","13","Organ.jpg","7"
"022420","14:08:38","34","34","5.0.14.0","2","81","trial1","naming","0","0","0","0","ribbon","0","2152","1","White_Screen.jpg","8","115","RibbonString.jpg","8"
"022420","14:08:38","34","34","5.0.14.0","2","82","trial1","naming","0","0","0","0","slippery road ahead sig","0","4886","1","White_Screen.jpg","8","35","Sign_SlipperyRoad.jpg","8"
"022420","14:08:38","34","34","5.0.14.0","2","83","trial1","naming","0","0","0","0","couch","0","5337","1","White_Screen.jpg","10","176","SofaAntique.jpg","10"
"022420","14:08:38","34","34","5.0.14.0","2","84","trial1","naming","0","0","0","0","lighter","0","2391","1","White_Screen.jpg","8","114","Lighter_Yellow.jpg","8"
"022420","14:08:38","34","34","5.0.14.0","2","85","trial1","naming","0","0","0","0","campfire","0","2744","1","White_Screen.jpg","8","43","Branches_Campfire.jpg","8"
"022420","14:08:38","34","34","5.0.14.0","2","86","trial1","naming","0","0","0","0","bar of soa[p","0","2838","1","White_Screen.jpg","8","10","Soap.jpg","8"
"022420","14:08:38","34","34","5.0.14.0","2","87","trial1","naming","0","0","0","0","gorilla","0","2649","1","White_Screen.jpg","10","90","Gorilla.jpg","10"
"022420","14:08:38","34","34","5.0.14.0","2","88","trial1","naming","0","0","0","0","lighthouse","0","2393","1","White_Screen.jpg","7","183","LightHouse.jpg","7"
"022420","14:08:38","34","34","5.0.14.0","2","89","trial1","naming","0","0","0","0","voltometer","0","6248","1","White_Screen.jpg","7","30","AmpMeter.jpg","7"
"022420","14:08:38","34","34","5.0.14.0","2","90","trial1","naming","0","0","0","0","mens suit jacket","0","4429","1","White_Screen.jpg","9","98","Jacket_Suit.jpg","9"
"022420","14:08:38","34","34","5.0.14.0","2","91","trial1","naming","0","0","0","0","shell pasta","0","5042","1","White_Screen.jpg","9","50","Pasta_Shell.jpg","9"
"022420","14:08:38","34","34","5.0.14.0","2","92","trial1","naming","0","0","0","0","picture frame","0","5149","1","White_Screen.jpg","12","146","CertificateFramed.jpg","12"
"022420","14:08:38","34","34","5.0.14.0","2","93","trial1","naming","0","0","0","0","own","0","1601","1","White_Screen.jpg","9","77","Owl.jpg","9"
"022420","14:08:38","34","34","5.0.14.0","2","94","trial1","naming","0","0","0","0","chocolate bar","0","4118","1","White_Screen.jpg","6","155","ChocolateBar_Unwrapped.jpg","6"
"022420","14:08:38","34","34","5.0.14.0","2","95","trial1","naming","0","0","0","0","die","0","2182","1","White_Screen.jpg","7","60","Dice.jpg","7"
"022420","14:08:38","34","34","5.0.14.0","2","96","trial1","naming","0","0","0","0","plastic lion toy","0","3680","1","White_Screen.jpg","8","122","Toy_Lion.jpg","8"
"022420","14:08:38","34","34","5.0.14.0","2","97","trial1","naming","0","0","0","0","mill","0","2447","1","White_Screen.jpg","9","172","IceCrusher.jpg","9"
"022420","14:08:38","34","34","5.0.14.0","2","98","trial1","naming","0","0","0","0","mill","0","5120","1","White_Screen.jpg","7","152","Stone_Mill.jpg","7"
"022420","14:08:38","34","34","5.0.14.0","2","99","trial1","naming","0","0","0","0","baby toy","0","3807","1","White_Screen.jpg","7","78","Puzzle_Tree.jpg","7"
"022420","14:08:38","34","34","5.0.14.0","2","100","trial1","naming","0","0","0","0","speaker","0","2185","1","White_Screen.jpg","6","17","Speaker_OnStand.jpg","6"
"022420","14:08:38","34","34","5.0.14.0","2","101","trial1","naming","0","0","0","0","barometric pressure ga","0","6956","1","White_Screen.jpg","7","141","Barometer_Wood.jpg","7"
"022420","14:08:38","34","34","5.0.14.0","2","103","trial1","naming","0","0","0","0","gauge","0","5152","1","White_Screen.jpg","9","71","BicycleOdometer.jpg","9"
"022420","14:08:38","34","34","5.0.14.0","2","104","trial1","naming","0","0","0","0","boots","0","5074","1","White_Screen.jpg","11","19","Bindings_Snowboard.jpg","11"
"022420","14:08:38","34","34","5.0.14.0","2","105","trial1","naming","0","0","0","0","satellite dish","0","3922","1","White_Screen.jpg","9","101","SatelliteDish.jpg","9"
"022420","14:08:38","34","34","5.0.14.0","2","106","trial1","naming","0","0","0","0","whip","0","3900","1","White_Screen.jpg","10","138","Whip.jpg","10"
"022420","14:08:38","34","34","5.0.14.0","2","107","trial1","naming","0","0","0","0","melon","0","2444","1","White_Screen.jpg","7","110","Honeydew_Green.jpg","7"
"022420","14:08:38","34","34","5.0.14.0","2","108","trial1","naming","0","0","0","0","granola bar","0","3951","1","White_Screen.jpg","7","145","GranolaBar.jpg","7"
"022420","14:08:38","34","34","5.0.14.0","2","109","trial1","naming","0","0","0","0","bench","0","2096","1","White_Screen.jpg","8","150","Bench_Concrete.jpg","8"
"022420","14:08:38","34","34","5.0.14.0","2","110","trial1","naming","0","0","0","0","air pump","0","4477","1","White_Screen.jpg","9","29","AirPump.jpg","9"
"022420","14:08:38","34","34","5.0.14.0","2","111","trial1","naming","0","0","0","0","roll of paper towels","0","4278","1","White_Screen.jpg","9","111","PaperTowel_Kitchen.jpg","9"
"022420","14:08:38","34","34","5.0.14.0","2","112","trial1","naming","0","0","0","0","nutcracker","0","3256","1","White_Screen.jpg","9","200","Nutcracker.jpg","9"
"022420","14:08:38","34","34","5.0.14.0","2","113","trial1","naming","0","0","0","0","napkin","0","2341","1","White_Screen.jpg","8","68","Napkin_Single.jpg","8"
"022420","14:08:38","34","34","5.0.14.0","2","114","trial1","naming","0","0","0","0","spider web","0","3132","1","White_Screen.jpg","8","148","SpiderWeb.jpg","8"
"022420","14:08:38","34","34","5.0.14.0","2","115","trial1","naming","0","0","0","0","aux jack","0","5453","1","White_Screen.jpg","8","168","Jack.jpg","8"
"022420","14:08:38","34","34","5.0.14.0","2","116","trial1","naming","0","0","0","0","stove burger","0","3935","1","White_Screen.jpg","7","85","GasBurner.jpg","7"
"022420","14:08:38","34","34","5.0.14.0","2","117","trial1","naming","0","0","0","0","bible","0","2382","1","White_Screen.jpg","7","129","Bible.jpg","7"
"022420","14:08:38","34","34","5.0.14.0","2","118","trial1","naming","0","0","0","0","plunger","0","3453","1","White_Screen.jpg","8","130","Syringe_Blunt.jpg","8"
"022420","14:08:38","34","34","5.0.14.0","2","119","trial1","naming","0","0","0","0","playdoh","0","5694","1","White_Screen.jpg","7","39","StickyTack.jpg","7"
"022420","14:08:38","34","34","5.0.14.0","2","120","trial1","naming","0","0","0","0","coffee beans","0","4178","1","White_Screen.jpg","8","124","CoffeeBeans.jpg","8"
"022420","14:08:38","34","34","5.0.14.0","2","121","trial1","naming","0","0","0","0","measuring tape","0","3086","1","White_Screen.jpg","9","128","MeasuringTape.jpg","9"
"022420","14:08:38","34","34","5.0.14.0","2","122","trial1","naming","0","0","0","0","rubber band","0","2658","1","White_Screen.jpg","9","88","ElasticBand.jpg","9"
"022420","14:08:38","34","34","5.0.14.0","2","123","trial1","naming","0","0","0","0","spatula","0","2152","1","White_Screen.jpg","8","119","Spatula_1.jpg","8"
"022420","14:08:38","34","34","5.0.14.0","2","124","trial1","naming","0","0","0","0","nesting tables","0","3241","1","White_Screen.jpg","7","84","Table_Set.jpg","7"
"022420","14:08:38","34","34","5.0.14.0","2","125","trial1","naming","0","0","0","0","parking lot sign","0","4468","1","White_Screen.jpg","8","45","Sign_Parking.jpg","8"
"022420","14:08:38","34","34","5.0.14.0","2","126","trial1","naming","0","0","0","0","cookie cutter tin","0","6037","1","White_Screen.jpg","8","28","TinChristmas.jpg","8"
"022420","14:08:38","34","34","5.0.14.0","2","127","trial1","naming","0","0","0","0","faucet","0","2850","1","White_Screen.jpg","10","102","Tap.jpg","10"
"022420","14:08:38","34","34","5.0.14.0","2","128","trial1","naming","0","0","0","0","toy robot","0","2836","1","White_Screen.jpg","10","142","Toy_RobotClassic.jpg","10"
"022420","14:08:38","34","34","5.0.14.0","2","129","trial1","naming","0","0","0","0","pelican","0","2967","1","White_Screen.jpg","8","123","Bird_Pelican.jpg","8"
"022420","14:08:38","34","34","5.0.14.0","2","130","trial1","naming","0","0","0","0","memory chip","0","5087","1","White_Screen.jpg","8","198","RAMchip.jpg","8"
"022420","14:08:38","34","34","5.0.14.0","2","131","trial1","naming","0","0","0","0","watering can","0","2745","1","White_Screen.jpg","8","100","WateringCan_PlasticDarkGreen.jpg","8"
"022420","14:08:38","34","34","5.0.14.0","2","132","trial1","naming","0","0","0","0","screw gun","0","3881","1","White_Screen.jpg","9","92","Drill.jpg","9"
"022420","14:08:38","34","34","5.0.14.0","2","133","trial1","naming","0","0","0","0","candle lantern","0","4142","1","White_Screen.jpg","8","70","Lantern_TeaBox.jpg","8"
"022420","14:08:38","34","34","5.0.14.0","2","134","trial1","naming","0","0","0","0","heart","0","1953","1","White_Screen.jpg","8","38","Candy_Heart.jpg","8"
"022420","14:08:38","34","34","5.0.14.0","2","135","trial1","naming","0","0","0","0","wire strippers","0","3827","1","White_Screen.jpg","8","69","WireStripper.jpg","8"
"022420","14:08:38","34","34","5.0.14.0","2","136","trial1","naming","0","0","0","0","plate","0","2446","1","White_Screen.jpg","7","104","Tray_Metal.jpg","7"
"022420","14:08:38","34","34","5.0.14.0","2","137","trial1","naming","0","0","0","0","privacy screen","0","9154","1","White_Screen.jpg","6","11","Partition.jpg","6"
"022420","14:08:38","34","34","5.0.14.0","2","138","trial1","naming","0","0","0","0","jelly bean jar","0","4201","1","White_Screen.jpg","7","15","Jar_JellyBeans.jpg","7"
"022420","14:08:38","34","34","5.0.14.0","2","139","trial1","naming","0","0","0","0","spaghetti","0","3801","1","White_Screen.jpg","10","99","Pasta_Spaghetti.jpg","10"
"022420","14:08:38","34","34","5.0.14.0","2","140","trial1","naming","0","0","0","0","toy turtle","0","2620","1","White_Screen.jpg","7","106","Toy_Turtle.jpg","7"
"022420","14:08:38","34","34","5.0.14.0","2","141","trial1","naming","0","0","0","0","gas pump","0","2914","1","White_Screen.jpg","9","31","Toy_GasPump.jpg","9"
"022420","14:08:38","34","34","5.0.14.0","2","142","trial1","naming","0","0","0","0","string measure","0","5268","1","White_Screen.jpg","7","42","ChalkLineTool.jpg","7"
"022420","14:08:38","34","34","5.0.14.0","2","143","trial1","naming","0","0","0","0","t square","0","4940","1","White_Screen.jpg","6","185","SetSquare.jpg","6"
"022420","14:08:38","34","34","5.0.14.0","2","144","trial1","naming","0","0","0","0","tobacco pipe","0","4270","1","White_Screen.jpg","11","23","SmokingPipe.jpg","11"
"022420","14:08:38","34","34","5.0.14.0","2","145","trial1","naming","0","0","0","0","diaper bag","0","3324","1","White_Screen.jpg","8","80","Bag_Diaper.jpg","8"
"022420","14:08:38","34","34","5.0.14.0","2","146","trial1","naming","0","0","0","0","margarita shaker","0","5126","1","White_Screen.jpg","8","134","DrinkShaker.jpg","8"
"022420","14:08:38","34","34","5.0.14.0","2","147","trial1","naming","0","0","0","0","high chair","0","3337","1","White_Screen.jpg","10","59","Chair_High.jpg","10"
"022420","14:08:38","34","34","5.0.14.0","2","148","trial1","naming","0","0","0","0","wire","0","4746","1","White_Screen.jpg","9","197","Wire_ElectricalSingle.jpg","9"
"022420","14:08:38","34","34","5.0.14.0","2","149","trial1","naming","0","0","0","0","metal","0","4957","1","White_Screen.jpg","7","181","CarSuspension.jpg","7"
"022420","14:08:38","34","34","5.0.14.0","2","150","trial1","naming","0","0","0","0","pitcher","0","2226","1","White_Screen.jpg","7","171","Jug_Milk.jpg","7"
"022420","14:08:38","34","34","5.0.14.0","2","151","trial1","naming","0","0","0","0","knight helmet","0","3885","1","White_Screen.jpg","8","132","Helmet_Soldier.jpg","8"
"022420","14:08:38","34","34","5.0.14.0","2","152","trial1","naming","0","0","0","0","castle","0","2322","1","White_Screen.jpg","7","5","Fortress.jpg","7"
"022420","14:08:38","34","34","5.0.14.0","2","154","trial1","naming","0","0","0","0","pin cushion","0","4284","1","White_Screen.jpg","8","160","SewingPin_Cushion.jpg","8"
"022420","14:08:38","34","34","5.0.14.0","2","155","trial1","naming","0","0","0","0","barbecue","0","2525","1","White_Screen.jpg","6","151","Grill_Gas.jpg","6"
"022420","14:08:38","34","34","5.0.14.0","2","156","trial1","naming","0","0","0","0","elephant","0","2106","1","White_Screen.jpg","9","162","Elephant.jpg","9"
"022420","14:08:38","34","34","5.0.14.0","2","157","trial1","naming","0","0","0","0","pipe","0","1961","1","White_Screen.jpg","8","154","Pipe.jpg","8"
"022420","14:08:38","34","34","5.0.14.0","2","158","trial1","naming","0","0","0","0","smoke detector","0","4251","1","White_Screen.jpg","9","195","SmokeDetector.jpg","9"
"022420","14:08:38","34","34","5.0.14.0","2","159","trial1","naming","0","0","0","0","pottery","0","2580","1","White_Screen.jpg","11","184","Pottery.jpg","11"
"022420","14:08:38","34","34","5.0.14.0","2","160","trial1","naming","0","0","0","0","chess board","0","2959","1","White_Screen.jpg","9","103","Boardgame_Chess.jpg","9"
"022420","14:08:38","34","34","5.0.14.0","2","161","trial1","naming","0","0","0","0","buffalo","0","5314","1","White_Screen.jpg","11","27","Buffalo.jpg","11"
"022420","14:08:38","34","34","5.0.14.0","2","162","trial1","naming","0","0","0","0","bowling pin","0","3469","1","White_Screen.jpg","7","178","BowlingPin.jpg","7"
"022420","14:08:38","34","34","5.0.14.0","2","163","trial1","naming","0","0","0","0","gallon jug","0","3415","1","White_Screen.jpg","9","36","Bottle_Bleach.jpg","9"
"022420","14:08:38","34","34","5.0.14.0","2","164","trial1","naming","0","0","0","0","egg salad sandwich","0","4329","1","White_Screen.jpg","9","6","Sandwich_Egg.jpg","9"
"022420","14:08:38","34","34","5.0.14.0","2","165","trial1","naming","0","0","0","0","baby booties","0","2994","1","White_Screen.jpg","10","81","Booties_Blue.jpg","10"
"022420","14:08:38","34","34","5.0.14.0","2","166","trial1","naming","0","0","0","0","t shirt","0","1830","1","White_Screen.jpg","8","76","Shirt_Tshirt.jpg","8"
"022420","14:08:38","34","34","5.0.14.0","2","167","trial1","naming","0","0","0","0","propane tank","0","3945","1","White_Screen.jpg","7","67","Cannister_Gas.jpg","7"
"022420","14:08:38","34","34","5.0.14.0","2","168","trial1","naming","0","0","0","0","kangaroos","0","2759","1","White_Screen.jpg","8","196","Kangaroo_WithJoey.jpg","8"
"022420","14:08:38","34","34","5.0.14.0","2","169","trial1","naming","0","0","0","0","cheese slicer","0","3191","1","White_Screen.jpg","9","47","CheeseSlicer.jpg","9"
"022420","14:08:38","34","34","5.0.14.0","2","170","trial1","naming","0","0","0","0","windmill","0","2526","1","White_Screen.jpg","9","147","Windmill_Building.jpg","9"
"022420","14:08:38","34","34","5.0.14.0","2","171","trial1","naming","0","0","0","0","flamingo","0","2093","1","White_Screen.jpg","10","51","Flamingo_Cartoon.jpg","10"
"022420","14:08:38","34","34","5.0.14.0","2","172","trial1","naming","0","0","0","0","traffic cone","0","3106","1","White_Screen.jpg","9","109","PylonTraffic.jpg","9"
"022420","14:08:38","34","34","5.0.14.0","2","173","trial1","naming","0","0","0","0","deshedder","0","4483","1","White_Screen.jpg","6","165","Brush_Light.jpg","6"
"022420","14:08:38","34","34","5.0.14.0","2","174","trial1","naming","0","0","0","0","ironing board","0","3557","1","White_Screen.jpg","7","57","IroningBoard.jpg","7"
"022420","14:08:38","34","34","5.0.14.0","2","175","trial1","naming","0","0","0","0","ski mask","0","2711","1","White_Screen.jpg","7","190","Mask_Ski.jpg","7"
"022420","14:08:38","34","34","5.0.14.0","2","176","trial1","naming","0","0","0","0","doorknob","0","2889","1","White_Screen.jpg","9","153","DoorKnob.jpg","9"
"022420","14:08:38","34","34","5.0.14.0","2","177","trial1","naming","0","0","0","0","pouch","0","2701","1","White_Screen.jpg","7","118","Case_Pencil.jpg","7"
"022420","14:08:38","34","34","5.0.14.0","2","178","trial1","naming","0","0","0","0","dress","0","2189","1","White_Screen.jpg","9","61","Dress_Cocktail.jpg","9"
"022420","14:08:38","34","34","5.0.14.0","2","179","trial1","naming","0","0","0","0","pretzel sticks","0","3477","1","White_Screen.jpg","8","82","Pretzel_Sticks.jpg","8"
"022420","14:08:38","34","34","5.0.14.0","2","180","trial1","naming","0","0","0","0","cat 5 cable","0","4511","1","White_Screen.jpg","9","18","Cord_usb.jpg","9"
"022420","14:08:38","34","34","5.0.14.0","2","181","trial1","naming","0","0","0","0","dish","0","3580","1","White_Screen.jpg","8","112","Bowl_Chinese.jpg","8"
"022420","14:08:38","34","34","5.0.14.0","2","182","trial1","naming","0","0","0","0","pecan","0","3935","1","White_Screen.jpg","8","133","Nuts_Pecan.jpg","8"
"022420","14:08:38","34","34","5.0.14.0","2","183","trial1","naming","0","0","0","0","cables","0","4681","1","White_Screen.jpg","8","26","CableConnecter.jpg","8"
"022420","14:08:38","34","34","5.0.14.0","2","184","trial1","naming","0","0","0","0","honeycomb","0","3157","1","White_Screen.jpg","7","97","Honeycomb.jpg","7"
"022420","14:08:38","34","34","5.0.14.0","2","185","trial1","naming","0","0","0","0","chair","0","4572","1","White_Screen.jpg","6","182","Chair_Airplane.jpg","6"
"022420","14:08:38","34","34","5.0.14.0","2","186","trial1","naming","0","0","0","0","balcony","0","2357","1","White_Screen.jpg","9","177","Balcony.jpg","9"
"022420","14:08:38","34","34","5.0.14.0","2","187","trial1","naming","0","0","0","0","spray bottle","0","2621","1","White_Screen.jpg","9","139","Spraybottle.jpg","9"
"022420","14:08:38","34","34","5.0.14.0","2","188","trial1","naming","0","0","0","0","toy train","0","2373","1","White_Screen.jpg","8","2","Toy_Train.jpg","8"
"022420","14:08:38","34","34","5.0.14.0","2","189","trial1","naming","0","0","0","0","bong","0","3804","1","White_Screen.jpg","10","41","BunsenBurner.jpg","10"
"022420","14:08:38","34","34","5.0.14.0","2","190","trial1","naming","0","0","0","0","iron","0","2083","1","White_Screen.jpg","10","117","Iron_Antique.jpg","10"
"022420","14:08:38","34","34","5.0.14.0","2","191","trial1","naming","0","0","0","0","chest","0","2834","1","White_Screen.jpg","7","54","Trunk.jpg","7"
"022420","14:08:38","34","34","5.0.14.0","2","192","trial1","naming","0","0","0","0","lamp","0","2028","1","White_Screen.jpg","13","188","Lamp_Table.jpg","13"
"022420","14:08:38","34","34","5.0.14.0","2","193","trial1","naming","0","0","0","0","bag","0","1612","1","White_Screen.jpg","6","144","Bag_Hand.jpg","6"
"022420","14:08:38","34","34","5.0.14.0","2","194","trial1","naming","0","0","0","0","mousetrap","0","4117","1","White_Screen.jpg","10","108","TrapAnimal.jpg","10"
"022420","14:08:38","34","34","5.0.14.0","2","195","trial1","naming","0","0","0","0","wheel","0","1770","1","White_Screen.jpg","13","136","TireRims.jpg","13"
"022420","14:08:38","34","34","5.0.14.0","2","196","trial1","naming","0","0","0","0","dumpling","0","3561","1","White_Screen.jpg","8","16","Wontons.jpg","8"
"022420","14:08:38","34","34","5.0.14.0","2","197","trial1","naming","0","0","0","0","trumpet","0","2662","1","White_Screen.jpg","6","33","Trumpet.jpg","6"
"022420","14:08:38","34","34","5.0.14.0","2","198","trial1","naming","0","0","0","0","duffel bag","0","2747","1","White_Screen.jpg","7","14","Backpack_Travel.jpg","7"
"022420","14:08:38","34","34","5.0.14.0","2","199","trial1","naming","0","0","0","0","handicap door button","0","6112","1","White_Screen.jpg","11","65","PowerDoorPushButton.jpg","11"
"022420","14:08:38","34","34","5.0.14.0","2","200","trial1","naming","0","0","0","0","desk","0","1996","1","White_Screen.jpg","8","170","Desk_Office.jpg","8"
"022420","14:08:38","34","34","5.0.14.0","2","201","trial1","naming","0","0","0","0","hat","0","2425","1","White_Screen.jpg","10","96","Hat_Police.jpg","10"
"022420","14:08:38","34","34","5.0.14.0","2","202","trial1","naming","0","0","0","0","quiver","0","7525","1","White_Screen.jpg","11","34","Archery_Arrows.jpg","11"
"022420","14:08:38","34","34","5.0.14.0","2","203","trial1","naming","0","0","0","0","eye soothers","0","5676","1","White_Screen.jpg","12","192","Heelpad.jpg","12"
"022420","14:08:38","34","34","5.0.14.0","3","1","demographics_block","gender","0","0","0","0","female","1","12256","0","0","0","0","0","0"
"022420","14:08:38","34","34","5.0.14.0","3","1","demographics_block","age","0","0","0","0","40","1","12256","0","0","0","0","0","0"
"022420","14:08:38","34","34","5.0.14.0","3","1","demographics_block","education","0","0","0","0","16","1","12256","0","0","0","0","0","0"
"022420","14:08:38","34","34","5.0.14.0","3","2","demographics_block","left_right_handed","0","0","0","0","Right","1","6169","0","0","0","0","0","0"
"022420","14:08:38","34","34","5.0.14.0","3","2","demographics_block","raceoption1","0","0","0","0","0","1","6169","0","0","0","0","0","0"
"022420","14:08:38","34","34","5.0.14.0","3","2","demographics_block","raceoption2","0","0","0","0","","1","6169","0","0","0","0","0","0"
"022420","14:08:38","34","34","5.0.14.0","3","2","demographics_block","raceoption3","0","0","0","0","","1","6169","0","0","0","0","0","0"
"022420","14:08:38","34","34","5.0.14.0","3","2","demographics_block","raceoption4","0","0","0","0","","1","6169","0","0","0","0","0","0"
"022420","14:08:38","34","34","5.0.14.0","3","2","demographics_block","raceoption5","0","0","0","0","","1","6169","0","0","0","0","0","0"
"022420","14:08:38","34","34","5.0.14.0","3","2","demographics_block","raceoption6","0","0","0","0","","1","6169","0","0","0","0","0","0"
"022420","14:08:38","34","34","5.0.14.0","3","2","demographics_block","raceoption7","0","0","0","0","","1","6169","0","0","0","0","0","0"
"022420","14:08:38","34","34","5.0.14.0","3","2","demographics_block","raceoption8","0","0","0","0","","1","6169","0","0","0","0","0","0"
"022420","14:08:38","34","34","5.0.14.0","3","2","demographics_block","raceoption9","0","0","0","0","","1","6169","0","0","0","0","0","0"
"022420","14:08:38","34","34","5.0.14.0","3","2","demographics_block","raceother","0","0","0","0","","1","6169","0","0","0","0","0","0"
"022420","14:08:38","34","34","5.0.14.0","3","2","demographics_block","raceother","0","0","0","0","","1","6169","0","0","0","0","0","0"
"022420","14:08:38","34","34","5.0.14.0","3","2","demographics_block","english_language","0","0","0","0","Yes","1","6169","0","0","0","0","0","0"
"022420","14:08:38","34","34","5.0.14.0","3","2","demographics_block","english_languageother","0","0","0","0","","1","6169","0","0","0","0","0","0"
"022420","14:08:38","34","34","5.0.14.0","3","3","demographics_block","eyesight","0","0","0","0","Yes","1","4940","0","0","0","0","0","0"
"022420","14:08:38","34","34","5.0.14.0","3","3","demographics_block","colorblind","0","0","0","0","No","1","4940","0","0","0","0","0","0"
"022420","14:08:38","34","34","5.0.14.0","4","1","worker_id_block","worker_id_textbox","0","0","0","0","A3TY6AZHFWTKN0","1","3196","0","0","0","0","0","0"
"022420","15:13:59","40","40","5.0.14.0","2","1","trial1","naming","0","0","0","0","divider","0","6496","1","White_Screen.jpg","192","11","Partition.jpg","192"
"022420","15:13:59","40","40","5.0.14.0","2","2","trial1","naming","0","0","0","0","ribbon","0","6843","1","White_Screen.jpg","10","115","RibbonString.jpg","10"
"022420","15:13:59","40","40","5.0.14.0","2","3","trial1","naming","0","0","0","0","desk","0","3215","1","White_Screen.jpg","10","170","Desk_Office.jpg","10"
"022420","15:13:59","40","40","5.0.14.0","2","4","trial1","naming","0","0","0","0","sticks","0","3581","1","White_Screen.jpg","10","43","Branches_Campfire.jpg","10"
"022420","15:13:59","40","40","5.0.14.0","2","5","trial1","naming","0","0","0","0","spatula","0","3869","1","White_Screen.jpg","10","47","CheeseSlicer.jpg","10"
"022420","15:13:59","40","40","5.0.14.0","2","6","trial1","naming","0","0","0","0","pasta","0","3073","1","White_Screen.jpg","9","99","Pasta_Spaghetti.jpg","9"
"022420","15:13:59","40","40","5.0.14.0","2","7","trial1","naming","0","0","0","0","oil bottle","0","5493","1","White_Screen.jpg","9","79","Bottle_Liquor.jpg","9"
"022420","15:13:59","40","40","5.0.14.0","2","8","trial1","naming","0","0","0","0","gas pump","0","3687","1","White_Screen.jpg","10","31","Toy_GasPump.jpg","10"
"022420","15:13:59","40","40","5.0.14.0","2","9","trial1","naming","0","0","0","0","iron","0","4002","1","White_Screen.jpg","10","117","Iron_Antique.jpg","10"
"022420","15:13:59","40","40","5.0.14.0","2","10","trial1","naming","0","0","0","0","heart sponge","0","5817","1","White_Screen.jpg","10","38","Candy_Heart.jpg","10"
"022420","15:13:59","40","40","5.0.14.0","2","11","trial1","naming","0","0","0","0","blueberries","0","4223","1","White_Screen.jpg","10","140","Blueberry.jpg","10"
"022420","15:13:59","40","40","5.0.14.0","2","12","trial1","naming","0","0","0","0","corn on the cob","0","4573","1","White_Screen.jpg","9","161","Corn.jpg","9"
"022420","15:13:59","40","40","5.0.14.0","2","13","trial1","naming","0","0","0","0","cruise ship","0","3909","1","White_Screen.jpg","9","121","Ship_Cruise.jpg","9"
"022420","15:13:59","40","40","5.0.14.0","2","14","trial1","naming","0","0","0","0","tape measure","0","3469","1","White_Screen.jpg","11","128","MeasuringTape.jpg","11"
"022420","15:13:59","40","40","5.0.14.0","2","15","trial1","naming","0","0","0","0","bowl","0","5489","1","White_Screen.jpg","11","112","Bowl_Chinese.jpg","11"
"022420","15:13:59","40","40","5.0.14.0","2","16","trial1","naming","0","0","0","0","p","0","10000","1","White_Screen.jpg","9","189","Booth_Carnival.jpg","9"
"022420","15:13:59","40","40","5.0.14.0","2","17","trial1","naming","0","0","0","0","pipe organ","0","5955","1","White_Screen.jpg","10","13","Organ.jpg","10"
"022420","15:13:59","40","40","5.0.14.0","2","18","trial1","naming","0","0","0","0","outdoor heater","0","4059","1","White_Screen.jpg","10","187","PatioHeater.jpg","10"
"022420","15:13:59","40","40","5.0.14.0","2","19","trial1","naming","0","0","0","0","pipe","0","6079","1","White_Screen.jpg","10","154","Pipe.jpg","10"
"022420","15:13:59","40","40","5.0.14.0","2","20","trial1","naming","0","0","0","0","instrument","0","4650","1","White_Screen.jpg","10","179","Instrument_Guiro.jpg","10"
"022420","15:13:59","40","40","5.0.14.0","2","21","trial1","naming","0","0","0","0","chess board","0","3304","1","White_Screen.jpg","9","103","Boardgame_Chess.jpg","9"
"022420","15:13:59","40","40","5.0.14.0","2","22","trial1","naming","0","0","0","0","napkin","0","3010","1","White_Screen.jpg","10","68","Napkin_Single.jpg","10"
"022420","15:13:59","40","40","5.0.14.0","2","23","trial1","naming","0","0","0","0","helmet","0","3001","1","White_Screen.jpg","8","132","Helmet_Soldier.jpg","8"
"022420","15:13:59","40","40","5.0.14.0","2","24","trial1","naming","0","0","0","0","banana","0","2503","1","White_Screen.jpg","10","4","Banana.jpg","10"
"022420","15:13:59","40","40","5.0.14.0","2","25","trial1","naming","0","0","0","0","kangaroo","0","3258","1","White_Screen.jpg","9","196","Kangaroo_WithJoey.jpg","9"
"022420","15:13:59","40","40","5.0.14.0","2","26","trial1","naming","0","0","0","0","","0","10000","1","White_Screen.jpg","9","108","TrapAnimal.jpg","9"
"022420","15:13:59","40","40","5.0.14.0","2","27","trial1","naming","0","0","0","0","computer mouse","0","4580","1","White_Screen.jpg","10","173","ComputerMouse.jpg","10"
"022420","15:13:59","40","40","5.0.14.0","2","28","trial1","naming","0","0","0","0","wire","0","2499","1","White_Screen.jpg","10","197","Wire_ElectricalSingle.jpg","10"
"022420","15:13:59","40","40","5.0.14.0","2","29","trial1","naming","0","0","0","0","spool of thread","0","6055","1","White_Screen.jpg","9","116","Spool_Thread.jpg","9"
"022420","15:13:59","40","40","5.0.14.0","2","30","trial1","naming","0","0","0","0","fire detector","0","7434","1","White_Screen.jpg","9","195","SmokeDetector.jpg","9"
"022420","15:13:59","40","40","5.0.14.0","2","31","trial1","naming","0","0","0","0","gorilla","0","3168","1","White_Screen.jpg","9","90","Gorilla.jpg","9"
"022420","15:13:59","40","40","5.0.14.0","2","32","trial1","naming","0","0","0","0","dress","0","2792","1","White_Screen.jpg","9","61","Dress_Cocktail.jpg","9"
"022420","15:13:59","40","40","5.0.14.0","2","33","trial1","naming","0","0","0","0","high chair","0","3263","1","White_Screen.jpg","9","59","Chair_High.jpg","9"
"022420","15:13:59","40","40","5.0.14.0","2","34","trial1","naming","0","0","0","0","nutcracker","0","3948","1","White_Screen.jpg","8","200","Nutcracker.jpg","8"
"022420","15:13:59","40","40","5.0.14.0","2","35","trial1","naming","0","0","0","0","bag","0","2427","1","White_Screen.jpg","9","144","Bag_Hand.jpg","9"
"022420","15:13:59","40","40","5.0.14.0","2","36","trial1","naming","0","0","0","0","paper towel roll","0","5073","1","White_Screen.jpg","9","111","PaperTowel_Kitchen.jpg","9"
"022420","15:13:59","40","40","5.0.14.0","2","37","trial1","naming","0","0","0","0","Bible","0","2868","1","White_Screen.jpg","10","129","Bible.jpg","10"
"022420","15:13:59","40","40","5.0.14.0","2","38","trial1","naming","0","0","0","0","utensils","0","4841","1","White_Screen.jpg","9","107","KitchenTools.jpg","9"
"022420","15:13:59","40","40","5.0.14.0","2","39","trial1","naming","0","0","0","0","robot","0","2630","1","White_Screen.jpg","9","142","Toy_RobotClassic.jpg","9"
"022420","15:13:59","40","40","5.0.14.0","2","40","trial1","naming","0","0","0","0","Enter Name","0","1380","1","White_Screen.jpg","9","199","TortillaChip.jpg","9"
"022420","15:13:59","40","40","5.0.14.0","2","41","trial1","naming","0","0","0","0","pliers","0","5354","1","White_Screen.jpg","10","69","WireStripper.jpg","10"
"022420","15:13:59","40","40","5.0.14.0","2","42","trial1","naming","0","0","0","0","pouch","0","7147","1","White_Screen.jpg","9","37","Bag_Camera.jpg","9"
"022420","15:13:59","40","40","5.0.14.0","2","43","trial1","naming","0","0","0","0","walnut","0","3235","1","White_Screen.jpg","11","133","Nuts_Pecan.jpg","11"
"022420","15:13:59","40","40","5.0.14.0","2","44","trial1","naming","0","0","0","0","coffee beans","0","4553","1","White_Screen.jpg","9","124","CoffeeBeans.jpg","9"
"022420","15:13:59","40","40","5.0.14.0","2","45","trial1","naming","0","0","0","0","needle bin","0","6042","1","White_Screen.jpg","9","25","Trash_Medical.jpg","9"
"022420","15:13:59","40","40","5.0.14.0","2","46","trial1","naming","0","0","0","0","cordless drill","0","5726","1","White_Screen.jpg","10","92","Drill.jpg","10"
"022420","15:13:59","40","40","5.0.14.0","2","47","trial1","naming","0","0","0","0","lighthouse","0","3736","1","White_Screen.jpg","9","183","LightHouse.jpg","9"
"022420","15:13:59","40","40","5.0.14.0","2","48","trial1","naming","0","0","0","0","merry go round","0","4536","1","White_Screen.jpg","10","48","Carousel copy.jpg","10"
"022420","15:13:59","40","40","5.0.14.0","2","49","trial1","naming","0","0","0","0","syri","0","10000","1","White_Screen.jpg","9","130","Syringe_Blunt.jpg","9"
"022420","15:13:59","40","40","5.0.14.0","2","50","trial1","naming","0","0","0","0","faucet","0","4922","1","White_Screen.jpg","8","102","Tap.jpg","8"
"022420","15:13:59","40","40","5.0.14.0","2","52","trial1","naming","0","0","0","0","glue gun","0","4006","1","White_Screen.jpg","9","91","Gun_Glue.jpg","9"
"022420","15:13:59","40","40","5.0.14.0","2","53","trial1","naming","0","0","0","0","traffic sign","0","4859","1","White_Screen.jpg","9","35","Sign_SlipperyRoad.jpg","9"
"022420","15:13:59","40","40","5.0.14.0","2","54","trial1","naming","0","0","0","0","soap","0","6311","1","White_Screen.jpg","9","10","Soap.jpg","9"
"022420","15:13:59","40","40","5.0.14.0","2","55","trial1","naming","0","0","0","0","box","0","3073","1","White_Screen.jpg","9","74","Box_WoodenClosed.jpg","9"
"022420","15:13:59","40","40","5.0.14.0","2","56","trial1","naming","0","0","0","0","vessel","0","7333","1","White_Screen.jpg","10","46","TestTube_Single.jpg","10"
"022420","15:13:59","40","40","5.0.14.0","2","57","trial1","naming","0","0","0","0","helmet","0","3486","1","White_Screen.jpg","9","113","Mask_HockeyGoalie.jpg","9"
"022420","15:13:59","40","40","5.0.14.0","2","58","trial1","naming","0","0","0","0","fortress","0","3770","1","White_Screen.jpg","9","5","Fortress.jpg","9"
"022420","15:13:59","40","40","5.0.14.0","2","59","trial1","naming","0","0","0","0","horseshoe","0","4873","1","White_Screen.jpg","10","159","Horseshoe.jpg","10"
"022420","15:13:59","40","40","5.0.14.0","2","60","trial1","naming","0","0","0","0","clay","0","6510","1","White_Screen.jpg","9","184","Pottery.jpg","9"
"022420","15:13:59","40","40","5.0.14.0","2","61","trial1","naming","0","0","0","0","sushi","0","2895","1","White_Screen.jpg","9","156","Sashimi.jpg","9"
"022420","15:13:59","40","40","5.0.14.0","2","62","trial1","naming","0","0","0","0","speaker","0","4633","1","White_Screen.jpg","10","17","Speaker_OnStand.jpg","10"
"022420","15:13:59","40","40","5.0.14.0","2","63","trial1","naming","0","0","0","0","grater","0","6959","1","White_Screen.jpg","9","172","IceCrusher.jpg","9"
"022420","15:13:59","40","40","5.0.14.0","2","64","trial1","naming","0","0","0","0","","0","10000","1","White_Screen.jpg","10","152","Stone_Mill.jpg","10"
"022420","15:13:59","40","40","5.0.14.0","2","65","trial1","naming","0","0","0","0","hair dryer","0","4477","1","White_Screen.jpg","11","194","HairDryer.jpg","11"
"022420","15:13:59","40","40","5.0.14.0","2","66","trial1","naming","0","0","0","0","pitcher","0","3073","1","White_Screen.jpg","9","171","Jug_Milk.jpg","9"
"022420","15:13:59","40","40","5.0.14.0","2","67","trial1","naming","0","0","0","0","container","0","9259","1","White_Screen.jpg","11","67","Cannister_Gas.jpg","11"
"022420","15:13:59","40","40","5.0.14.0","2","68","trial1","naming","0","0","0","0","eletrode measurer","0","10000","1","White_Screen.jpg","9","30","AmpMeter.jpg","9"
"022420","15:13:59","40","40","5.0.14.0","2","69","trial1","naming","0","0","0","0","ox","0","2943","1","White_Screen.jpg","10","27","Buffalo.jpg","10"
"022420","15:13:59","40","40","5.0.14.0","2","70","trial1","naming","0","0","0","0","bowling pin","0","3487","1","White_Screen.jpg","10","178","BowlingPin.jpg","10"
"022420","15:13:59","40","40","5.0.14.0","2","71","trial1","naming","0","0","0","0","rubber band","0","3987","1","White_Screen.jpg","9","88","ElasticBand.jpg","9"
"022420","15:13:59","40","40","5.0.14.0","2","72","trial1","naming","0","0","0","0","tree puzzle","0","6698","1","White_Screen.jpg","10","78","Puzzle_Tree.jpg","10"
"022420","15:13:59","40","40","5.0.14.0","2","73","trial1","naming","0","0","0","0","cheeseburger","0","4261","1","White_Screen.jpg","10","63","Cheeseburger.jpg","10"
"022420","15:13:59","40","40","5.0.14.0","2","74","trial1","naming","0","0","0","0","fruit","0","4193","1","White_Screen.jpg","10","110","Honeydew_Green.jpg","10"
"022420","15:13:59","40","40","5.0.14.0","2","75","trial1","naming","0","0","0","0","plug","0","10000","1","White_Screen.jpg","10","168","Jack.jpg","10"
"022420","15:13:59","40","40","5.0.14.0","2","76","trial1","naming","0","0","0","0","knife","0","6158","1","White_Screen.jpg","9","193","PocketKnife.jpg","9"
"022420","15:13:59","40","40","5.0.14.0","2","77","trial1","naming","0","0","0","0","doorknob","0","4175","1","White_Screen.jpg","9","153","DoorKnob.jpg","9"
"022420","15:13:59","40","40","5.0.14.0","2","78","trial1","naming","0","0","0","0","hat","0","2614","1","White_Screen.jpg","10","96","Hat_Police.jpg","10"
"022420","15:13:59","40","40","5.0.14.0","2","79","trial1","naming","0","0","0","0","jar of jellybeans","0","4716","1","White_Screen.jpg","9","15","Jar_JellyBeans.jpg","9"
"022420","15:13:59","40","40","5.0.14.0","2","80","trial1","naming","0","0","0","0","backpack","0","3926","1","White_Screen.jpg","9","14","Backpack_Travel.jpg","9"
"022420","15:13:59","40","40","5.0.14.0","2","81","trial1","naming","0","0","0","0","ski mask","0","3655","1","White_Screen.jpg","9","190","Mask_Ski.jpg","9"
"022420","15:13:59","40","40","5.0.14.0","2","82","trial1","naming","0","0","0","0","","0","10000","1","White_Screen.jpg","10","136","TireRims.jpg","10"
"022420","15:13:59","40","40","5.0.14.0","2","83","trial1","naming","0","0","0","0","potato masher","0","4400","1","White_Screen.jpg","12","175","PotatoMasher_Zigzag.jpg","12"
"022420","15:13:59","40","40","5.0.14.0","2","84","trial1","naming","0","0","0","0","escalator","0","7745","1","White_Screen.jpg","10","131","Escalator.jpg","10"
"022420","15:13:59","40","40","5.0.14.0","2","85","trial1","naming","0","0","0","0","gps","0","4570","1","White_Screen.jpg","10","71","BicycleOdometer.jpg","10"
"022420","15:13:59","40","40","5.0.14.0","2","86","trial1","naming","0","0","0","0","owl","0","2296","1","White_Screen.jpg","11","77","Owl.jpg","11"
"022420","15:13:59","40","40","5.0.14.0","2","87","trial1","naming","0","0","0","0","egg salad sandwich","0","7699","1","White_Screen.jpg","10","6","Sandwich_Egg.jpg","10"
"022420","15:13:59","40","40","5.0.14.0","2","88","trial1","naming","0","0","0","0","lacrosse stick","0","5215","1","White_Screen.jpg","9","180","Lacrosse_Stick.jpg","9"
"022420","15:13:59","40","40","5.0.14.0","2","89","trial1","naming","0","0","0","0","lighter","0","2685","1","White_Screen.jpg","9","114","Lighter_Yellow.jpg","9"
"022420","15:13:59","40","40","5.0.14.0","2","90","trial1","naming","0","0","0","0","Enter Name","0","799","1","White_Screen.jpg","10","26","CableConnecter.jpg","10"
"022420","15:13:59","40","40","5.0.14.0","2","91","trial1","naming","0","0","0","0","chipmunk","0","4421","1","White_Screen.jpg","11","40","Chipmunk.jpg","11"
"022420","15:13:59","40","40","5.0.14.0","2","92","trial1","naming","0","0","0","0","computer speakers","0","4997","1","White_Screen.jpg","9","8","Speaker_Computer.jpg","9"
"022420","15:13:59","40","40","5.0.14.0","2","93","trial1","naming","0","0","0","0","laundry basket","0","5562","1","White_Screen.jpg","11","157","LaundryHamper.jpg","11"
"022420","15:13:59","40","40","5.0.14.0","2","94","trial1","naming","0","0","0","0","pin","0","4971","1","White_Screen.jpg","10","169","SewingPin_Single.jpg","10"
"022420","15:13:59","40","40","5.0.14.0","2","95","trial1","naming","0","0","0","0","","0","10000","1","White_Screen.jpg","10","141","Barometer_Wood.jpg","10"
"022420","15:13:59","40","40","5.0.14.0","2","96","trial1","naming","0","0","0","0","RAM","0","4058","1","White_Screen.jpg","9","198","RAMchip.jpg","9"
"022420","15:13:59","40","40","5.0.14.0","2","97","trial1","naming","0","0","0","0","flute","0","3614","1","White_Screen.jpg","9","62","Flute_Tin.jpg","9"
"022420","15:13:59","40","40","5.0.14.0","2","98","trial1","naming","0","0","0","0","trumpet","0","4822","1","White_Screen.jpg","8","33","Trumpet.jpg","8"
"022420","15:13:59","40","40","5.0.14.0","2","99","trial1","naming","0","0","0","0","chair","0","9873","1","White_Screen.jpg","10","182","Chair_Airplane.jpg","10"
"022420","15:13:59","40","40","5.0.14.0","2","100","trial1","naming","0","0","0","0","mask","0","4085","1","White_Screen.jpg","9","158","Mask_VenetianCat.jpg","9"
"022420","15:13:59","40","40","5.0.14.0","2","101","trial1","naming","0","0","0","0","cat","0","2296","1","White_Screen.jpg","10","149","Cat.jpg","10"
"022420","15:13:59","40","40","5.0.14.0","2","103","trial1","naming","0","0","0","0","burner","0","3846","1","White_Screen.jpg","9","85","GasBurner.jpg","9"
"022420","15:13:59","40","40","5.0.14.0","2","104","trial1","naming","0","0","0","0","bunsen burner","0","5587","1","White_Screen.jpg","9","41","BunsenBurner.jpg","9"
"022420","15:13:59","40","40","5.0.14.0","2","105","trial1","naming","0","0","0","0","toy lizzard","0","6265","1","White_Screen.jpg","11","174","Toy_Chameleon.jpg","11"
"022420","15:13:59","40","40","5.0.14.0","2","106","trial1","naming","0","0","0","0","keyboard","0","8302","1","White_Screen.jpg","9","56","Piano_Keyboard.jpg","9"
"022420","15:13:59","40","40","5.0.14.0","2","107","trial1","naming","0","0","0","0","toy merry go round","0","6225","1","White_Screen.jpg","10","75","Toy_MerryGoRound.jpg","10"
"022420","15:13:59","40","40","5.0.14.0","2","108","trial1","naming","0","0","0","0","pouch","0","3694","1","White_Screen.jpg","9","118","Case_Pencil.jpg","9"
"022420","15:13:59","40","40","5.0.14.0","2","109","trial1","naming","0","0","0","0","watering can","0","3576","1","White_Screen.jpg","10","100","WateringCan_PlasticDarkGreen.jpg","10"
"022420","15:13:59","40","40","5.0.14.0","2","110","trial1","naming","0","0","0","0","shoes","0","9911","1","White_Screen.jpg","11","19","Bindings_Snowboard.jpg","11"
"022420","15:13:59","40","40","5.0.14.0","2","111","trial1","naming","0","0","0","0","cleaner bottle","0","4866","1","White_Screen.jpg","10","139","Spraybottle.jpg","10"
"022420","15:13:59","40","40","5.0.14.0","2","112","trial1","naming","0","0","0","0","baby shoes","0","4308","1","White_Screen.jpg","11","81","Booties_Blue.jpg","11"
"022420","15:13:59","40","40","5.0.14.0","2","113","trial1","naming","0","0","0","0","statue","0","3688","1","White_Screen.jpg","9","9","Statue_SouthAmerican.jpg","9"
"022420","15:13:59","40","40","5.0.14.0","2","114","trial1","naming","0","0","0","0","suit jacket","0","5817","1","White_Screen.jpg","12","98","Jacket_Suit.jpg","12"
"022420","15:13:59","40","40","5.0.14.0","2","115","trial1","naming","0","0","0","0","recycle bin","0","4072","1","White_Screen.jpg","11","1","BinRecycling.jpg","11"
"022420","15:13:59","40","40","5.0.14.0","2","116","trial1","naming","0","0","0","0","star","0","6204","1","White_Screen.jpg","10","20","Star.jpg","10"
"022420","15:13:59","40","40","5.0.14.0","2","117","trial1","naming","0","0","0","0","","0","6691","1","White_Screen.jpg","9","181","CarSuspension.jpg","9"
"022420","15:13:59","40","40","5.0.14.0","2","118","trial1","naming","0","0","0","0","block puzzle","0","5157","1","White_Screen.jpg","10","135","Toy_BlocksMultiShape.jpg","10"
"022420","15:13:59","40","40","5.0.14.0","2","119","trial1","naming","0","0","0","0","cookie tin","0","4509","1","White_Screen.jpg","10","28","TinChristmas.jpg","10"
"022420","15:13:59","40","40","5.0.14.0","2","120","trial1","naming","0","0","0","0","spider web","0","3912","1","White_Screen.jpg","9","148","SpiderWeb.jpg","9"
"022420","15:13:59","40","40","5.0.14.0","2","121","trial1","naming","0","0","0","0","sheet music","0","8833","1","White_Screen.jpg","10","44","MusicSheet.jpg","10"
"022420","15:13:59","40","40","5.0.14.0","2","122","trial1","naming","0","0","0","0","shoe soles","0","9259","1","White_Screen.jpg","14","192","Heelpad.jpg","14"
"022420","15:13:59","40","40","5.0.14.0","2","123","trial1","naming","0","0","0","0","honeycomb","0","4123","1","White_Screen.jpg","9","97","Honeycomb.jpg","9"
"022420","15:13:59","40","40","5.0.14.0","2","124","trial1","naming","0","0","0","0","stepladder","0","4508","1","White_Screen.jpg","10","86","Ladder.jpg","10"
"022420","15:13:59","40","40","5.0.14.0","2","125","trial1","naming","0","0","0","0","rubber spatula","0","4158","1","White_Screen.jpg","10","119","Spatula_1.jpg","10"
"022420","15:13:59","40","40","5.0.14.0","2","126","trial1","naming","0","0","0","0","Mary figurine","0","10000","1","White_Screen.jpg","11","167","Statue_VirginMary.jpg","11"
"022420","15:13:59","40","40","5.0.14.0","2","127","trial1","naming","0","0","0","0","leather couch","0","4710","1","White_Screen.jpg","9","176","SofaAntique.jpg","9"
"022420","15:13:59","40","40","5.0.14.0","2","128","trial1","naming","0","0","0","0","warthog","0","3076","1","White_Screen.jpg","13","94","Boar.jpg","13"
"022420","15:13:59","40","40","5.0.14.0","2","129","trial1","naming","0","0","0","0","grill","0","8344","1","White_Screen.jpg","12","151","Grill_Gas.jpg","12"
"022420","15:13:59","40","40","5.0.14.0","2","130","trial1","naming","0","0","0","0","bin","0","4889","1","White_Screen.jpg","12","83","Chest.jpg","12"
"022420","15:13:59","40","40","5.0.14.0","2","131","trial1","naming","0","0","0","0","strainer","0","5358","1","White_Screen.jpg","9","191","Sieve_TopView.jpg","9"
"022420","15:13:59","40","40","5.0.14.0","2","132","trial1","naming","0","0","0","0","avacado","0","3597","1","White_Screen.jpg","11","73","Avocado.jpg","11"
"022420","15:13:59","40","40","5.0.14.0","2","133","trial1","naming","0","0","0","0","chocolate","0","2988","1","White_Screen.jpg","10","155","ChocolateBar_Unwrapped.jpg","10"
"022420","15:13:59","40","40","5.0.14.0","2","134","trial1","naming","0","0","0","0","ironing board","0","3637","1","White_Screen.jpg","8","57","IroningBoard.jpg","8"
"022420","15:13:59","40","40","5.0.14.0","2","135","trial1","naming","0","0","0","0","figurine","0","6576","1","White_Screen.jpg","9","120","Toy_FigurineSwing.jpg","9"
"022420","15:13:59","40","40","5.0.14.0","2","136","trial1","naming","0","0","0","0","cardinal","0","3271","1","White_Screen.jpg","11","53","Bird_Cardinal.jpg","11"
"022420","15:13:59","40","40","5.0.14.0","2","137","trial1","naming","0","0","0","0","dust buster","0","4642","1","White_Screen.jpg","10","137","VacuumHandheld.jpg","10"
"022420","15:13:59","40","40","5.0.14.0","2","138","trial1","naming","0","0","0","0","envelope","0","3280","1","White_Screen.jpg","9","12","Envelope_Letter.jpg","9"
"022420","15:13:59","40","40","5.0.14.0","2","139","trial1","naming","0","0","0","0","measuring string","0","7419","1","White_Screen.jpg","9","42","ChalkLineTool.jpg","9"
"022420","15:13:59","40","40","5.0.14.0","2","140","trial1","naming","0","0","0","0","bow","0","4320","1","White_Screen.jpg","10","22","Crossbow.jpg","10"
"022420","15:13:59","40","40","5.0.14.0","2","141","trial1","naming","0","0","0","0","ping pong table","0","4027","1","White_Screen.jpg","9","55","Table_PingPong.jpg","9"
"022420","15:13:59","40","40","5.0.14.0","2","142","trial1","naming","0","0","0","0","dumpling","0","6297","1","White_Screen.jpg","9","16","Wontons.jpg","9"
"022420","15:13:59","40","40","5.0.14.0","2","143","trial1","naming","0","0","0","0","snack bar","0","6386","1","White_Screen.jpg","11","145","GranolaBar.jpg","11"
"022420","15:13:59","40","40","5.0.14.0","2","144","trial1","naming","0","0","0","0","lion figurine","0","4882","1","White_Screen.jpg","10","122","Toy_Lion.jpg","10"
"022420","15:13:59","40","40","5.0.14.0","2","145","trial1","naming","0","0","0","0","pin cushion","0","4733","1","White_Screen.jpg","9","160","SewingPin_Cushion.jpg","9"
"022420","15:13:59","40","40","5.0.14.0","2","146","trial1","naming","0","0","0","0","stacking tables","0","4829","1","White_Screen.jpg","10","84","Table_Set.jpg","10"
"022420","15:13:59","40","40","5.0.14.0","2","147","trial1","naming","0","0","0","0","cocktail shaker","0","4187","1","White_Screen.jpg","10","134","DrinkShaker.jpg","10"
"022420","15:13:59","40","40","5.0.14.0","2","148","trial1","naming","0","0","0","0","computer wire","0","9067","1","White_Screen.jpg","10","18","Cord_usb.jpg","10"
"022420","15:13:59","40","40","5.0.14.0","2","149","trial1","naming","0","0","0","0","bell","0","3271","1","White_Screen.jpg","9","95","ServiceBell.jpg","9"
"022420","15:13:59","40","40","5.0.14.0","2","150","trial1","naming","0","0","0","0","hibiscus flower","0","8938","1","White_Screen.jpg","10","52","Flower_Hibiscus.jpg","10"
"022420","15:13:59","40","40","5.0.14.0","2","151","trial1","naming","0","0","0","0","parking sign","0","4315","1","White_Screen.jpg","11","45","Sign_Parking.jpg","11"
"022420","15:13:59","40","40","5.0.14.0","2","152","trial1","naming","0","0","0","0","robotic arm","0","3724","1","White_Screen.jpg","11","186","Machine_Arm.jpg","11"
"022420","15:13:59","40","40","5.0.14.0","2","154","trial1","naming","0","0","0","0","acorn","0","3046","1","White_Screen.jpg","20","49","Hazelnut.jpg","20"
"022420","15:13:59","40","40","5.0.14.0","2","155","trial1","naming","0","0","0","0","traffic cone","0","3607","1","White_Screen.jpg","7","109","PylonTraffic.jpg","7"
"022420","15:13:59","40","40","5.0.14.0","2","156","trial1","naming","0","0","0","0","heron","0","3363","1","White_Screen.jpg","9","123","Bird_Pelican.jpg","9"
"022420","15:13:59","40","40","5.0.14.0","2","157","trial1","naming","0","0","0","0","frame","0","4522","1","White_Screen.jpg","10","146","CertificateFramed.jpg","10"
"022420","15:13:59","40","40","5.0.14.0","2","158","trial1","naming","0","0","0","0","plastic turtle","0","3987","1","White_Screen.jpg","11","106","Toy_Turtle.jpg","11"
"022420","15:13:59","40","40","5.0.14.0","2","159","trial1","naming","0","0","0","0","antenna","0","9602","1","White_Screen.jpg","9","101","SatelliteDish.jpg","9"
"022420","15:13:59","40","40","5.0.14.0","2","160","trial1","naming","0","0","0","0","lamp","0","2680","1","White_Screen.jpg","11","188","Lamp_Table.jpg","11"
"022420","15:13:59","40","40","5.0.14.0","2","161","trial1","naming","0","0","0","0","escape key","0","6004","1","White_Screen.jpg","10","3","ComputerKey_Escape.jpg","10"
"022420","15:13:59","40","40","5.0.14.0","2","162","trial1","naming","0","0","0","0","briefcase","0","8931","1","White_Screen.jpg","9","72","Briefcase_Open.jpg","9"
"022420","15:13:59","40","40","5.0.14.0","2","163","trial1","naming","0","0","0","0","hole puncher","0","5132","1","White_Screen.jpg","9","87","ThreeHolePunch.jpg","9"
"022420","15:13:59","40","40","5.0.14.0","2","164","trial1","naming","0","0","0","0","air pump","0","6502","1","White_Screen.jpg","9","29","AirPump.jpg","9"
"022420","15:13:59","40","40","5.0.14.0","2","165","trial1","naming","0","0","0","0","candleabra","0","7433","1","White_Screen.jpg","9","64","Candelabra.jpg","9"
"022420","15:13:59","40","40","5.0.14.0","2","166","trial1","naming","0","0","0","0","pipe","0","2782","1","White_Screen.jpg","9","23","SmokingPipe.jpg","9"
"022420","15:13:59","40","40","5.0.14.0","2","167","trial1","naming","0","0","0","0","fence","0","7485","1","White_Screen.jpg","9","177","Balcony.jpg","9"
"022420","15:13:59","40","40","5.0.14.0","2","168","trial1","naming","0","0","0","0","bag","0","2248","1","White_Screen.jpg","10","80","Bag_Diaper.jpg","10"
"022420","15:13:59","40","40","5.0.14.0","2","169","trial1","naming","0","0","0","0","platter","0","2957","1","White_Screen.jpg","10","104","Tray_Metal.jpg","10"
"022420","15:13:59","40","40","5.0.14.0","2","170","trial1","naming","0","0","0","0","die","0","2622","1","White_Screen.jpg","8","60","Dice.jpg","8"
"022420","15:13:59","40","40","5.0.14.0","2","171","trial1","naming","0","0","0","0","quiver","0","2947","1","White_Screen.jpg","10","34","Archery_Arrows.jpg","10"
"022420","15:13:59","40","40","5.0.14.0","2","172","trial1","naming","0","0","0","0","pretzel sticks","0","4348","1","White_Screen.jpg","10","82","Pretzel_Sticks.jpg","10"
"022420","15:13:59","40","40","5.0.14.0","2","173","trial1","naming","0","0","0","0","t-shirt","0","3110","1","White_Screen.jpg","8","76","Shirt_Tshirt.jpg","8"
"022420","15:13:59","40","40","5.0.14.0","2","174","trial1","naming","0","0","0","0","sports car","0","4013","1","White_Screen.jpg","11","163","Car_Ferrari.jpg","11"
"022420","15:13:59","40","40","5.0.14.0","2","175","trial1","naming","0","0","0","0","elephant","0","2757","1","White_Screen.jpg","9","162","Elephant.jpg","9"
"022420","15:13:59","40","40","5.0.14.0","2","176","trial1","naming","0","0","0","0","tear drop","0","3661","1","White_Screen.jpg","9","143","Teardrop.jpg","9"
