"date","time","group","subject","build","blocknum","trialnum","blockcode","trialcode","pretrialpause","posttrialpause","trialduration","trialtimeout","response","correct","latency","stimulusnumber1","stimulusitem1","stimulusonset1","stimulusnumber2","stimulusitem2","stimulusonset2"
"081219","10:40:38","4","4","5.0.14.0","2","1","trial1","naming","0","0","0","0"," pipe","0","2582","1","White_Screen.jpg","51","23","SmokingPipe.jpg","51"
"081219","10:40:38","4","4","5.0.14.0","2","2","trial1","naming","0","0","0","0","ship","0","3382","1","White_Screen.jpg","17","121","Ship_Cruise.jpg","17"
"081219","10:40:38","4","4","5.0.14.0","2","3","trial1","naming","0","0","0","0","Ctrl+'Q'","1","2162","1","White_Screen.jpg","18","110","Honeydew_Green.jpg","18"
"081219","11:01:05","6","6","5.0.14.0","2","1","trial1","naming","0","0","0","0","sushi","0","5023","1","White_Screen.jpg","18","156","Sashimi.jpg","18"
"081219","11:01:05","6","6","5.0.14.0","2","2","trial1","naming","0","0","0","0","Enter Name","0","10000","1","White_Screen.jpg","3","131","Escalator.jpg","3"
"081219","11:01:05","6","6","5.0.14.0","2","3","trial1","naming","0","0","0","0","paintbrush","0","8073","1","White_Screen.jpg","4","165","Brush_Light.jpg","4"
"081219","11:01:05","6","6","5.0.14.0","2","4","trial1","naming","0","0","0","0","dress","0","2815","1","White_Screen.jpg","2","61","Dress_Cocktail.jpg","2"
"081219","11:01:05","6","6","5.0.14.0","2","5","trial1","naming","0","0","0","0","bowling pin","0","4495","1","White_Screen.jpg","5","178","BowlingPin.jpg","5"
"081219","11:01:05","6","6","5.0.14.0","2","6","trial1","naming","0","0","0","0","speakers","0","2797","1","White_Screen.jpg","4","17","Speaker_OnStand.jpg","4"
"081219","11:01:05","6","6","5.0.14.0","2","7","trial1","naming","0","0","0","0","baby seat","0","4865","1","White_Screen.jpg","2","59","Chair_High.jpg","2"
"081219","11:01:05","6","6","5.0.14.0","2","8","trial1","naming","0","0","0","0","cat","0","3610","1","White_Screen.jpg","4","149","Cat.jpg","4"
"081219","11:01:05","6","6","5.0.14.0","2","9","trial1","naming","0","0","0","0","banana","0","2689","1","White_Screen.jpg","2","4","Banana.jpg","2"
"081219","11:01:05","6","6","5.0.14.0","2","10","trial1","naming","0","0","0","0","plate","0","2957","1","White_Screen.jpg","4","104","Tray_Metal.jpg","4"
"081219","11:01:05","6","6","5.0.14.0","2","11","trial1","naming","0","0","0","0","drill","0","10000","1","White_Screen.jpg","3","92","Drill.jpg","3"
"081219","11:01:05","6","6","5.0.14.0","2","12","trial1","naming","0","0","0","0","Enter Name","0","10000","1","White_Screen.jpg","4","177","Balcony.jpg","4"
"081219","11:01:05","6","6","5.0.14.0","2","13","trial1","naming","0","0","0","0","stove top","0","7174","1","White_Screen.jpg","2","85","GasBurner.jpg","2"
"081219","11:01:05","6","6","5.0.14.0","2","14","trial1","naming","0","0","0","0","Enter Name","0","10000","1","White_Screen.jpg","3","151","Grill_Gas.jpg","3"
"081219","11:01:05","6","6","5.0.14.0","2","15","trial1","naming","0","0","0","0","toy","0","8536","1","White_Screen.jpg","3","75","Toy_MerryGoRound.jpg","3"
"081219","11:01:05","6","6","5.0.14.0","2","16","trial1","naming","0","0","0","0","Enter Name","0","10000","1","White_Screen.jpg","4","186","Machine_Arm.jpg","4"
"081219","11:01:05","6","6","5.0.14.0","2","17","trial1","naming","0","0","0","0","Ctrl+'Q'","1","4994","1","White_Screen.jpg","3","144","Bag_Hand.jpg","3"
"081219","11:10:44","8","8","5.0.14.0","2","1","trial1","naming","0","0","0","0","Enter Name","0","10000","1","White_Screen.jpg","84","164","Drum_Cymbal.jpg","84"
"081219","11:10:44","8","8","5.0.14.0","2","2","trial1","naming","0","0","0","0","Enter Name","0","10000","1","White_Screen.jpg","17","58","Thumbtack.jpg","17"
"081219","11:10:44","8","8","5.0.14.0","2","3","trial1","naming","0","0","0","0","Ctrl+'Q'","1","8149","1","White_Screen.jpg","21","114","Lighter_Yellow.jpg","21"
"081219","11:04:45","7","7","5.0.14.0","2","1","trial1","naming","0","0","0","0","tortilla chip","0","7104","1","White_Screen.jpg","65","199","TortillaChip.jpg","65"
"081219","11:04:45","7","7","5.0.14.0","2","2","trial1","naming","0","0","0","0","pitcher","0","5023","1","White_Screen.jpg","5","171","Jug_Milk.jpg","5"
"081219","11:04:45","7","7","5.0.14.0","2","3","trial1","naming","0","0","0","0","bread","0","5141","1","White_Screen.jpg","6","7","Bread_Loaf.jpg","6"
"081219","11:04:45","7","7","5.0.14.0","2","4","trial1","naming","0","0","0","0","purse","0","3543","1","White_Screen.jpg","5","127","Bag_Satchel.jpg","5"
"081219","11:04:45","7","7","5.0.14.0","2","5","trial1","naming","0","0","0","0","cheeseburger","0","4020","1","White_Screen.jpg","5","63","Cheeseburger.jpg","5"
"081219","11:04:45","7","7","5.0.14.0","2","6","trial1","naming","0","0","0","0","spaghetti","0","5087","1","White_Screen.jpg","11","99","Pasta_Spaghetti.jpg","11"
"081219","11:04:45","7","7","5.0.14.0","2","7","trial1","naming","0","0","0","0","press","0","7035","1","White_Screen.jpg","5","41","BunsenBurner.jpg","5"
"081219","11:04:45","7","7","5.0.14.0","2","8","trial1","naming","0","0","0","0","sports pouch","0","6275","1","White_Screen.jpg","9","37","Bag_Camera.jpg","9"
"081219","11:04:45","7","7","5.0.14.0","2","9","trial1","naming","0","0","0","0","cat","0","2918","1","White_Screen.jpg","6","149","Cat.jpg","6"
"081219","11:04:45","7","7","5.0.14.0","2","10","trial1","naming","0","0","0","0","ping-pong table","0","4433","1","White_Screen.jpg","4","55","Table_PingPong.jpg","4"
"081219","11:04:45","7","7","5.0.14.0","2","11","trial1","naming","0","0","0","0","carousel","0","4641","1","White_Screen.jpg","7","75","Toy_MerryGoRound.jpg","7"
"081219","11:04:45","7","7","5.0.14.0","2","12","trial1","naming","0","0","0","0","metal turning piece","0","9826","1","White_Screen.jpg","5","181","CarSuspension.jpg","5"
"081219","11:04:45","7","7","5.0.14.0","2","13","trial1","naming","0","0","0","0","bull","0","3491","1","White_Screen.jpg","4","27","Buffalo.jpg","4"
"081219","11:04:45","7","7","5.0.14.0","2","14","trial1","naming","0","0","0","0","flute","0","3909","1","White_Screen.jpg","10","62","Flute_Tin.jpg","10"
"081219","11:04:45","7","7","5.0.14.0","2","15","trial1","naming","0","0","0","0","battery connector","0","9265","1","White_Screen.jpg","6","30","AmpMeter.jpg","6"
"081219","11:04:45","7","7","5.0.14.0","2","16","trial1","naming","0","0","0","0","bear trap","0","6631","1","White_Screen.jpg","6","108","TrapAnimal.jpg","6"
"081219","11:04:45","7","7","5.0.14.0","2","17","trial1","naming","0","0","0","0","medical device","0","5745","1","White_Screen.jpg","7","186","Machine_Arm.jpg","7"
"081219","11:04:45","7","7","5.0.14.0","2","18","trial1","naming","0","0","0","0","key fob","0","4762","1","White_Screen.jpg","6","42","ChalkLineTool.jpg","6"
"081219","11:04:45","7","7","5.0.14.0","2","19","trial1","naming","0","0","0","0","clay","0","4441","1","White_Screen.jpg","6","184","Pottery.jpg","6"
"081219","11:04:45","7","7","5.0.14.0","2","20","trial1","naming","0","0","0","0","laundry basket","0","5461","1","White_Screen.jpg","5","157","LaundryHamper.jpg","5"
"081219","11:04:45","7","7","5.0.14.0","2","21","trial1","naming","0","0","0","0","road sign","0","3292","1","White_Screen.jpg","4","35","Sign_SlipperyRoad.jpg","4"
"081219","11:04:45","7","7","5.0.14.0","2","22","trial1","naming","0","0","0","0","trumpet","0","3469","1","White_Screen.jpg","5","33","Trumpet.jpg","5"
"081219","11:04:45","7","7","5.0.14.0","2","23","trial1","naming","0","0","0","0","kindling","0","5864","1","White_Screen.jpg","10","43","Branches_Campfire.jpg","10"
"081219","11:04:45","7","7","5.0.14.0","2","24","trial1","naming","0","0","0","0","T-shirt","0","3260","1","White_Screen.jpg","9","76","Shirt_Tshirt.jpg","9"
"081219","11:04:45","7","7","5.0.14.0","2","25","trial1","naming","0","0","0","0","backpack","0","5212","1","White_Screen.jpg","5","14","Backpack_Travel.jpg","5"
"081219","11:04:45","7","7","5.0.14.0","2","26","trial1","naming","0","0","0","0","cheese cutter","0","4636","1","White_Screen.jpg","5","47","CheeseSlicer.jpg","5"
"081219","11:04:45","7","7","5.0.14.0","2","27","trial1","naming","0","0","0","0","pin","0","5427","1","White_Screen.jpg","9","169","SewingPin_Single.jpg","9"
"081219","11:04:45","7","7","5.0.14.0","2","28","trial1","naming","0","0","0","0","thumbtack","0","5611","1","White_Screen.jpg","6","58","Thumbtack.jpg","6"
"081219","11:04:45","7","7","5.0.14.0","2","29","trial1","naming","0","0","0","0","rubber","0","2811","1","White_Screen.jpg","4","88","ElasticBand.jpg","4"
"081219","11:04:45","7","7","5.0.14.0","2","30","trial1","naming","0","0","0","0","ski mask","0","3646","1","White_Screen.jpg","5","190","Mask_Ski.jpg","5"
"081219","11:04:45","7","7","5.0.14.0","2","31","trial1","naming","0","0","0","0","spool of thread","0","5041","1","White_Screen.jpg","7","116","Spool_Thread.jpg","7"
"081219","11:04:45","7","7","5.0.14.0","2","32","trial1","naming","0","0","0","0","honeydew","0","6292","1","White_Screen.jpg","5","110","Honeydew_Green.jpg","5"
"081219","11:04:45","7","7","5.0.14.0","2","33","trial1","naming","0","0","0","0","speaker","0","3842","1","White_Screen.jpg","6","17","Speaker_OnStand.jpg","6"
"081219","11:04:45","7","7","5.0.14.0","2","34","trial1","naming","0","0","0","0","cardinal","0","3441","1","White_Screen.jpg","5","53","Bird_Cardinal.jpg","5"
"081219","11:04:45","7","7","5.0.14.0","2","35","trial1","naming","0","0","0","0","prescription pill bottle","0","6434","1","White_Screen.jpg","5","21","PillBottle_Prescription.jpg","5"
"081219","11:04:45","7","7","5.0.14.0","2","36","trial1","naming","0","0","0","0","cordless drill","0","4778","1","White_Screen.jpg","9","92","Drill.jpg","9"
"081219","11:04:45","7","7","5.0.14.0","2","37","trial1","naming","0","0","0","0","cookie tin","0","4093","1","White_Screen.jpg","7","28","TinChristmas.jpg","7"
"081219","11:04:45","7","7","5.0.14.0","2","38","trial1","naming","0","0","0","0","figurine","0","4411","1","White_Screen.jpg","5","167","Statue_VirginMary.jpg","5"
"081219","11:04:45","7","7","5.0.14.0","2","39","trial1","naming","0","0","0","0","block set","0","5106","1","White_Screen.jpg","5","135","Toy_BlocksMultiShape.jpg","5"
"081219","11:04:45","7","7","5.0.14.0","2","40","trial1","naming","0","0","0","0","sheet music","0","3611","1","White_Screen.jpg","10","44","MusicSheet.jpg","10"
"081219","11:04:45","7","7","5.0.14.0","2","41","trial1","naming","0","0","0","0","thermomet","0","10000","1","White_Screen.jpg","6","141","Barometer_Wood.jpg","6"
"081219","11:04:45","7","7","5.0.14.0","2","42","trial1","naming","0","0","0","0","grill","0","3932","1","White_Screen.jpg","6","151","Grill_Gas.jpg","6"
"081219","11:04:45","7","7","5.0.14.0","2","43","trial1","naming","0","0","0","0","crocheted baby shoes","0","4784","1","White_Screen.jpg","7","81","Booties_Blue.jpg","7"
"081219","11:04:45","7","7","5.0.14.0","2","44","trial1","naming","0","0","0","0","input cable","0","5810","1","White_Screen.jpg","5","168","Jack.jpg","5"
"081219","11:04:45","7","7","5.0.14.0","2","45","trial1","naming","0","0","0","0","statue","0","4418","1","White_Screen.jpg","5","9","Statue_SouthAmerican.jpg","5"
"081219","11:04:45","7","7","5.0.14.0","2","46","trial1","naming","0","0","0","0","tray","0","2440","1","White_Screen.jpg","5","104","Tray_Metal.jpg","5"
"081219","11:04:45","7","7","5.0.14.0","2","47","trial1","naming","0","0","0","0","strap chair","0","6375","1","White_Screen.jpg","5","182","Chair_Airplane.jpg","5"
"081219","11:04:45","7","7","5.0.14.0","2","48","trial1","naming","0","0","0","0","bible","0","2541","1","White_Screen.jpg","4","129","Bible.jpg","4"
"081219","11:04:45","7","7","5.0.14.0","2","49","trial1","naming","0","0","0","0","bench","0","3172","1","White_Screen.jpg","5","150","Bench_Concrete.jpg","5"
"081219","11:04:45","7","7","5.0.14.0","2","50","trial1","naming","0","0","0","0","cord","0","3558","1","White_Screen.jpg","10","197","Wire_ElectricalSingle.jpg","10"
"081219","11:04:45","7","7","5.0.14.0","2","52","trial1","naming","0","0","0","0","staple gun","0","4437","1","White_Screen.jpg","8","89","Stapler_Gun.jpg","8"
"081219","11:04:45","7","7","5.0.14.0","2","53","trial1","naming","0","0","0","0","tree","0","3524","1","White_Screen.jpg","5","78","Puzzle_Tree.jpg","5"
"081219","11:04:45","7","7","5.0.14.0","2","54","trial1","naming","0","0","0","0","hair dryer","0","3442","1","White_Screen.jpg","10","194","HairDryer.jpg","10"
"081219","11:04:45","7","7","5.0.14.0","2","55","trial1","naming","0","0","0","0","loveseat","0","3883","1","White_Screen.jpg","6","176","SofaAntique.jpg","6"
"081219","11:04:45","7","7","5.0.14.0","2","56","trial1","naming","0","0","0","0","pipe","0","2879","1","White_Screen.jpg","6","23","SmokingPipe.jpg","6"
"081219","11:04:45","7","7","5.0.14.0","2","57","trial1","naming","0","0","0","0","honeycomb","0","3507","1","White_Screen.jpg","7","97","Honeycomb.jpg","7"
"081219","11:04:45","7","7","5.0.14.0","2","58","trial1","naming","0","0","0","0","avocado","0","3129","1","White_Screen.jpg","6","73","Avocado.jpg","6"
"081219","11:04:45","7","7","5.0.14.0","2","59","trial1","naming","0","0","0","0","bleach jug","0","4966","1","White_Screen.jpg","7","36","Bottle_Bleach.jpg","7"
"081219","11:04:45","7","7","5.0.14.0","2","60","trial1","naming","0","0","0","0","strainer","0","3127","1","White_Screen.jpg","5","191","Sieve_TopView.jpg","5"
"081219","11:04:45","7","7","5.0.14.0","2","61","trial1","naming","0","0","0","0","ski boot","0","3831","1","White_Screen.jpg","5","19","Bindings_Snowboard.jpg","5"
"081219","11:04:45","7","7","5.0.14.0","2","62","trial1","naming","0","0","0","0","pecan","0","2868","1","White_Screen.jpg","7","133","Nuts_Pecan.jpg","7"
"081219","11:04:45","7","7","5.0.14.0","2","63","trial1","naming","0","0","0","0","pipe","0","4101","1","White_Screen.jpg","6","154","Pipe.jpg","6"
"081219","11:04:45","7","7","5.0.14.0","2","64","trial1","naming","0","0","0","0","recycling bin","0","4418","1","White_Screen.jpg","5","1","BinRecycling.jpg","5"
"081219","11:04:45","7","7","5.0.14.0","2","65","trial1","naming","0","0","0","0","rubber spatula","0","3858","1","White_Screen.jpg","6","119","Spatula_1.jpg","6"
"081219","11:04:45","7","7","5.0.14.0","2","66","trial1","naming","0","0","0","0","eraser","0","4778","1","White_Screen.jpg","6","10","Soap.jpg","6"
"081219","11:04:45","7","7","5.0.14.0","2","67","trial1","naming","0","0","0","0","jar of oil","0","4765","1","White_Screen.jpg","5","79","Bottle_Liquor.jpg","5"
"081219","11:04:45","7","7","5.0.14.0","2","68","trial1","naming","0","0","0","0","toy robot","0","3137","1","White_Screen.jpg","7","142","Toy_RobotClassic.jpg","7"
"081219","11:04:45","7","7","5.0.14.0","2","69","trial1","naming","0","0","0","0","chipmunk","0","3678","1","White_Screen.jpg","8","40","Chipmunk.jpg","8"
"081219","11:04:45","7","7","5.0.14.0","2","70","trial1","naming","0","0","0","0","pierogi","0","5477","1","White_Screen.jpg","6","16","Wontons.jpg","6"
"081219","11:04:45","7","7","5.0.14.0","2","71","trial1","naming","0","0","0","0","spider web","0","3372","1","White_Screen.jpg","5","148","SpiderWeb.jpg","5"
"081219","11:04:45","7","7","5.0.14.0","2","72","trial1","naming","0","0","0","0","pretzel stick","0","4121","1","White_Screen.jpg","10","82","Pretzel_Sticks.jpg","10"
"081219","11:04:45","7","7","5.0.14.0","2","73","trial1","naming","0","0","0","0","windmill","0","4600","1","White_Screen.jpg","5","147","Windmill_Building.jpg","5"
"081219","11:04:45","7","7","5.0.14.0","2","74","trial1","naming","0","0","0","0","chocolate bar","0","3248","1","White_Screen.jpg","6","155","ChocolateBar_Unwrapped.jpg","6"
"081219","11:04:45","7","7","5.0.14.0","2","75","trial1","naming","0","0","0","0","handicap plackard","0","5176","1","White_Screen.jpg","7","65","PowerDoorPushButton.jpg","7"
"081219","11:04:45","7","7","5.0.14.0","2","76","trial1","naming","0","0","0","0","organ","0","3568","1","White_Screen.jpg","5","13","Organ.jpg","5"
"081219","11:04:45","7","7","5.0.14.0","2","77","trial1","naming","0","0","0","0","escalator","0","4973","1","White_Screen.jpg","10","131","Escalator.jpg","10"
"081219","11:04:45","7","7","5.0.14.0","2","78","trial1","naming","0","0","0","0","metal tin","0","6152","1","White_Screen.jpg","5","172","IceCrusher.jpg","5"
"081219","11:04:45","7","7","5.0.14.0","2","79","trial1","naming","0","0","0","0","knight's helmet","0","5552","1","White_Screen.jpg","8","132","Helmet_Soldier.jpg","8"
"081219","11:04:45","7","7","5.0.14.0","2","80","trial1","naming","0","0","0","0","syringe","0","3901","1","White_Screen.jpg","9","130","Syringe_Blunt.jpg","9"
"081219","11:04:45","7","7","5.0.14.0","2","81","trial1","naming","0","0","0","0","coffee beans","0","4595","1","White_Screen.jpg","5","124","CoffeeBeans.jpg","5"
"081219","11:04:45","7","7","5.0.14.0","2","82","trial1","naming","0","0","0","0","dry pasta","0","5224","1","White_Screen.jpg","6","50","Pasta_Shell.jpg","6"
"081219","11:04:45","7","7","5.0.14.0","2","83","trial1","naming","0","0","0","0","pin cushion","0","6416","1","White_Screen.jpg","5","160","SewingPin_Cushion.jpg","5"
"081219","11:04:45","7","7","5.0.14.0","2","84","trial1","naming","0","0","0","0","speakers","0","2862","1","White_Screen.jpg","6","8","Speaker_Computer.jpg","6"
"081219","11:04:45","7","7","5.0.14.0","2","85","trial1","naming","0","0","0","0","tape measure","0","3999","1","White_Screen.jpg","5","128","MeasuringTape.jpg","5"
"081219","11:04:45","7","7","5.0.14.0","2","86","trial1","naming","0","0","0","0","highchair","0","4299","1","White_Screen.jpg","7","59","Chair_High.jpg","7"
"081219","11:04:45","7","7","5.0.14.0","2","87","trial1","naming","0","0","0","0","lacrosse stick","0","4745","1","White_Screen.jpg","6","180","Lacrosse_Stick.jpg","6"
"081219","11:04:45","7","7","5.0.14.0","2","88","trial1","naming","0","0","0","0","chess board","0","3560","1","White_Screen.jpg","6","103","Boardgame_Chess.jpg","6"
"081219","11:04:45","7","7","5.0.14.0","2","89","trial1","naming","0","0","0","0","diaper bag","0","3789","1","White_Screen.jpg","5","80","Bag_Diaper.jpg","5"
"081219","11:04:45","7","7","5.0.14.0","2","90","trial1","naming","0","0","0","0","toy dinosaur","0","4805","1","White_Screen.jpg","5","174","Toy_Chameleon.jpg","5"
"081219","11:04:45","7","7","5.0.14.0","2","91","trial1","naming","0","0","0","0","hazard container","0","7939","1","White_Screen.jpg","5","25","Trash_Medical.jpg","5"
"081219","11:04:45","7","7","5.0.14.0","2","92","trial1","naming","0","0","0","0","balcony","0","3817","1","White_Screen.jpg","10","177","Balcony.jpg","10"
"081219","11:04:45","7","7","5.0.14.0","2","93","trial1","naming","0","0","0","0","toy turtle","0","3599","1","White_Screen.jpg","6","106","Toy_Turtle.jpg","6"
"081219","11:04:45","7","7","5.0.14.0","2","94","trial1","naming","0","0","0","0","ladder","0","3363","1","White_Screen.jpg","7","86","Ladder.jpg","7"
"081219","11:04:45","7","7","5.0.14.0","2","95","trial1","naming","0","0","0","0","hot glue gun","0","3979","1","White_Screen.jpg","6","91","Gun_Glue.jpg","6"
"081219","11:04:45","7","7","5.0.14.0","2","96","trial1","naming","0","0","0","0","traffic cone","0","2930","1","White_Screen.jpg","5","109","PylonTraffic.jpg","5"
"081219","11:04:45","7","7","5.0.14.0","2","97","trial1","naming","0","0","0","0","parking sign","0","3459","1","White_Screen.jpg","6","45","Sign_Parking.jpg","6"
"081219","11:04:45","7","7","5.0.14.0","2","98","trial1","naming","0","0","0","0","wicker basket","0","6797","1","White_Screen.jpg","5","83","Chest.jpg","5"
"081219","11:04:45","7","7","5.0.14.0","2","99","trial1","naming","0","0","0","0","ironing board","0","4136","1","White_Screen.jpg","8","57","IroningBoard.jpg","8"
"081219","11:04:45","7","7","5.0.14.0","2","100","trial1","naming","0","0","0","0","wooden divider","0","4935","1","White_Screen.jpg","11","11","Partition.jpg","11"
"081219","11:04:45","7","7","5.0.14.0","2","101","trial1","naming","0","0","0","0","bowling pin","0","3768","1","White_Screen.jpg","5","178","BowlingPin.jpg","5"
"081219","11:04:45","7","7","5.0.14.0","2","103","trial1","naming","0","0","0","0","lantern","0","4280","1","White_Screen.jpg","12","70","Lantern_TeaBox.jpg","12"
"081219","11:04:45","7","7","5.0.14.0","2","104","trial1","naming","0","0","0","0","lighthouse","0","3182","1","White_Screen.jpg","9","183","LightHouse.jpg","9"
"081219","11:04:45","7","7","5.0.14.0","2","105","trial1","naming","0","0","0","0","sports helmet","0","4687","1","White_Screen.jpg","10","113","Mask_HockeyGoalie.jpg","10"
"081219","11:04:45","7","7","5.0.14.0","2","106","trial1","naming","0","0","0","0","mannequin head","0","3754","1","White_Screen.jpg","7","24","MannequinHead.jpg","7"
"081219","11:04:45","7","7","5.0.14.0","2","107","trial1","naming","0","0","0","0","USB cable","0","4144","1","White_Screen.jpg","6","18","Cord_usb.jpg","6"
"081219","11:04:45","7","7","5.0.14.0","2","108","trial1","naming","0","0","0","0","satellite dish","0","3626","1","White_Screen.jpg","5","101","SatelliteDish.jpg","5"
"081219","11:04:45","7","7","5.0.14.0","2","109","trial1","naming","0","0","0","0","toy lion","0","3716","1","White_Screen.jpg","5","122","Toy_Lion.jpg","5"
"081219","11:04:45","7","7","5.0.14.0","2","110","trial1","naming","0","0","0","0","pliers","0","6303","1","White_Screen.jpg","7","69","WireStripper.jpg","7"
"081219","11:04:45","7","7","5.0.14.0","2","111","trial1","naming","0","0","0","0","shoe insoles","0","4829","1","White_Screen.jpg","5","192","Heelpad.jpg","5"
"081219","11:04:45","7","7","5.0.14.0","2","112","trial1","naming","0","0","0","0","rocks","0","5604","1","White_Screen.jpg","6","152","Stone_Mill.jpg","6"
"081219","11:04:45","7","7","5.0.14.0","2","113","trial1","naming","0","0","0","0","granola bar","0","4015","1","White_Screen.jpg","8","145","GranolaBar.jpg","8"
"081219","11:04:45","7","7","5.0.14.0","2","114","trial1","naming","0","0","0","0","putty","0","6692","1","White_Screen.jpg","6","39","StickyTack.jpg","6"
"081219","11:04:45","7","7","5.0.14.0","2","115","trial1","naming","0","0","0","0","escape key","0","6807","1","White_Screen.jpg","5","3","ComputerKey_Escape.jpg","5"
"081219","11:04:45","7","7","5.0.14.0","2","116","trial1","naming","0","0","0","0","gorilla","0","4581","1","White_Screen.jpg","5","90","Gorilla.jpg","5"
"081219","11:04:45","7","7","5.0.14.0","2","117","trial1","naming","0","0","0","0","corn cob","0","3690","1","White_Screen.jpg","5","161","Corn.jpg","5"
"081219","11:04:45","7","7","5.0.14.0","2","118","trial1","naming","0","0","0","0","gas pump","0","4531","1","White_Screen.jpg","5","31","Toy_GasPump.jpg","5"
"081219","11:04:45","7","7","5.0.14.0","2","119","trial1","naming","0","0","0","0","stovetop burner","0","5467","1","White_Screen.jpg","4","85","GasBurner.jpg","4"
"081219","11:04:45","7","7","5.0.14.0","2","120","trial1","naming","0","0","0","0","elephant","0","3018","1","White_Screen.jpg","6","162","Elephant.jpg","6"
"081219","11:04:45","7","7","5.0.14.0","2","121","trial1","naming","0","0","0","0","shell","0","2706","1","White_Screen.jpg","6","32","Seashell_BayScallop.jpg","6"
"081219","11:04:45","7","7","5.0.14.0","2","122","trial1","naming","0","0","0","0","cymbolls","0","4054","1","White_Screen.jpg","5","164","Drum_Cymbal.jpg","5"
"081219","11:04:45","7","7","5.0.14.0","2","123","trial1","naming","0","0","0","0","lighter","0","4159","1","White_Screen.jpg","10","114","Lighter_Yellow.jpg","10"
"081219","11:04:45","7","7","5.0.14.0","2","124","trial1","naming","0","0","0","0","tote bag","0","2743","1","White_Screen.jpg","7","144","Bag_Hand.jpg","7"
"081219","11:04:45","7","7","5.0.14.0","2","125","trial1","naming","0","0","0","0","toy train","0","2994","1","White_Screen.jpg","4","2","Toy_Train.jpg","4"
"081219","11:04:45","7","7","5.0.14.0","2","126","trial1","naming","0","0","0","0","sports car","0","4255","1","White_Screen.jpg","5","163","Car_Ferrari.jpg","5"
"081219","11:04:45","7","7","5.0.14.0","2","127","trial1","naming","0","0","0","0","picture frame","0","5703","1","White_Screen.jpg","4","166","PictureFrame.jpg","4"
"081219","11:04:45","7","7","5.0.14.0","2","128","trial1","naming","0","0","0","0","pocket knife","0","5643","1","White_Screen.jpg","9","193","PocketKnife.jpg","9"
"081219","11:04:45","7","7","5.0.14.0","2","129","trial1","naming","0","0","0","0","cruise ship","0","3409","1","White_Screen.jpg","4","121","Ship_Cruise.jpg","4"
"081219","11:04:45","7","7","5.0.14.0","2","130","trial1","naming","0","0","0","0","nutcracker","0","5515","1","White_Screen.jpg","5","200","Nutcracker.jpg","5"
"081219","11:04:45","7","7","5.0.14.0","2","131","trial1","naming","0","0","0","0","briefcase","0","3670","1","White_Screen.jpg","7","72","Briefcase_Open.jpg","7"
"081219","11:04:45","7","7","5.0.14.0","2","132","trial1","naming","0","0","0","0","doorknob","0","4746","1","White_Screen.jpg","9","153","DoorKnob.jpg","9"
"081219","11:04:45","7","7","5.0.14.0","2","133","trial1","naming","0","0","0","0","dress","0","2631","1","White_Screen.jpg","7","61","Dress_Cocktail.jpg","7"
"081219","11:04:45","7","7","5.0.14.0","2","134","trial1","naming","0","0","0","0","paper towel roll","0","4690","1","White_Screen.jpg","7","111","PaperTowel_Kitchen.jpg","7"
"081219","11:04:45","7","7","5.0.14.0","2","135","trial1","naming","0","0","0","0","nintendo Wii","0","5540","1","White_Screen.jpg","5","126","NintendoWii.jpg","5"
"081219","11:04:45","7","7","5.0.14.0","2","136","trial1","naming","0","0","0","0","3-hole puncher","0","3913","1","White_Screen.jpg","5","87","ThreeHolePunch.jpg","5"
"081219","11:04:45","7","7","5.0.14.0","2","137","trial1","naming","0","0","0","0","kangaroo","0","3258","1","White_Screen.jpg","6","196","Kangaroo_WithJoey.jpg","6"
"081219","11:04:45","7","7","5.0.14.0","2","138","trial1","naming","0","0","0","0","arrows","0","4689","1","White_Screen.jpg","5","34","Archery_Arrows.jpg","5"
"081219","11:04:45","7","7","5.0.14.0","2","139","trial1","naming","0","0","0","0","tumbler","0","4745","1","White_Screen.jpg","5","134","DrinkShaker.jpg","5"
"081219","11:04:45","7","7","5.0.14.0","2","140","trial1","naming","0","0","0","0","horseshoe","0","4452","1","White_Screen.jpg","5","159","Horseshoe.jpg","5"
"081219","11:04:45","7","7","5.0.14.0","2","141","trial1","naming","0","0","0","0","watering can","0","6085","1","White_Screen.jpg","10","100","WateringCan_PlasticDarkGreen.jpg","10"
"081219","11:04:45","7","7","5.0.14.0","2","142","trial1","naming","0","0","0","0","electric keyboard","0","4502","1","White_Screen.jpg","10","56","Piano_Keyboard.jpg","10"
"081219","11:04:45","7","7","5.0.14.0","2","143","trial1","naming","0","0","0","0","sushi","0","3208","1","White_Screen.jpg","5","156","Sashimi.jpg","5"
"081219","11:04:45","7","7","5.0.14.0","2","144","trial1","naming","0","0","0","0","flamingo","0","3031","1","White_Screen.jpg","10","51","Flamingo_Cartoon.jpg","10"
"081219","11:04:45","7","7","5.0.14.0","2","145","trial1","naming","0","0","0","0","glass tube","0","6192","1","White_Screen.jpg","9","46","TestTube_Single.jpg","9"
"081219","11:04:45","7","7","5.0.14.0","2","146","trial1","naming","0","0","0","0","cloth napkin","0","5514","1","White_Screen.jpg","5","68","Napkin_Single.jpg","5"
"081219","11:04:45","7","7","5.0.14.0","2","147","trial1","naming","0","0","0","0","chest","0","2535","1","White_Screen.jpg","6","54","Trunk.jpg","6"
"081219","11:04:45","7","7","5.0.14.0","2","148","trial1","naming","0","0","0","0","toy girl","0","3465","1","White_Screen.jpg","5","120","Toy_FigurineSwing.jpg","5"
"081219","11:04:45","7","7","5.0.14.0","2","149","trial1","naming","0","0","0","0","potato masher","0","3810","1","White_Screen.jpg","6","175","PotatoMasher_Zigzag.jpg","6"
"081219","11:04:45","7","7","5.0.14.0","2","150","trial1","naming","0","0","0","0","bow staff","0","6035","1","White_Screen.jpg","5","22","Crossbow.jpg","5"
"081219","11:04:45","7","7","5.0.14.0","2","151","trial1","naming","0","0","0","0","bicycle pump","0","4407","1","White_Screen.jpg","7","29","AirPump.jpg","7"
"081219","11:04:45","7","7","5.0.14.0","2","152","trial1","naming","0","0","0","0","star","0","3752","1","White_Screen.jpg","5","20","Star.jpg","5"
"081219","11:04:45","7","7","5.0.14.0","2","154","trial1","naming","0","0","0","0","instrument","0","5289","1","White_Screen.jpg","10","179","Instrument_Guiro.jpg","10"
"081219","11:04:45","7","7","5.0.14.0","2","155","trial1","naming","0","0","0","0","blazer","0","2808","1","White_Screen.jpg","5","98","Jacket_Suit.jpg","5"
"081219","11:04:45","7","7","5.0.14.0","2","156","trial1","naming","0","0","0","0","smoothie","0","3892","1","White_Screen.jpg","10","93","Drink_Green.jpg","10"
"081219","11:04:45","7","7","5.0.14.0","2","157","trial1","naming","0","0","0","0","hibiscus flower","0","4637","1","White_Screen.jpg","5","52","Flower_Hibiscus.jpg","5"
"081219","11:04:45","7","7","5.0.14.0","2","158","trial1","naming","0","0","0","0","bell","0","3190","1","White_Screen.jpg","10","95","ServiceBell.jpg","10"
"081219","11:04:45","7","7","5.0.14.0","2","159","trial1","naming","0","0","0","0","stethoscope","0","3532","1","White_Screen.jpg","6","105","Stethoscope.jpg","6"
"081219","11:04:45","7","7","5.0.14.0","2","160","trial1","naming","0","0","0","0","cleaner bottle","0","3986","1","White_Screen.jpg","6","139","Spraybottle.jpg","6"
"081219","11:04:45","7","7","5.0.14.0","2","161","trial1","naming","0","0","0","0","die","0","5566","1","White_Screen.jpg","10","60","Dice.jpg","10"
"081219","11:04:45","7","7","5.0.14.0","2","162","trial1","naming","0","0","0","0","blueberries","0","4635","1","White_Screen.jpg","8","140","Blueberry.jpg","8"
"081219","11:04:45","7","7","5.0.14.0","2","163","trial1","naming","0","0","0","0","frame","0","5208","1","White_Screen.jpg","11","146","CertificateFramed.jpg","11"
"081219","11:04:45","7","7","5.0.14.0","2","164","trial1","naming","0","0","0","0","cordless hand-held vac","0","7962","1","White_Screen.jpg","6","137","VacuumHandheld.jpg","6"
"081219","11:04:45","7","7","5.0.14.0","2","165","trial1","naming","0","0","0","0","jellybeans","0","3354","1","White_Screen.jpg","5","15","Jar_JellyBeans.jpg","5"
"081219","11:04:45","7","7","5.0.14.0","2","166","trial1","naming","0","0","0","0","banana","0","2639","1","White_Screen.jpg","9","4","Banana.jpg","9"
"081219","11:04:45","7","7","5.0.14.0","2","167","trial1","naming","0","0","0","0","desk","0","2806","1","White_Screen.jpg","6","170","Desk_Office.jpg","6"
"081219","11:04:45","7","7","5.0.14.0","2","168","trial1","naming","0","0","0","0","belt","0","3716","1","White_Screen.jpg","5","66","Belt.jpg","5"
"081219","11:04:45","7","7","5.0.14.0","2","169","trial1","naming","0","0","0","0","ribbon","0","4947","1","White_Screen.jpg","6","115","RibbonString.jpg","6"
"081219","11:04:45","7","7","5.0.14.0","2","170","trial1","naming","0","0","0","0","brush","0","4881","1","White_Screen.jpg","6","165","Brush_Light.jpg","6"
"081219","11:04:45","7","7","5.0.14.0","2","171","trial1","naming","0","0","0","0","car wheel rim","0","5598","1","White_Screen.jpg","6","136","TireRims.jpg","6"
"081219","11:04:45","7","7","5.0.14.0","2","172","trial1","naming","0","0","0","0","container","0","5099","1","White_Screen.jpg","7","112","Bowl_Chinese.jpg","7"
"081219","11:04:45","7","7","5.0.14.0","2","173","trial1","naming","0","0","0","0","hog","0","2409","1","White_Screen.jpg","6","94","Boar.jpg","6"
"081219","11:04:45","7","7","5.0.14.0","2","174","trial1","naming","0","0","0","0","heart","0","2827","1","White_Screen.jpg","11","38","Candy_Heart.jpg","11"
"081219","11:04:45","7","7","5.0.14.0","2","175","trial1","naming","0","0","0","0","owl","0","2694","1","White_Screen.jpg","6","77","Owl.jpg","6"
"081219","11:04:45","7","7","5.0.14.0","2","176","trial1","naming","0","0","0","0","propane tank","0","3935","1","White_Screen.jpg","5","67","Cannister_Gas.jpg","5"
"081219","11:04:45","7","7","5.0.14.0","2","177","trial1","naming","0","0","0","0","pelican","0","5256","1","White_Screen.jpg","6","123","Bird_Pelican.jpg","6"
"081219","11:04:45","7","7","5.0.14.0","2","178","trial1","naming","0","0","0","0","metal iron","0","6260","1","White_Screen.jpg","4","117","Iron_Antique.jpg","4"
"081219","11:04:45","7","7","5.0.14.0","2","179","trial1","naming","0","0","0","0","table set","0","5388","1","White_Screen.jpg","9","84","Table_Set.jpg","9"
"081219","11:04:45","7","7","5.0.14.0","2","180","trial1","naming","0","0","0","0","faucet","0","2851","1","White_Screen.jpg","5","102","Tap.jpg","5"
"081219","11:04:45","7","7","5.0.14.0","2","181","trial1","naming","0","0","0","0","electric scanner","0","6680","1","White_Screen.jpg","6","71","BicycleOdometer.jpg","6"
"081219","11:04:45","7","7","5.0.14.0","2","182","trial1","naming","0","0","0","0","lamp","0","2900","1","White_Screen.jpg","6","188","Lamp_Table.jpg","6"
"081219","11:04:45","7","7","5.0.14.0","2","183","trial1","naming","0","0","0","0","policeman's hat","0","4648","1","White_Screen.jpg","9","96","Hat_Police.jpg","9"
"081219","11:04:45","7","7","5.0.14.0","2","184","trial1","naming","0","0","0","0","onion","0","3085","1","White_Screen.jpg","5","49","Hazelnut.jpg","5"
"081219","11:04:45","7","7","5.0.14.0","2","185","trial1","naming","0","0","0","0","cooking utensils","0","6598","1","White_Screen.jpg","10","107","KitchenTools.jpg","10"
"081219","11:04:45","7","7","5.0.14.0","2","186","trial1","naming","0","0","0","0","envelope","0","2941","1","White_Screen.jpg","9","12","Envelope_Letter.jpg","9"
"081219","11:04:45","7","7","5.0.14.0","2","187","trial1","naming","0","0","0","0","castle","0","3133","1","White_Screen.jpg","5","5","Fortress.jpg","5"
"081219","11:04:45","7","7","5.0.14.0","2","188","trial1","naming","0","0","0","0","egg salad sandwich","0","4875","1","White_Screen.jpg","7","6","Sandwich_Egg.jpg","7"
"081219","11:04:45","7","7","5.0.14.0","2","189","trial1","naming","0","0","0","0","outdoor patio heater","0","5162","1","White_Screen.jpg","5","187","PatioHeater.jpg","5"
"081219","11:04:45","7","7","5.0.14.0","2","190","trial1","naming","0","0","0","0","wooden box","0","3097","1","White_Screen.jpg","4","74","Box_WoodenClosed.jpg","4"
"081219","11:04:45","7","7","5.0.14.0","2","191","trial1","naming","0","0","0","0","ruler","0","4651","1","White_Screen.jpg","6","185","SetSquare.jpg","6"
"081219","11:04:45","7","7","5.0.14.0","2","192","trial1","naming","0","0","0","0","fire detector","0","5515","1","White_Screen.jpg","10","195","SmokeDetector.jpg","10"
"081219","11:04:45","7","7","5.0.14.0","2","193","trial1","naming","0","0","0","0","stage","0","3550","1","White_Screen.jpg","5","189","Booth_Carnival.jpg","5"
"081219","11:04:45","7","7","5.0.14.0","2","194","trial1","naming","0","0","0","0","mask","0","2398","1","White_Screen.jpg","7","158","Mask_VenetianCat.jpg","7"
"081219","11:04:45","7","7","5.0.14.0","2","195","trial1","naming","0","0","0","0","computer chip","0","4579","1","White_Screen.jpg","7","198","RAMchip.jpg","7"
"081219","11:04:45","7","7","5.0.14.0","2","196","trial1","naming","0","0","0","0","whip","0","3031","1","White_Screen.jpg","6","138","Whip.jpg","6"
"081219","11:04:45","7","7","5.0.14.0","2","197","trial1","naming","0","0","0","0","candelabra","0","6022","1","White_Screen.jpg","7","64","Candelabra.jpg","7"
"081219","11:04:45","7","7","5.0.14.0","2","198","trial1","naming","0","0","0","0","carousel","0","6084","1","White_Screen.jpg","6","48","Carousel copy.jpg","6"
"081219","11:04:45","7","7","5.0.14.0","2","199","trial1","naming","0","0","0","0","computer mouse","0","6170","1","White_Screen.jpg","10","173","ComputerMouse.jpg","10"
"081219","11:04:45","7","7","5.0.14.0","2","200","trial1","naming","0","0","0","0","audio cable","0","5765","1","White_Screen.jpg","10","26","CableConnecter.jpg","10"
"081219","11:04:45","7","7","5.0.14.0","2","201","trial1","naming","0","0","0","0","rolling pin","0","4106","1","White_Screen.jpg","5","125","RollingPin.jpg","5"
"081219","11:04:45","7","7","5.0.14.0","2","202","trial1","naming","0","0","0","0","travel bag","0","5234","1","White_Screen.jpg","9","118","Case_Pencil.jpg","9"
"081219","11:04:45","7","7","5.0.14.0","2","203","trial1","naming","0","0","0","0","teardrop","0","3886","1","White_Screen.jpg","5","143","Teardrop.jpg","5"
"081219","11:04:45","7","7","5.0.14.0","3","1","demographics_block","gender","0","0","0","0","female","1","10069","0","0","0","0","0","0"
"081219","11:04:45","7","7","5.0.14.0","3","1","demographics_block","age","0","0","0","0","27","1","10069","0","0","0","0","0","0"
"081219","11:04:45","7","7","5.0.14.0","3","1","demographics_block","education","0","0","0","0","14","1","10069","0","0","0","0","0","0"
"081219","11:04:45","7","7","5.0.14.0","3","2","demographics_block","left_right_handed","0","0","0","0","Right","1","4974","0","0","0","0","0","0"
"081219","11:04:45","7","7","5.0.14.0","3","2","demographics_block","raceoption1","0","0","0","0","0","1","4974","0","0","0","0","0","0"
"081219","11:04:45","7","7","5.0.14.0","3","2","demographics_block","raceoption2","0","0","0","0","","1","4974","0","0","0","0","0","0"
"081219","11:04:45","7","7","5.0.14.0","3","2","demographics_block","raceoption3","0","0","0","0","","1","4974","0","0","0","0","0","0"
"081219","11:04:45","7","7","5.0.14.0","3","2","demographics_block","raceoption4","0","0","0","0","","1","4974","0","0","0","0","0","0"
"081219","11:04:45","7","7","5.0.14.0","3","2","demographics_block","raceoption5","0","0","0","0","","1","4974","0","0","0","0","0","0"
"081219","11:04:45","7","7","5.0.14.0","3","2","demographics_block","raceoption6","0","0","0","0","","1","4974","0","0","0","0","0","0"
"081219","11:04:45","7","7","5.0.14.0","3","2","demographics_block","raceoption7","0","0","0","0","","1","4974","0","0","0","0","0","0"
"081219","11:04:45","7","7","5.0.14.0","3","2","demographics_block","raceoption8","0","0","0","0","","1","4974","0","0","0","0","0","0"
"081219","11:04:45","7","7","5.0.14.0","3","2","demographics_block","raceoption9","0","0","0","0","","1","4974","0","0","0","0","0","0"
"081219","11:04:45","7","7","5.0.14.0","3","2","demographics_block","raceother","0","0","0","0","","1","4974","0","0","0","0","0","0"
"081219","11:04:45","7","7","5.0.14.0","3","2","demographics_block","raceother","0","0","0","0","","1","4974","0","0","0","0","0","0"
"081219","11:04:45","7","7","5.0.14.0","3","2","demographics_block","english_language","0","0","0","0","Yes","1","4974","0","0","0","0","0","0"
"081219","11:04:45","7","7","5.0.14.0","3","2","demographics_block","english_languageother","0","0","0","0","","1","4974","0","0","0","0","0","0"
"081219","11:04:45","7","7","5.0.14.0","3","3","demographics_block","eyesight","0","0","0","0","Yes","1","5784","0","0","0","0","0","0"
"081219","11:04:45","7","7","5.0.14.0","3","3","demographics_block","colorblind","0","0","0","0","No","1","5784","0","0","0","0","0","0"
"081219","11:04:45","7","7","5.0.14.0","4","1","worker_id_block","worker_id_textbox","0","0","0","0","A3APMO8WXVH1V0","1","6384","0","0","0","0","0","0"
"081219","11:15:17","9","9","5.0.14.0","2","1","trial1","naming","0","0","0","0","Enter Name","0","10000","1","White_Screen.jpg","43","191","Sieve_TopView.jpg","43"
"081219","11:15:17","9","9","5.0.14.0","2","2","trial1","naming","0","0","0","0","Enter Name","0","10000","1","White_Screen.jpg","14","7","Bread_Loaf.jpg","14"
"081219","11:15:17","9","9","5.0.14.0","2","3","trial1","naming","0","0","0","0","Enter Name","0","10000","1","White_Screen.jpg","19","58","Thumbtack.jpg","19"
"081219","11:15:17","9","9","5.0.14.0","2","4","trial1","naming","0","0","0","0","Enter Name","0","10000","1","White_Screen.jpg","19","18","Cord_usb.jpg","19"
"081219","11:15:17","9","9","5.0.14.0","2","5","trial1","naming","0","0","0","0","Enter Name","0","10000","1","White_Screen.jpg","21","106","Toy_Turtle.jpg","21"
"081219","11:15:17","9","9","5.0.14.0","2","6","trial1","naming","0","0","0","0","Enter Name","0","10000","1","White_Screen.jpg","24","77","Owl.jpg","24"
"081219","11:15:17","9","9","5.0.14.0","2","7","trial1","naming","0","0","0","0","Enter Name","0","10000","1","White_Screen.jpg","25","193","PocketKnife.jpg","25"
"081219","11:15:17","9","9","5.0.14.0","2","8","trial1","naming","0","0","0","0","Enter Name","0","10000","1","White_Screen.jpg","24","69","WireStripper.jpg","24"
"081219","11:15:17","9","9","5.0.14.0","2","9","trial1","naming","0","0","0","0","Enter Name","0","10000","1","White_Screen.jpg","23","142","Toy_RobotClassic.jpg","23"
"081219","11:15:17","9","9","5.0.14.0","2","10","trial1","naming","0","0","0","0","Enter Name","0","10000","1","White_Screen.jpg","23","120","Toy_FigurineSwing.jpg","23"
"081219","11:15:17","9","9","5.0.14.0","2","11","trial1","naming","0","0","0","0","Enter Name","0","10000","1","White_Screen.jpg","23","95","ServiceBell.jpg","23"
"081219","11:15:17","9","9","5.0.14.0","2","12","trial1","naming","0","0","0","0","Enter Name","0","10000","1","White_Screen.jpg","22","121","Ship_Cruise.jpg","22"
"081219","11:15:17","9","9","5.0.14.0","2","13","trial1","naming","0","0","0","0","Enter Name","0","10000","1","White_Screen.jpg","20","78","Puzzle_Tree.jpg","20"
"081219","11:15:17","9","9","5.0.14.0","2","14","trial1","naming","0","0","0","0","Enter Name","0","10000","1","White_Screen.jpg","17","138","Whip.jpg","17"
"081219","11:15:17","9","9","5.0.14.0","2","15","trial1","naming","0","0","0","0","Enter Name","0","10000","1","White_Screen.jpg","16","1","BinRecycling.jpg","16"
"081219","11:15:17","9","9","5.0.14.0","2","16","trial1","naming","0","0","0","0","Enter Name","0","10000","1","White_Screen.jpg","19","135","Toy_BlocksMultiShape.jpg","19"
"081219","11:15:17","9","9","5.0.14.0","2","17","trial1","naming","0","0","0","0","Enter Name","0","10000","1","White_Screen.jpg","18","160","SewingPin_Cushion.jpg","18"
"081219","11:15:17","9","9","5.0.14.0","2","18","trial1","naming","0","0","0","0","Enter Name","0","10000","1","White_Screen.jpg","18","65","PowerDoorPushButton.jpg","18"
"081219","11:15:17","9","9","5.0.14.0","2","19","trial1","naming","0","0","0","0","Enter Name","0","10000","1","White_Screen.jpg","17","5","Fortress.jpg","17"
"081219","11:15:17","9","9","5.0.14.0","2","20","trial1","naming","0","0","0","0","Enter Name","0","10000","1","White_Screen.jpg","22","180","Lacrosse_Stick.jpg","22"
"081219","11:15:17","9","9","5.0.14.0","2","21","trial1","naming","0","0","0","0","Enter Name","0","10000","1","White_Screen.jpg","19","72","Briefcase_Open.jpg","19"
"081219","11:15:17","9","9","5.0.14.0","2","22","trial1","naming","0","0","0","0","Enter Name","0","10000","1","White_Screen.jpg","19","174","Toy_Chameleon.jpg","19"
"081219","11:15:17","9","9","5.0.14.0","2","23","trial1","naming","0","0","0","0","Enter Name","0","10000","1","White_Screen.jpg","21","127","Bag_Satchel.jpg","21"
"081219","11:15:17","9","9","5.0.14.0","2","24","trial1","naming","0","0","0","0","Enter Name","0","10000","1","White_Screen.jpg","20","200","Nutcracker.jpg","20"
"081219","11:15:17","9","9","5.0.14.0","2","25","trial1","naming","0","0","0","0","Enter Name","0","10000","1","White_Screen.jpg","19","41","BunsenBurner.jpg","19"
"081219","11:15:17","9","9","5.0.14.0","2","26","trial1","naming","0","0","0","0","Enter Name","0","10000","1","White_Screen.jpg","20","192","Heelpad.jpg","20"
"081219","11:15:17","9","9","5.0.14.0","2","27","trial1","naming","0","0","0","0","Enter Name","0","10000","1","White_Screen.jpg","17","102","Tap.jpg","17"
"081219","11:15:17","9","9","5.0.14.0","2","28","trial1","naming","0","0","0","0","Enter Name","0","10000","1","White_Screen.jpg","17","144","Bag_Hand.jpg","17"
"081219","11:15:17","9","9","5.0.14.0","2","29","trial1","naming","0","0","0","0","Enter Name","0","10000","1","White_Screen.jpg","17","39","StickyTack.jpg","17"
"081219","11:15:17","9","9","5.0.14.0","2","30","trial1","naming","0","0","0","0","Enter Name","0","10000","1","White_Screen.jpg","23","31","Toy_GasPump.jpg","23"
"081219","11:15:17","9","9","5.0.14.0","2","31","trial1","naming","0","0","0","0","Enter Name","0","10000","1","White_Screen.jpg","20","87","ThreeHolePunch.jpg","20"
"081219","11:15:17","9","9","5.0.14.0","2","32","trial1","naming","0","0","0","0","Enter Name","0","10000","1","White_Screen.jpg","21","24","MannequinHead.jpg","21"
"081219","11:15:17","9","9","5.0.14.0","2","33","trial1","naming","0","0","0","0","Enter Name","0","10000","1","White_Screen.jpg","20","109","PylonTraffic.jpg","20"
"081219","11:15:17","9","9","5.0.14.0","2","34","trial1","naming","0","0","0","0","Enter Name","0","10000","1","White_Screen.jpg","21","91","Gun_Glue.jpg","21"
"081219","11:15:17","9","9","5.0.14.0","2","35","trial1","naming","0","0","0","0","Enter Name","0","10000","1","White_Screen.jpg","21","171","Jug_Milk.jpg","21"
"081219","11:15:17","9","9","5.0.14.0","2","36","trial1","naming","0","0","0","0","Enter Name","0","10000","1","White_Screen.jpg","20","197","Wire_ElectricalSingle.jpg","20"
"081219","11:15:17","9","9","5.0.14.0","2","37","trial1","naming","0","0","0","0","Enter Name","0","10000","1","White_Screen.jpg","19","83","Chest.jpg","19"
"081219","11:15:17","9","9","5.0.14.0","2","38","trial1","naming","0","0","0","0","Enter Name","0","4116","1","White_Screen.jpg","21","92","Drill.jpg","21"
"081219","11:15:17","9","9","5.0.14.0","2","39","trial1","naming","0","0","0","0","spatulaEnter Name","0","5790","1","White_Screen.jpg","19","119","Spatula_1.jpg","19"
"081219","11:15:17","9","9","5.0.14.0","2","40","trial1","naming","0","0","0","0","burnerEnter Name","0","6165","1","White_Screen.jpg","19","85","GasBurner.jpg","19"
"081219","11:15:17","9","9","5.0.14.0","2","41","trial1","naming","0","0","0","0","stetescopeEnter Name","0","6240","1","White_Screen.jpg","15","105","Stethoscope.jpg","15"
"081219","11:15:17","9","9","5.0.14.0","2","42","trial1","naming","0","0","0","0","hair dryerEnter Name","0","6304","1","White_Screen.jpg","23","194","HairDryer.jpg","23"
"081219","11:15:17","9","9","5.0.14.0","2","43","trial1","naming","0","0","0","0","boxEnter Name","0","7563","1","White_Screen.jpg","18","28","TinChristmas.jpg","18"
"081219","11:15:17","9","9","5.0.14.0","2","44","trial1","naming","0","0","0","0","starEnter Name","0","5077","1","White_Screen.jpg","21","20","Star.jpg","21"
"081219","11:15:17","9","9","5.0.14.0","2","45","trial1","naming","0","0","0","0","ladderEnter Name","0","3242","1","White_Screen.jpg","19","86","Ladder.jpg","19"
"081219","11:15:17","9","9","5.0.14.0","2","46","trial1","naming","0","0","0","0","mouseEnter Name","0","3656","1","White_Screen.jpg","20","173","ComputerMouse.jpg","20"
"081219","11:15:17","9","9","5.0.14.0","2","47","trial1","naming","0","0","0","0","chipEnter Name","0","3467","1","White_Screen.jpg","19","199","TortillaChip.jpg","19"
"081219","11:15:17","9","9","5.0.14.0","2","48","trial1","naming","0","0","0","0","calenabraEnter Name","0","8281","1","White_Screen.jpg","19","64","Candelabra.jpg","19"
"081219","11:15:17","9","9","5.0.14.0","2","49","trial1","naming","0","0","0","0","bagEnter Name","0","3111","1","White_Screen.jpg","19","118","Case_Pencil.jpg","19"
"081219","11:15:17","9","9","5.0.14.0","2","50","trial1","naming","0","0","0","0","birdEnter Name","0","3873","1","White_Screen.jpg","19","123","Bird_Pelican.jpg","19"
"081219","11:15:17","9","9","5.0.14.0","2","52","trial1","naming","0","0","0","0","fisEnter Name","0","10000","1","White_Screen.jpg","18","156","Sashimi.jpg","18"
"081219","11:15:17","9","9","5.0.14.0","2","53","trial1","naming","0","0","0","0","mixerEnter Name","0","5419","1","White_Screen.jpg","17","134","DrinkShaker.jpg","17"
"081219","11:15:17","9","9","5.0.14.0","2","54","trial1","naming","0","0","0","0","bookEnter Name","0","3237","1","White_Screen.jpg","17","129","Bible.jpg","17"
"081219","11:15:17","9","9","5.0.14.0","2","55","trial1","naming","0","0","0","0","boxEnter Name","0","6927","1","White_Screen.jpg","18","25","Trash_Medical.jpg","18"
"081219","11:15:17","9","9","5.0.14.0","2","56","trial1","naming","0","0","0","0","blueberriesEnter Name","0","8706","1","White_Screen.jpg","21","140","Blueberry.jpg","21"
"081219","11:15:17","9","9","5.0.14.0","2","57","trial1","naming","0","0","0","0","paper towelEnter Name","0","6205","1","White_Screen.jpg","18","111","PaperTowel_Kitchen.jpg","18"
"081219","11:15:17","9","9","5.0.14.0","2","58","trial1","naming","0","0","0","0","tubeEnter Name","0","4144","1","White_Screen.jpg","16","46","TestTube_Single.jpg","16"
"081219","11:15:17","9","9","5.0.14.0","2","59","trial1","naming","0","0","0","0","signEnter Name","0","3067","1","White_Screen.jpg","17","45","Sign_Parking.jpg","17"
"081219","11:15:17","9","9","5.0.14.0","2","60","trial1","naming","0","0","0","0","adapterEnter Name","0","4762","1","White_Screen.jpg","16","168","Jack.jpg","16"
"081219","11:15:17","9","9","5.0.14.0","2","61","trial1","naming","0","0","0","0","hstEnter Name","0","2076","1","White_Screen.jpg","20","96","Hat_Police.jpg","20"
"081219","11:15:17","9","9","5.0.14.0","2","62","trial1","naming","0","0","0","0","chsirEnter Name","0","3566","1","White_Screen.jpg","20","182","Chair_Airplane.jpg","20"
"081219","11:15:17","9","9","5.0.14.0","2","63","trial1","naming","0","0","0","0","frameEnter Name","0","6847","1","White_Screen.jpg","20","166","PictureFrame.jpg","20"
"081219","11:15:17","9","9","5.0.14.0","2","64","trial1","naming","0","0","0","0","staplerEnter Name","0","7173","1","White_Screen.jpg","17","89","Stapler_Gun.jpg","17"
"081219","11:15:17","9","9","5.0.14.0","2","65","trial1","naming","0","0","0","0","lampEnter Name","0","4542","1","White_Screen.jpg","17","187","PatioHeater.jpg","17"
"081219","11:15:17","9","9","5.0.14.0","2","66","trial1","naming","0","0","0","0","tee shirtEnter Name","0","6102","1","White_Screen.jpg","19","76","Shirt_Tshirt.jpg","19"
"081219","11:15:17","9","9","5.0.14.0","2","67","trial1","naming","0","0","0","0","boxEnter Name","0","3194","1","White_Screen.jpg","23","74","Box_WoodenClosed.jpg","23"
"081219","11:15:17","9","9","5.0.14.0","2","68","trial1","naming","0","0","0","0","avacadoEnter Name","0","4819","1","White_Screen.jpg","22","73","Avocado.jpg","22"
"081219","11:15:17","9","9","5.0.14.0","2","69","trial1","naming","0","0","0","0","containreEnter Name","0","6792","1","White_Screen.jpg","23","36","Bottle_Bleach.jpg","23"
"081219","11:15:17","9","9","5.0.14.0","2","70","trial1","naming","0","0","0","0","shoesEnter Name","0","6646","1","White_Screen.jpg","21","19","Bindings_Snowboard.jpg","21"
"081219","11:15:17","9","9","5.0.14.0","2","71","trial1","naming","0","0","0","0","bagEnter Name","0","2271","1","White_Screen.jpg","21","37","Bag_Camera.jpg","21"
"081219","11:15:17","9","9","5.0.14.0","2","72","trial1","naming","0","0","0","0","riolling pinEnter Name","0","7565","1","White_Screen.jpg","20","125","RollingPin.jpg","20"
"081219","11:15:17","9","9","5.0.14.0","2","73","trial1","naming","0","0","0","0","dividerEnter Name","0","5191","1","White_Screen.jpg","18","11","Partition.jpg","18"
"081219","11:15:17","9","9","5.0.14.0","2","74","trial1","naming","0","0","0","0","game Enter Name","0","5855","1","White_Screen.jpg","19","126","NintendoWii.jpg","19"
"081219","11:15:17","9","9","5.0.14.0","2","75","trial1","naming","0","0","0","0","machine Enter Name","0","8497","1","White_Screen.jpg","19","186","Machine_Arm.jpg","19"
"081219","11:15:17","9","9","5.0.14.0","2","76","trial1","naming","0","0","0","0","jacket Enter Name","0","5025","1","White_Screen.jpg","17","98","Jacket_Suit.jpg","17"
"081219","11:15:17","9","9","5.0.14.0","2","77","trial1","naming","0","0","0","0","laundryEnter Name","0","6616","1","White_Screen.jpg","16","157","LaundryHamper.jpg","16"
"081219","11:15:17","9","9","5.0.14.0","2","78","trial1","naming","0","0","0","0","dust busterEnter Name","0","5892","1","White_Screen.jpg","14","137","VacuumHandheld.jpg","14"
"081219","11:15:17","9","9","5.0.14.0","2","79","trial1","naming","0","0","0","0","threadEnter Name","0","7057","1","White_Screen.jpg","16","116","Spool_Thread.jpg","16"
"081219","11:15:17","9","9","5.0.14.0","2","80","trial1","naming","0","0","0","0","statueEnter Name","0","4412","1","White_Screen.jpg","18","9","Statue_SouthAmerican.jpg","18"
"081219","11:15:17","9","9","5.0.14.0","2","81","trial1","naming","0","0","0","0","connectorEnter Name","0","6926","1","White_Screen.jpg","17","26","CableConnecter.jpg","17"
"081219","11:15:17","9","9","5.0.14.0","2","82","trial1","naming","0","0","0","0","pipeEnter Name","0","4044","1","White_Screen.jpg","18","23","SmokingPipe.jpg","18"
"081219","11:15:17","9","9","5.0.14.0","2","83","trial1","naming","0","0","0","0","watering caEnter Name","0","6633","1","White_Screen.jpg","20","100","WateringCan_PlasticDarkGreen.jpg","20"
"081219","11:15:17","9","9","5.0.14.0","2","84","trial1","naming","0","0","0","0","stickpinEnter Name","0","5693","1","White_Screen.jpg","13","169","SewingPin_Single.jpg","13"
"081219","11:15:17","9","9","5.0.14.0","2","85","trial1","naming","0","0","0","0","satellite disEnter Name","0","9144","1","White_Screen.jpg","15","101","SatelliteDish.jpg","15"
"081219","11:15:17","9","9","5.0.14.0","2","86","trial1","naming","0","0","0","0","doorknobEnter Name","0","7247","1","White_Screen.jpg","24","153","DoorKnob.jpg","24"
"081219","11:15:17","9","9","5.0.14.0","2","87","trial1","naming","0","0","0","0","statueEnter Name","0","7583","1","White_Screen.jpg","23","167","Statue_VirginMary.jpg","23"
"081219","11:15:17","9","9","5.0.14.0","2","88","trial1","naming","0","0","0","0","rimEnter Name","0","4034","1","White_Screen.jpg","18","136","TireRims.jpg","18"
"081219","11:15:17","9","9","5.0.14.0","2","89","trial1","naming","0","0","0","0","chess boardEnter Name","0","7357","1","White_Screen.jpg","20","103","Boardgame_Chess.jpg","20"
"081219","11:15:17","9","9","5.0.14.0","2","90","trial1","naming","0","0","0","0","drinkEnter Name","0","3402","1","White_Screen.jpg","20","93","Drink_Green.jpg","20"
"081219","11:15:17","9","9","5.0.14.0","2","91","trial1","naming","0","0","0","0","rubber bandEnter Name","0","5265","1","White_Screen.jpg","19","88","ElasticBand.jpg","19"
"081219","11:15:17","9","9","5.0.14.0","2","92","trial1","naming","0","0","0","0","lighthouseEnter Name","0","5800","1","White_Screen.jpg","20","183","LightHouse.jpg","20"
"081219","11:15:17","9","9","5.0.14.0","2","93","trial1","naming","0","0","0","0","chipmunkEnter Name","0","5319","1","White_Screen.jpg","21","40","Chipmunk.jpg","21"
"081219","11:15:17","9","9","5.0.14.0","2","94","trial1","naming","0","0","0","0","benchEnter Name","0","4533","1","White_Screen.jpg","20","150","Bench_Concrete.jpg","20"
"081219","11:15:17","9","9","5.0.14.0","2","95","trial1","naming","0","0","0","0","flowerEnter Name","0","3390","1","White_Screen.jpg","18","52","Flower_Hibiscus.jpg","18"
"081219","11:15:17","9","9","5.0.14.0","2","96","trial1","naming","0","0","0","0","containerEnter Name","0","7935","1","White_Screen.jpg","18","179","Instrument_Guiro.jpg","18"
"081219","11:15:17","9","9","5.0.14.0","2","97","trial1","naming","0","0","0","0","shellEnter Name","0","3050","1","White_Screen.jpg","17","32","Seashell_BayScallop.jpg","17"
"081219","11:15:17","9","9","5.0.14.0","2","98","trial1","naming","0","0","0","0","bagEnter Name","0","2659","1","White_Screen.jpg","16","80","Bag_Diaper.jpg","16"
"081219","11:15:17","9","9","5.0.14.0","2","99","trial1","naming","0","0","0","0","? Enter Name","0","8134","1","White_Screen.jpg","16","42","ChalkLineTool.jpg","16"
"081219","11:15:17","9","9","5.0.14.0","2","100","trial1","naming","0","0","0","0","? Enter Name","0","4254","1","White_Screen.jpg","19","181","CarSuspension.jpg","19"
"081219","11:15:17","9","9","5.0.14.0","2","101","trial1","naming","0","0","0","0","stage Enter Name","0","5201","1","White_Screen.jpg","17","189","Booth_Carnival.jpg","17"
"081219","11:15:17","9","9","5.0.14.0","2","103","trial1","naming","0","0","0","0","dressEnter Name","0","2991","1","White_Screen.jpg","21","61","Dress_Cocktail.jpg","21"
"081219","11:15:17","9","9","5.0.14.0","2","104","trial1","naming","0","0","0","0","spaghetti Enter Name","0","7283","1","White_Screen.jpg","19","99","Pasta_Spaghetti.jpg","19"
"081219","11:15:17","9","9","5.0.14.0","2","105","trial1","naming","0","0","0","0","woodEnter Name","0","3599","1","White_Screen.jpg","18","43","Branches_Campfire.jpg","18"
"081219","11:15:17","9","9","5.0.14.0","2","106","trial1","naming","0","0","0","0","horseshoeEnter Name","0","5068","1","White_Screen.jpg","17","159","Horseshoe.jpg","17"
"081219","11:15:17","9","9","5.0.14.0","2","107","trial1","naming","0","0","0","0","cleanerEnter Name","0","3969","1","White_Screen.jpg","16","139","Spraybottle.jpg","16"
"081219","11:15:17","9","9","5.0.14.0","2","108","trial1","naming","0","0","0","0","jelly beansEnter Name","0","6003","1","White_Screen.jpg","18","15","Jar_JellyBeans.jpg","18"
"081219","11:15:17","9","9","5.0.14.0","2","109","trial1","naming","0","0","0","0","birdEnter Name","0","2887","1","White_Screen.jpg","20","53","Bird_Cardinal.jpg","20"
"081219","11:15:17","9","9","5.0.14.0","2","110","trial1","naming","0","0","0","0","loveseatEnter Name","0","4589","1","White_Screen.jpg","21","176","SofaAntique.jpg","21"
"081219","11:15:17","9","9","5.0.14.0","2","111","trial1","naming","0","0","0","0","pipeEnter Name","0","3302","1","White_Screen.jpg","24","154","Pipe.jpg","24"
"081219","11:15:17","9","9","5.0.14.0","2","112","trial1","naming","0","0","0","0","ping pong taEnter Name","0","8744","1","White_Screen.jpg","21","55","Table_PingPong.jpg","21"
"081219","11:15:17","9","9","5.0.14.0","2","113","trial1","naming","0","0","0","0","catEnter Name","0","1937","1","White_Screen.jpg","21","149","Cat.jpg","21"
"081219","11:15:17","9","9","5.0.14.0","2","114","trial1","naming","0","0","0","0","pretzelsEnter Name","0","9183","1","White_Screen.jpg","19","82","Pretzel_Sticks.jpg","19"
"081219","11:15:17","9","9","5.0.14.0","2","115","trial1","naming","0","0","0","0","escalatorEnter Name","0","6371","1","White_Screen.jpg","18","131","Escalator.jpg","18"
"081219","11:15:17","9","9","5.0.14.0","2","116","trial1","naming","0","0","0","0","frameEnter Name","0","3788","1","White_Screen.jpg","17","146","CertificateFramed.jpg","17"
"081219","11:15:17","9","9","5.0.14.0","2","117","trial1","naming","0","0","0","0","birdEnter Name","0","3643","1","White_Screen.jpg","20","51","Flamingo_Cartoon.jpg","20"
"081219","11:15:17","9","9","5.0.14.0","2","118","trial1","naming","0","0","0","0","masher Enter Name","0","6444","1","White_Screen.jpg","17","175","PotatoMasher_Zigzag.jpg","17"
"081219","11:15:17","9","9","5.0.14.0","2","119","trial1","naming","0","0","0","0","lint brushEnter Name","0","8244","1","White_Screen.jpg","19","165","Brush_Light.jpg","19"
"081219","11:15:17","9","9","5.0.14.0","2","120","trial1","naming","0","0","0","0","honeycombEnter Name","0","8837","1","White_Screen.jpg","18","97","Honeycomb.jpg","18"
"081219","11:15:17","9","9","5.0.14.0","2","121","trial1","naming","0","0","0","0","bowlEnter Name","0","5190","1","White_Screen.jpg","15","112","Bowl_Chinese.jpg","15"
"081219","11:15:17","9","9","5.0.14.0","2","122","trial1","naming","0","0","0","0","lanternEnter Name","0","4632","1","White_Screen.jpg","15","70","Lantern_TeaBox.jpg","15"
"081219","11:15:17","9","9","5.0.14.0","2","123","trial1","naming","0","0","0","0","pipeEnter Name","0","5808","1","White_Screen.jpg","16","13","Organ.jpg","16"
"081219","11:15:17","9","9","5.0.14.0","2","124","trial1","naming","0","0","0","0","lighter Enter Name","0","5740","1","White_Screen.jpg","21","114","Lighter_Yellow.jpg","21"
"081219","11:15:17","9","9","5.0.14.0","2","125","trial1","naming","0","0","0","0","jarEnter Name","0","5385","1","White_Screen.jpg","19","79","Bottle_Liquor.jpg","19"
"081219","11:15:17","9","9","5.0.14.0","2","126","trial1","naming","0","0","0","0","bow Enter Name","0","4692","1","White_Screen.jpg","19","22","Crossbow.jpg","19"
"081219","11:15:17","9","9","5.0.14.0","2","127","trial1","naming","0","0","0","0","measuring tEnter Name","0","7178","1","White_Screen.jpg","17","128","MeasuringTape.jpg","17"
"081219","11:15:17","9","9","5.0.14.0","2","128","trial1","naming","0","0","0","0","injEnter Name","0","10000","1","White_Screen.jpg","17","130","Syringe_Blunt.jpg","17"
"081219","11:15:17","9","9","5.0.14.0","2","129","trial1","naming","0","0","0","0","napkin Enter Name","0","8386","1","White_Screen.jpg","17","68","Napkin_Single.jpg","17"
"081219","11:15:17","9","9","5.0.14.0","2","130","trial1","naming","0","0","0","0","trainEnter Name","0","3067","1","White_Screen.jpg","20","2","Toy_Train.jpg","20"
"081219","11:15:17","9","9","5.0.14.0","2","131","trial1","naming","0","0","0","0","dropEnter Name","0","3940","1","White_Screen.jpg","19","143","Teardrop.jpg","19"
"081219","11:15:17","9","9","5.0.14.0","2","132","trial1","naming","0","0","0","0","escape key Enter Name","0","6152","1","White_Screen.jpg","22","3","ComputerKey_Escape.jpg","22"
"081219","11:15:17","9","9","5.0.14.0","2","133","trial1","naming","0","0","0","0","signEnter Name","0","3392","1","White_Screen.jpg","21","35","Sign_SlipperyRoad.jpg","21"
"081219","11:15:17","9","9","5.0.14.0","2","134","trial1","naming","0","0","0","0","carosel Enter Name","0","4801","1","White_Screen.jpg","15","48","Carousel copy.jpg","15"
"081219","11:15:17","9","9","5.0.14.0","2","135","trial1","naming","0","0","0","0","lamp Enter Name","0","3561","1","White_Screen.jpg","17","188","Lamp_Table.jpg","17"
"081219","11:15:17","9","9","5.0.14.0","2","136","trial1","naming","0","0","0","0","trumpet Enter Name","0","5605","1","White_Screen.jpg","18","33","Trumpet.jpg","18"
"081219","11:15:17","9","9","5.0.14.0","2","137","trial1","naming","0","0","0","0","ski maskEnter Name","0","5114","1","White_Screen.jpg","21","190","Mask_Ski.jpg","21"
"081219","11:15:17","9","9","5.0.14.0","2","138","trial1","naming","0","0","0","0","railing Enter Name","0","5651","1","White_Screen.jpg","21","177","Balcony.jpg","21"
"081219","11:15:17","9","9","5.0.14.0","2","139","trial1","naming","0","0","0","0","kitchen toolEnter Name","0","8246","1","White_Screen.jpg","23","107","KitchenTools.jpg","23"
"081219","11:15:17","9","9","5.0.14.0","2","140","trial1","naming","0","0","0","0","bowling pin Enter Name","0","6720","1","White_Screen.jpg","19","178","BowlingPin.jpg","19"
"081219","11:15:17","9","9","5.0.14.0","2","141","trial1","naming","0","0","0","0","iron Enter Name","0","3813","1","White_Screen.jpg","18","117","Iron_Antique.jpg","18"
"081219","11:15:17","9","9","5.0.14.0","2","142","trial1","naming","0","0","0","0","candu bar Enter Name","0","5873","1","White_Screen.jpg","18","155","ChocolateBar_Unwrapped.jpg","18"
"081219","11:15:17","9","9","5.0.14.0","2","143","trial1","naming","0","0","0","0","arrows Enter Name","0","4772","1","White_Screen.jpg","18","34","Archery_Arrows.jpg","18"
"081219","11:15:17","9","9","5.0.14.0","2","144","trial1","naming","0","0","0","0","lion Enter Name","0","3430","1","White_Screen.jpg","15","122","Toy_Lion.jpg","15"
"081219","11:15:17","9","9","5.0.14.0","2","145","trial1","naming","0","0","0","0","dieEnter Name","0","2892","1","White_Screen.jpg","15","60","Dice.jpg","15"
"081219","11:15:17","9","9","5.0.14.0","2","146","trial1","naming","0","0","0","0","elephant Enter Name","0","5788","1","White_Screen.jpg","18","162","Elephant.jpg","18"
"081219","11:15:17","9","9","5.0.14.0","2","147","trial1","naming","0","0","0","0","beansEnter Name","0","6743","1","White_Screen.jpg","22","124","CoffeeBeans.jpg","22"
"081219","11:15:17","9","9","5.0.14.0","2","148","trial1","naming","0","0","0","0","ruler Enter Name","0","4396","1","White_Screen.jpg","22","185","SetSquare.jpg","22"
"081219","11:15:17","9","9","5.0.14.0","2","149","trial1","naming","0","0","0","0","barometer Enter Name","0","5163","1","White_Screen.jpg","22","141","Barometer_Wood.jpg","22"
"081219","11:15:17","9","9","5.0.14.0","2","150","trial1","naming","0","0","0","0","memory Enter Name","0","5033","1","White_Screen.jpg","19","198","RAMchip.jpg","19"
"081219","11:15:17","9","9","5.0.14.0","2","151","trial1","naming","0","0","0","0","soap Enter Name","0","4046","1","White_Screen.jpg","18","10","Soap.jpg","18"
"081219","11:15:17","9","9","5.0.14.0","2","152","trial1","naming","0","0","0","0","granola bar Enter Name","0","5222","1","White_Screen.jpg","16","145","GranolaBar.jpg","16"
"081219","11:15:17","9","9","5.0.14.0","2","154","trial1","naming","0","0","0","0","kangaroo Enter Name","0","5742","1","White_Screen.jpg","15","196","Kangaroo_WithJoey.jpg","15"
"081219","11:15:17","9","9","5.0.14.0","2","155","trial1","naming","0","0","0","0","windmill Enter Name","0","7777","1","White_Screen.jpg","21","147","Windmill_Building.jpg","21"
"081219","11:15:17","9","9","5.0.14.0","2","156","trial1","naming","0","0","0","0","/Enter Name","0","3494","1","White_Screen.jpg","22","108","TrapAnimal.jpg","22"
"081219","11:15:17","9","9","5.0.14.0","2","157","trial1","naming","0","0","0","0","heartEnter Name","0","3703","1","White_Screen.jpg","21","38","Candy_Heart.jpg","21"
"081219","11:15:17","9","9","5.0.14.0","2","158","trial1","naming","0","0","0","0","nut Enter Name","0","3120","1","White_Screen.jpg","19","133","Nuts_Pecan.jpg","19"
"081219","11:15:17","9","9","5.0.14.0","2","159","trial1","naming","0","0","0","0","vase Enter Name","0","4771","1","White_Screen.jpg","19","184","Pottery.jpg","19"
"081219","11:15:17","9","9","5.0.14.0","2","160","trial1","naming","0","0","0","0","carosel Enter Name","0","4503","1","White_Screen.jpg","21","75","Toy_MerryGoRound.jpg","21"
"081219","11:15:17","9","9","5.0.14.0","2","161","trial1","naming","0","0","0","0","melon Enter Name","0","3831","1","White_Screen.jpg","20","110","Honeydew_Green.jpg","20"
"081219","11:15:17","9","9","5.0.14.0","2","162","trial1","naming","0","0","0","0","boots Enter Name","0","8350","1","White_Screen.jpg","19","81","Booties_Blue.jpg","19"
"081219","11:15:17","9","9","5.0.14.0","2","163","trial1","naming","0","0","0","0","music Enter Name","0","6884","1","White_Screen.jpg","17","44","MusicSheet.jpg","17"
"081219","11:15:17","9","9","5.0.14.0","2","164","trial1","naming","0","0","0","0","speakers Enter Name","0","5057","1","White_Screen.jpg","13","8","Speaker_Computer.jpg","13"
"081219","11:15:17","9","9","5.0.14.0","2","165","trial1","naming","0","0","0","0","pasta Enter Name","0","3477","1","White_Screen.jpg","15","50","Pasta_Shell.jpg","15"
"081219","11:15:17","9","9","5.0.14.0","2","166","trial1","naming","0","0","0","0","spider webEnter Name","0","4392","1","White_Screen.jpg","15","148","SpiderWeb.jpg","15"
"081219","11:15:17","9","9","5.0.14.0","2","167","trial1","naming","0","0","0","0","propAEnter Name","0","10000","1","White_Screen.jpg","17","67","Cannister_Gas.jpg","17"
"081219","11:15:17","9","9","5.0.14.0","2","168","trial1","naming","0","0","0","0","Enter Name","0","89","1","White_Screen.jpg","18","84","Table_Set.jpg","18"
"081219","11:15:17","9","9","5.0.14.0","2","169","trial1","naming","0","0","0","0","INFLATOREnter Name","0","7325","1","White_Screen.jpg","20","29","AirPump.jpg","20"
"081219","11:15:17","9","9","5.0.14.0","2","170","trial1","naming","0","0","0","0","dumpling Enter Name","0","6766","1","White_Screen.jpg","15","16","Wontons.jpg","15"
"081219","11:15:17","9","9","5.0.14.0","2","171","trial1","naming","0","0","0","0","belt Enter Name","0","3706","1","White_Screen.jpg","12","66","Belt.jpg","12"
"081219","11:15:17","9","9","5.0.14.0","2","172","trial1","naming","0","0","0","0","sandwich Enter Name","0","6807","1","White_Screen.jpg","15","6","Sandwich_Egg.jpg","15"
"081219","11:15:17","9","9","5.0.14.0","2","173","trial1","naming","0","0","0","0","banana Enter Name","0","3312","1","White_Screen.jpg","15","4","Banana.jpg","15"
"081219","11:15:17","9","9","5.0.14.0","2","174","trial1","naming","0","0","0","0","mask Enter Name","0","3314","1","White_Screen.jpg","13","158","Mask_VenetianCat.jpg","13"
"081219","11:15:17","9","9","5.0.14.0","2","175","trial1","naming","0","0","0","0","battery raterEnter Name","0","6452","1","White_Screen.jpg","16","30","AmpMeter.jpg","16"
"081219","11:15:17","9","9","5.0.14.0","2","176","trial1","naming","0","0","0","0","keyboard Enter Name","0","5321","1","White_Screen.jpg","19","56","Piano_Keyboard.jpg","19"
"081219","11:15:17","9","9","5.0.14.0","2","177","trial1","naming","0","0","0","0","desk Enter Name","0","3640","1","White_Screen.jpg","19","170","Desk_Office.jpg","19"
"081219","11:15:17","9","9","5.0.14.0","2","178","trial1","naming","0","0","0","0","smoke detetEnter Name","0","7782","1","White_Screen.jpg","16","195","SmokeDetector.jpg","16"
"081219","11:15:17","9","9","5.0.14.0","2","179","trial1","naming","0","0","0","0","gorilla Enter Name","0","5431","1","White_Screen.jpg","18","90","Gorilla.jpg","18"
"081219","11:15:17","9","9","5.0.14.0","2","180","trial1","naming","0","0","0","0","monitorEnter Name","0","8393","1","White_Screen.jpg","17","71","BicycleOdometer.jpg","17"
"081219","11:15:17","9","9","5.0.14.0","2","181","trial1","naming","0","0","0","0","pig Enter Name","0","10000","1","White_Screen.jpg","18","94","Boar.jpg","18"
"081219","11:15:17","9","9","5.0.14.0","2","182","trial1","naming","0","0","0","0","Enter Name","0","299","1","White_Screen.jpg","20","161","Corn.jpg","20"
"081219","11:15:17","9","9","5.0.14.0","2","183","trial1","naming","0","0","0","0","bbq grillEnter Name","0","9896","1","White_Screen.jpg","18","151","Grill_Gas.jpg","18"
"081219","11:15:17","9","9","5.0.14.0","2","184","trial1","naming","0","0","0","0","grinderEnter Name","0","4875","1","White_Screen.jpg","19","172","IceCrusher.jpg","19"
"081219","11:15:17","9","9","5.0.14.0","2","185","trial1","naming","0","0","0","0","ironing boarEnter Name","0","8003","1","White_Screen.jpg","18","57","IroningBoard.jpg","18"
"081219","11:15:17","9","9","5.0.14.0","2","186","trial1","naming","0","0","0","0","pillsEnter Name","0","3596","1","White_Screen.jpg","21","21","PillBottle_Prescription.jpg","21"
"081219","11:15:17","9","9","5.0.14.0","2","187","trial1","naming","0","0","0","0","scoop Enter Name","0","5018","1","White_Screen.jpg","21","47","CheeseSlicer.jpg","21"
"081219","11:15:17","9","9","5.0.14.0","2","188","trial1","naming","0","0","0","0","burger Enter Name","0","4399","1","White_Screen.jpg","21","63","Cheeseburger.jpg","21"
"081219","11:15:17","9","9","5.0.14.0","2","189","trial1","naming","0","0","0","0","helmutEnter Name","0","4493","1","White_Screen.jpg","21","113","Mask_HockeyGoalie.jpg","21"
"081219","11:15:17","9","9","5.0.14.0","2","190","trial1","naming","0","0","0","0","envelope Enter Name","0","7288","1","White_Screen.jpg","21","12","Envelope_Letter.jpg","21"
"081219","11:15:17","9","9","5.0.14.0","2","191","trial1","naming","0","0","0","0","fluteEnter Name","0","5525","1","White_Screen.jpg","23","62","Flute_Tin.jpg","23"
"081219","11:15:17","9","9","5.0.14.0","2","192","trial1","naming","0","0","0","0","speaker Enter Name","0","4677","1","White_Screen.jpg","25","17","Speaker_OnStand.jpg","25"
"081219","11:15:17","9","9","5.0.14.0","2","193","trial1","naming","0","0","0","0","high chairEnter Name","0","7032","1","White_Screen.jpg","19","59","Chair_High.jpg","19"
"081219","11:15:17","9","9","5.0.14.0","2","194","trial1","naming","0","0","0","0","bagEnter Name","0","3702","1","White_Screen.jpg","21","14","Backpack_Travel.jpg","21"
"081219","11:15:17","9","9","5.0.14.0","2","195","trial1","naming","0","0","0","0","bison Enter Name","0","6028","1","White_Screen.jpg","18","27","Buffalo.jpg","18"
"081219","11:15:17","9","9","5.0.14.0","2","196","trial1","naming","0","0","0","0","ribbonEnter Name","0","5181","1","White_Screen.jpg","22","115","RibbonString.jpg","22"
"081219","11:15:17","9","9","5.0.14.0","2","197","trial1","naming","0","0","0","0","helmutEnter Name","0","5605","1","White_Screen.jpg","22","132","Helmet_Soldier.jpg","22"
"081219","11:15:17","9","9","5.0.14.0","2","198","trial1","naming","0","0","0","0","box Enter Name","0","7953","1","White_Screen.jpg","23","54","Trunk.jpg","23"
"081219","11:15:17","9","9","5.0.14.0","2","199","trial1","naming","0","0","0","0","plate Enter Name","0","4749","1","White_Screen.jpg","20","104","Tray_Metal.jpg","20"
"081219","11:15:17","9","9","5.0.14.0","2","200","trial1","naming","0","0","0","0","carEnter Name","0","1720","1","White_Screen.jpg","20","163","Car_Ferrari.jpg","20"
"081219","11:15:17","9","9","5.0.14.0","2","201","trial1","naming","0","0","0","0","cymbalsEnter Name","0","4847","1","White_Screen.jpg","19","164","Drum_Cymbal.jpg","19"
"081219","11:15:17","9","9","5.0.14.0","2","202","trial1","naming","0","0","0","0","art Enter Name","0","6335","1","White_Screen.jpg","17","152","Stone_Mill.jpg","17"
"081219","11:15:17","9","9","5.0.14.0","2","203","trial1","naming","0","0","0","0","nut Enter Name","0","3460","1","White_Screen.jpg","17","49","Hazelnut.jpg","17"
"081219","11:15:17","9","9","5.0.14.0","3","1","demographics_block","gender","0","0","0","0","female","1","20523","0","0","0","0","0","0"
"081219","11:15:17","9","9","5.0.14.0","3","1","demographics_block","age","0","0","0","0","51","1","20523","0","0","0","0","0","0"
"081219","11:15:17","9","9","5.0.14.0","3","1","demographics_block","education","0","0","0","0","16","1","20523","0","0","0","0","0","0"
"081219","11:15:17","9","9","5.0.14.0","3","2","demographics_block","left_right_handed","0","0","0","0","Left","1","14403","0","0","0","0","0","0"
"081219","11:15:17","9","9","5.0.14.0","3","2","demographics_block","raceoption1","0","0","0","0","","1","14403","0","0","0","0","0","0"
"081219","11:15:17","9","9","5.0.14.0","3","2","demographics_block","raceoption2","0","0","0","0","","1","14403","0","0","0","0","0","0"
"081219","11:15:17","9","9","5.0.14.0","3","2","demographics_block","raceoption3","0","0","0","0","","1","14403","0","0","0","0","0","0"
"081219","11:15:17","9","9","5.0.14.0","3","2","demographics_block","raceoption4","0","0","0","0","","1","14403","0","0","0","0","0","0"
"081219","11:15:17","9","9","5.0.14.0","3","2","demographics_block","raceoption5","0","0","0","0","","1","14403","0","0","0","0","0","0"
"081219","11:15:17","9","9","5.0.14.0","3","2","demographics_block","raceoption6","0","0","0","0","","1","14403","0","0","0","0","0","0"
"081219","11:15:17","9","9","5.0.14.0","3","2","demographics_block","raceoption7","0","0","0","0","","1","14403","0","0","0","0","0","0"
"081219","11:15:17","9","9","5.0.14.0","3","2","demographics_block","raceoption8","0","0","0","0","","1","14403","0","0","0","0","0","0"
"081219","11:15:17","9","9","5.0.14.0","3","2","demographics_block","raceoption9","0","0","0","0","8","1","14403","0","0","0","0","0","0"
"081219","11:15:17","9","9","5.0.14.0","3","2","demographics_block","raceother","0","0","0","0","mixed","1","14403","0","0","0","0","0","0"
"081219","11:15:17","9","9","5.0.14.0","3","2","demographics_block","raceother","0","0","0","0","mixed","1","14403","0","0","0","0","0","0"
"081219","11:15:17","9","9","5.0.14.0","3","2","demographics_block","english_language","0","0","0","0","Yes","1","14403","0","0","0","0","0","0"
"081219","11:15:17","9","9","5.0.14.0","3","2","demographics_block","english_languageother","0","0","0","0","","1","14403","0","0","0","0","0","0"
"081219","11:15:17","9","9","5.0.14.0","3","3","demographics_block","eyesight","0","0","0","0","Yes","1","5034","0","0","0","0","0","0"
"081219","11:15:17","9","9","5.0.14.0","3","3","demographics_block","colorblind","0","0","0","0","No","1","5034","0","0","0","0","0","0"
"081219","11:15:17","9","9","5.0.14.0","4","1","worker_id_block","worker_id_textbox","0","0","0","0","A49A0FF6ZXYDU","1","6394","0","0","0","0","0","0"
"081219","11:25:32","10","10","5.0.14.0","2","1","trial1","naming","0","0","0","0","fauset","0","9408","1","White_Screen.jpg","51","102","Tap.jpg","51"
"081219","11:25:32","10","10","5.0.14.0","2","2","trial1","naming","0","0","0","0","star","0","7172","1","White_Screen.jpg","8","20","Star.jpg","8"
"081219","11:25:32","10","10","5.0.14.0","2","3","trial1","naming","0","0","0","0","mask","0","3402","1","White_Screen.jpg","7","190","Mask_Ski.jpg","7"
"081219","11:25:32","10","10","5.0.14.0","2","4","trial1","naming","0","0","0","0","backpack","0","4548","1","White_Screen.jpg","10","14","Backpack_Travel.jpg","10"
"081219","11:25:32","10","10","5.0.14.0","2","5","trial1","naming","0","0","0","0","jar","0","5457","1","White_Screen.jpg","7","112","Bowl_Chinese.jpg","7"
"081219","11:25:32","10","10","5.0.14.0","2","6","trial1","naming","0","0","0","0","smoke alarm","0","5257","1","White_Screen.jpg","8","195","SmokeDetector.jpg","8"
"081219","11:25:32","10","10","5.0.14.0","2","7","trial1","naming","0","0","0","0","chest","0","3773","1","White_Screen.jpg","9","74","Box_WoodenClosed.jpg","9"
"081219","11:25:32","10","10","5.0.14.0","2","8","trial1","naming","0","0","0","0","avocado","0","4172","1","White_Screen.jpg","6","73","Avocado.jpg","6"
"081219","11:25:32","10","10","5.0.14.0","2","9","trial1","naming","0","0","0","0","bin","0","3237","1","White_Screen.jpg","8","1","BinRecycling.jpg","8"
"081219","11:25:32","10","10","5.0.14.0","2","10","trial1","naming","0","0","0","0","knife","0","5658","1","White_Screen.jpg","8","193","PocketKnife.jpg","8"
"081219","11:25:32","10","10","5.0.14.0","2","11","trial1","naming","0","0","0","0","lion","0","4081","1","White_Screen.jpg","8","122","Toy_Lion.jpg","8"
"081219","11:25:32","10","10","5.0.14.0","2","12","trial1","naming","0","0","0","0","stetiscope","0","7082","1","White_Screen.jpg","7","105","Stethoscope.jpg","7"
"081219","11:25:32","10","10","5.0.14.0","2","13","trial1","naming","0","0","0","0","doE","0","10000","1","White_Screen.jpg","10","153","DoorKnob.jpg","10"
"081219","11:25:32","10","10","5.0.14.0","2","14","trial1","naming","0","0","0","0","frame","0","6230","1","White_Screen.jpg","6","146","CertificateFramed.jpg","6"
"081219","11:25:32","10","10","5.0.14.0","2","15","trial1","naming","0","0","0","0","chip","0","3964","1","White_Screen.jpg","7","198","RAMchip.jpg","7"
"081219","11:25:32","10","10","5.0.14.0","2","16","trial1","naming","0","0","0","0","bath bomb","0","6340","1","White_Screen.jpg","8","10","Soap.jpg","8"
"081219","11:25:32","10","10","5.0.14.0","2","17","trial1","naming","0","0","0","0","vacuum","0","4926","1","White_Screen.jpg","7","137","VacuumHandheld.jpg","7"
"081219","11:25:32","10","10","5.0.14.0","2","18","trial1","naming","0","0","0","0","pin","0","8552","1","White_Screen.jpg","8","178","BowlingPin.jpg","8"
"081219","11:25:32","10","10","5.0.14.0","2","19","trial1","naming","0","0","0","0","trumpet Enter Name","0","3312","1","White_Screen.jpg","7","33","Trumpet.jpg","7"
"081219","11:25:32","10","10","5.0.14.0","2","20","trial1","naming","0","0","0","0","fense Enter Name","0","3414","1","White_Screen.jpg","8","177","Balcony.jpg","8"
"081219","11:25:32","10","10","5.0.14.0","2","21","trial1","naming","0","0","0","0","canister Enter Name","0","5470","1","White_Screen.jpg","6","67","Cannister_Gas.jpg","6"
"081219","11:25:32","10","10","5.0.14.0","2","22","trial1","naming","0","0","0","0","chip Enter Name","0","2786","1","White_Screen.jpg","9","199","TortillaChip.jpg","9"
"081219","11:25:32","10","10","5.0.14.0","2","23","trial1","naming","0","0","0","0","boots Enter Name","0","3581","1","White_Screen.jpg","7","81","Booties_Blue.jpg","7"
"081219","11:25:32","10","10","5.0.14.0","2","24","trial1","naming","0","0","0","0","jar Enter Name","0","2432","1","White_Screen.jpg","7","184","Pottery.jpg","7"
"081219","11:25:32","10","10","5.0.14.0","2","25","trial1","naming","0","0","0","0","metal Enter Name","0","4783","1","White_Screen.jpg","8","164","Drum_Cymbal.jpg","8"
"081219","11:25:32","10","10","5.0.14.0","2","26","trial1","naming","0","0","0","0","spoon Enter Name","0","4018","1","White_Screen.jpg","7","47","CheeseSlicer.jpg","7"
"081219","11:25:32","10","10","5.0.14.0","2","27","trial1","naming","0","0","0","0","dice Enter Name","0","2227","1","White_Screen.jpg","7","60","Dice.jpg","7"
"081219","11:25:32","10","10","5.0.14.0","2","28","trial1","naming","0","0","0","0","iron Enter Name","0","2890","1","White_Screen.jpg","7","117","Iron_Antique.jpg","7"
"081219","11:25:32","10","10","5.0.14.0","2","29","trial1","naming","0","0","0","0","magnifiyer Enter Name","0","7000","1","White_Screen.jpg","7","168","Jack.jpg","7"
"081219","11:25:32","10","10","5.0.14.0","2","30","trial1","naming","0","0","0","0","insoles Enter Name","0","4582","1","White_Screen.jpg","8","192","Heelpad.jpg","8"
"081219","11:25:32","10","10","5.0.14.0","2","31","trial1","naming","0","0","0","0","burger Enter Name","0","2545","1","White_Screen.jpg","7","63","Cheeseburger.jpg","7"
"081219","11:25:32","10","10","5.0.14.0","2","32","trial1","naming","0","0","0","0","chest Enter Name","0","3129","1","White_Screen.jpg","7","83","Chest.jpg","7"
"081219","11:25:32","10","10","5.0.14.0","2","33","trial1","naming","0","0","0","0","ribbon Enter Name","0","3085","1","White_Screen.jpg","10","115","RibbonString.jpg","10"
"081219","11:25:32","10","10","5.0.14.0","2","34","trial1","naming","0","0","0","0","chestnut Enter Name","0","5169","1","White_Screen.jpg","9","49","Hazelnut.jpg","9"
"081219","11:25:32","10","10","5.0.14.0","2","35","trial1","naming","0","0","0","0","horse shoe Enter Name","0","6525","1","White_Screen.jpg","8","159","Horseshoe.jpg","8"
"081219","11:25:32","10","10","5.0.14.0","2","36","trial1","naming","0","0","0","0","bible Enter Name","0","3140","1","White_Screen.jpg","11","129","Bible.jpg","11"
"081219","11:25:32","10","10","5.0.14.0","2","37","trial1","naming","0","0","0","0","owl Enter Name","0","4100","1","White_Screen.jpg","7","77","Owl.jpg","7"
"081219","11:25:32","10","10","5.0.14.0","2","38","trial1","naming","0","0","0","0","flimingo Enter Name","0","3415","1","White_Screen.jpg","8","51","Flamingo_Cartoon.jpg","8"
"081219","11:25:32","10","10","5.0.14.0","2","39","trial1","naming","0","0","0","0","chellEnter Name","0","2449","1","White_Screen.jpg","8","32","Seashell_BayScallop.jpg","8"
"081219","11:25:32","10","10","5.0.14.0","2","40","trial1","naming","0","0","0","0","heart Enter Name","0","4019","1","White_Screen.jpg","8","38","Candy_Heart.jpg","8"
"081219","11:25:32","10","10","5.0.14.0","2","41","trial1","naming","0","0","0","0","dileEnter Name","0","5957","1","White_Screen.jpg","7","172","IceCrusher.jpg","7"
"081219","11:25:32","10","10","5.0.14.0","2","42","trial1","naming","0","0","0","0","robot Enter Name","0","3781","1","White_Screen.jpg","8","186","Machine_Arm.jpg","8"
"081219","11:25:32","10","10","5.0.14.0","2","43","trial1","naming","0","0","0","0","pack Enter Name","0","3142","1","White_Screen.jpg","7","37","Bag_Camera.jpg","7"
"081219","11:25:32","10","10","5.0.14.0","2","44","trial1","naming","0","0","0","0","bleachEnter Name","0","4398","1","White_Screen.jpg","7","36","Bottle_Bleach.jpg","7"
"081219","11:25:32","10","10","5.0.14.0","2","45","trial1","naming","0","0","0","0","cruise Enter Name","0","6040","1","White_Screen.jpg","8","121","Ship_Cruise.jpg","8"
"081219","11:25:32","10","10","5.0.14.0","2","46","trial1","naming","0","0","0","0","marker Enter Name","0","5095","1","White_Screen.jpg","7","42","ChalkLineTool.jpg","7"
"081219","11:25:32","10","10","5.0.14.0","2","47","trial1","naming","0","0","0","0","mask Enter Name","0","2767","1","White_Screen.jpg","7","158","Mask_VenetianCat.jpg","7"
"081219","11:25:32","10","10","5.0.14.0","2","48","trial1","naming","0","0","0","0","castle Enter Name","0","3537","1","White_Screen.jpg","7","5","Fortress.jpg","7"
"081219","11:25:32","10","10","5.0.14.0","2","49","trial1","naming","0","0","0","0","pasta Enter Name","0","3383","1","White_Screen.jpg","7","50","Pasta_Shell.jpg","7"
"081219","11:25:32","10","10","5.0.14.0","2","50","trial1","naming","0","0","0","0","tape measurEnter Name","0","5192","1","White_Screen.jpg","8","128","MeasuringTape.jpg","8"
"081219","11:25:32","10","10","5.0.14.0","2","52","trial1","naming","0","0","0","0","tubeEnter Name","0","2419","1","White_Screen.jpg","8","154","Pipe.jpg","8"
"081219","11:25:32","10","10","5.0.14.0","2","53","trial1","naming","0","0","0","0","case Enter Name","0","2588","1","White_Screen.jpg","7","118","Case_Pencil.jpg","7"
"081219","11:25:32","10","10","5.0.14.0","2","54","trial1","naming","0","0","0","0","jar Enter Name","0","2438","1","White_Screen.jpg","6","79","Bottle_Liquor.jpg","6"
"081219","11:25:32","10","10","5.0.14.0","2","55","trial1","naming","0","0","0","0","basket Enter Name","0","4242","1","White_Screen.jpg","8","157","LaundryHamper.jpg","8"
"081219","11:25:32","10","10","5.0.14.0","2","56","trial1","naming","0","0","0","0","tree Enter Name","0","2194","1","White_Screen.jpg","8","78","Puzzle_Tree.jpg","8"
"081219","11:25:32","10","10","5.0.14.0","2","57","trial1","naming","0","0","0","0","lamp Enter Name","0","2358","1","White_Screen.jpg","7","188","Lamp_Table.jpg","7"
"081219","11:25:32","10","10","5.0.14.0","2","58","trial1","naming","0","0","0","0","hair Enter Name","0","2495","1","White_Screen.jpg","8","182","Chair_Airplane.jpg","8"
"081219","11:25:32","10","10","5.0.14.0","2","59","trial1","naming","0","0","0","0","corn Enter Name","0","2335","1","White_Screen.jpg","7","161","Corn.jpg","7"
"081219","11:25:32","10","10","5.0.14.0","2","60","trial1","naming","0","0","0","0","rino Enter Name","0","3703","1","White_Screen.jpg","7","27","Buffalo.jpg","7"
"081219","11:25:32","10","10","5.0.14.0","2","61","trial1","naming","0","0","0","0","burger Enter Name","0","4256","1","White_Screen.jpg","7","6","Sandwich_Egg.jpg","7"
"081219","11:25:32","10","10","5.0.14.0","2","62","trial1","naming","0","0","0","0","car Enter Name","0","2301","1","White_Screen.jpg","6","163","Car_Ferrari.jpg","6"
"081219","11:25:32","10","10","5.0.14.0","2","63","trial1","naming","0","0","0","0","jar Enter Name","0","3719","1","White_Screen.jpg","7","179","Instrument_Guiro.jpg","7"
"081219","11:25:32","10","10","5.0.14.0","2","64","trial1","naming","0","0","0","0","test tube Enter Name","0","3383","1","White_Screen.jpg","8","46","TestTube_Single.jpg","8"
"081219","11:25:32","10","10","5.0.14.0","2","65","trial1","naming","0","0","0","0","metal Enter Name","0","3089","1","White_Screen.jpg","9","41","BunsenBurner.jpg","9"
"081219","11:25:32","10","10","5.0.14.0","2","66","trial1","naming","0","0","0","0","sushi Enter Name","0","3869","1","White_Screen.jpg","8","156","Sashimi.jpg","8"
"081219","11:25:32","10","10","5.0.14.0","2","67","trial1","naming","0","0","0","0","voltmeter Enter Name","0","4316","1","White_Screen.jpg","8","30","AmpMeter.jpg","8"
"081219","11:25:32","10","10","5.0.14.0","2","68","trial1","naming","0","0","0","0","stove Enter Name","0","2952","1","White_Screen.jpg","6","85","GasBurner.jpg","6"
"081219","11:25:32","10","10","5.0.14.0","2","69","trial1","naming","0","0","0","0","watering potEnter Name","0","6249","1","White_Screen.jpg","7","100","WateringCan_PlasticDarkGreen.jpg","7"
"081219","11:25:32","10","10","5.0.14.0","2","70","trial1","naming","0","0","0","0","honey combEnter Name","0","5223","1","White_Screen.jpg","8","97","Honeycomb.jpg","8"
"081219","11:25:32","10","10","5.0.14.0","2","71","trial1","naming","0","0","0","0","toy Enter Name","0","3518","1","White_Screen.jpg","8","75","Toy_MerryGoRound.jpg","8"
"081219","11:25:32","10","10","5.0.14.0","2","72","trial1","naming","0","0","0","0","high chair Enter Name","0","4915","1","White_Screen.jpg","6","59","Chair_High.jpg","6"
"081219","11:25:32","10","10","5.0.14.0","2","73","trial1","naming","0","0","0","0","strainer Enter Name","0","3235","1","White_Screen.jpg","7","191","Sieve_TopView.jpg","7"
"081219","11:25:32","10","10","5.0.14.0","2","74","trial1","naming","0","0","0","0","toy Enter Name","0","2636","1","White_Screen.jpg","9","48","Carousel copy.jpg","9"
"081219","11:25:32","10","10","5.0.14.0","2","75","trial1","naming","0","0","0","0","flowerEnter Name","0","2628","1","White_Screen.jpg","6","52","Flower_Hibiscus.jpg","6"
"081219","11:25:32","10","10","5.0.14.0","2","76","trial1","naming","0","0","0","0","squirel Enter Name","0","4292","1","White_Screen.jpg","6","40","Chipmunk.jpg","6"
"081219","11:25:32","10","10","5.0.14.0","2","77","trial1","naming","0","0","0","0","plug Enter Name","0","4840","1","White_Screen.jpg","9","26","CableConnecter.jpg","9"
"081219","11:25:32","10","10","5.0.14.0","2","78","trial1","naming","0","0","0","0","speaker Enter Name","0","2703","1","White_Screen.jpg","8","8","Speaker_Computer.jpg","8"
"081219","11:25:32","10","10","5.0.14.0","2","79","trial1","naming","0","0","0","0","melonEnter Name","0","3169","1","White_Screen.jpg","5","110","Honeydew_Green.jpg","5"
"081219","11:25:32","10","10","5.0.14.0","2","80","trial1","naming","0","0","0","0","tub Enter Name","0","4394","1","White_Screen.jpg","8","28","TinChristmas.jpg","8"
"081219","11:25:32","10","10","5.0.14.0","2","81","trial1","naming","0","0","0","0","cable Enter Name","0","2245","1","White_Screen.jpg","12","18","Cord_usb.jpg","12"
"081219","11:25:32","10","10","5.0.14.0","2","82","trial1","naming","0","0","0","0","granola Enter Name","0","3316","1","White_Screen.jpg","7","145","GranolaBar.jpg","7"
"081219","11:25:32","10","10","5.0.14.0","2","83","trial1","naming","0","0","0","0","lantern Enter Name","0","6365","1","White_Screen.jpg","7","70","Lantern_TeaBox.jpg","7"
"081219","11:25:32","10","10","5.0.14.0","2","84","trial1","naming","0","0","0","0","helmet Enter Name","0","3282","1","White_Screen.jpg","6","132","Helmet_Soldier.jpg","6"
"081219","11:25:32","10","10","5.0.14.0","2","85","trial1","naming","0","0","0","0","chocolatEnter Name","0","2773","1","White_Screen.jpg","7","155","ChocolateBar_Unwrapped.jpg","7"
"081219","11:25:32","10","10","5.0.14.0","2","86","trial1","naming","0","0","0","0","pills Enter Name","0","2447","1","White_Screen.jpg","7","21","PillBottle_Prescription.jpg","7"
"081219","11:25:32","10","10","5.0.14.0","2","87","trial1","naming","0","0","0","0","letter  Enter Name","0","3924","1","White_Screen.jpg","7","12","Envelope_Letter.jpg","7"
"081219","11:25:32","10","10","5.0.14.0","2","88","trial1","naming","0","0","0","0","desk Enter Name","0","3132","1","White_Screen.jpg","8","170","Desk_Office.jpg","8"
"081219","11:25:32","10","10","5.0.14.0","2","89","trial1","naming","0","0","0","0","hg Enter Name","0","3984","1","White_Screen.jpg","7","94","Boar.jpg","7"
"081219","11:25:32","10","10","5.0.14.0","2","90","trial1","naming","0","0","0","0","water Enter Name","0","3300","1","White_Screen.jpg","7","143","Teardrop.jpg","7"
"081219","11:25:32","10","10","5.0.14.0","2","91","trial1","naming","0","0","0","0","bow Enter Name","0","9822","1","White_Screen.jpg","7","22","Crossbow.jpg","7"
"081219","11:25:32","10","10","5.0.14.0","2","92","trial1","naming","0","0","0","0","rim Enter Name","0","2378","1","White_Screen.jpg","7","136","TireRims.jpg","7"
"081219","11:25:32","10","10","5.0.14.0","2","93","trial1","naming","0","0","0","0","candle holdrEnter Name","0","7255","1","White_Screen.jpg","7","64","Candelabra.jpg","7"
"081219","11:25:32","10","10","5.0.14.0","2","94","trial1","naming","0","0","0","0","spatula Enter Name","0","3875","1","White_Screen.jpg","7","119","Spatula_1.jpg","7"
"081219","11:25:32","10","10","5.0.14.0","2","95","trial1","naming","0","0","0","0","belt Enter Name","0","2707","1","White_Screen.jpg","7","66","Belt.jpg","7"
"081219","11:25:32","10","10","5.0.14.0","2","96","trial1","naming","0","0","0","0","masher Enter Name","0","4761","1","White_Screen.jpg","8","175","PotatoMasher_Zigzag.jpg","8"
"081219","11:25:32","10","10","5.0.14.0","2","97","trial1","naming","0","0","0","0","drill Enter Name","0","3065","1","White_Screen.jpg","8","92","Drill.jpg","8"
"081219","11:25:32","10","10","5.0.14.0","2","98","trial1","naming","0","0","0","0","brush Enter Name","0","3130","1","White_Screen.jpg","8","165","Brush_Light.jpg","8"
"081219","11:25:32","10","10","5.0.14.0","2","99","trial1","naming","0","0","0","0","bag Enter Name","0","2222","1","White_Screen.jpg","7","127","Bag_Satchel.jpg","7"
"081219","11:25:32","10","10","5.0.14.0","2","100","trial1","naming","0","0","0","0","ladder Enter Name","0","2673","1","White_Screen.jpg","8","86","Ladder.jpg","8"
"081219","11:25:32","10","10","5.0.14.0","2","101","trial1","naming","0","0","0","0","peanuts Enter Name","0","3688","1","White_Screen.jpg","7","124","CoffeeBeans.jpg","7"
"081219","11:25:32","10","10","5.0.14.0","2","103","trial1","naming","0","0","0","0","arrows Enter Name","0","4318","1","White_Screen.jpg","6","34","Archery_Arrows.jpg","6"
"081219","11:25:32","10","10","5.0.14.0","2","104","trial1","naming","0","0","0","0","cone  Enter Name","0","2261","1","White_Screen.jpg","7","109","PylonTraffic.jpg","7"
"081219","11:25:32","10","10","5.0.14.0","2","105","trial1","naming","0","0","0","0","clay Enter Name","0","3634","1","White_Screen.jpg","17","152","Stone_Mill.jpg","17"
"081219","11:25:32","10","10","5.0.14.0","2","106","trial1","naming","0","0","0","0","building Enter Name","0","5475","1","White_Screen.jpg","8","13","Organ.jpg","8"
"081219","11:25:32","10","10","5.0.14.0","2","107","trial1","naming","0","0","0","0","console Enter Name","0","4455","1","White_Screen.jpg","7","126","NintendoWii.jpg","7"
"081219","11:25:32","10","10","5.0.14.0","2","108","trial1","naming","0","0","0","0","needles Enter Name","0","3522","1","White_Screen.jpg","7","160","SewingPin_Cushion.jpg","7"
"081219","11:25:32","10","10","5.0.14.0","2","109","trial1","naming","0","0","0","0","glue gun Enter Name","0","4105","1","White_Screen.jpg","10","91","Gun_Glue.jpg","10"
"081219","11:25:32","10","10","5.0.14.0","2","110","trial1","naming","0","0","0","0","animal Enter Name","0","2720","1","White_Screen.jpg","8","174","Toy_Chameleon.jpg","8"
"081219","11:25:32","10","10","5.0.14.0","2","111","trial1","naming","0","0","0","0","tablesEnter Name","0","3887","1","White_Screen.jpg","6","84","Table_Set.jpg","6"
"081219","11:25:32","10","10","5.0.14.0","2","112","trial1","naming","0","0","0","0","suit Enter Name","0","3966","1","White_Screen.jpg","8","98","Jacket_Suit.jpg","8"
"081219","11:25:32","10","10","5.0.14.0","2","113","trial1","naming","0","0","0","0","pipe Enter Name","0","4439","1","White_Screen.jpg","8","23","SmokingPipe.jpg","8"
"081219","11:25:32","10","10","5.0.14.0","2","114","trial1","naming","0","0","0","0","staple gun  Enter Name","0","3905","1","White_Screen.jpg","6","89","Stapler_Gun.jpg","6"
"081219","11:25:32","10","10","5.0.14.0","2","115","trial1","naming","0","0","0","0","bag Enter Name","0","3537","1","White_Screen.jpg","6","80","Bag_Diaper.jpg","6"
"081219","11:25:32","10","10","5.0.14.0","2","116","trial1","naming","0","0","0","0","instrument Enter Name","0","4929","1","White_Screen.jpg","8","62","Flute_Tin.jpg","8"
"081219","11:25:32","10","10","5.0.14.0","2","117","trial1","naming","0","0","0","0","structure Enter Name","0","7149","1","White_Screen.jpg","8","9","Statue_SouthAmerican.jpg","8"
"081219","11:25:32","10","10","5.0.14.0","2","118","trial1","naming","0","0","0","0","pin Enter Name","0","1929","1","White_Screen.jpg","8","58","Thumbtack.jpg","8"
"081219","11:25:32","10","10","5.0.14.0","2","119","trial1","naming","0","0","0","0","Enter Name","0","10000","1","White_Screen.jpg","7","167","Statue_VirginMary.jpg","7"
"081219","11:25:32","10","10","5.0.14.0","2","120","trial1","naming","0","0","0","0","Enter Name","0","10000","1","White_Screen.jpg","11","54","Trunk.jpg","11"
"081219","11:25:32","10","10","5.0.14.0","2","121","trial1","naming","0","0","0","0","iron board Enter Name","0","9052","1","White_Screen.jpg","6","57","IroningBoard.jpg","6"
"081219","11:25:32","10","10","5.0.14.0","2","122","trial1","naming","0","0","0","0","bell Enter Name","0","2119","1","White_Screen.jpg","8","95","ServiceBell.jpg","8"
"081219","11:25:32","10","10","5.0.14.0","2","123","trial1","naming","0","0","0","0","whip Enter Name","0","3092","1","White_Screen.jpg","6","138","Whip.jpg","6"
"081219","11:25:32","10","10","5.0.14.0","2","124","trial1","naming","0","0","0","0","bird Enter Name","0","2273","1","White_Screen.jpg","10","53","Bird_Cardinal.jpg","10"
"081219","11:25:32","10","10","5.0.14.0","2","125","trial1","naming","0","0","0","0","needle Enter Name","0","2446","1","White_Screen.jpg","7","169","SewingPin_Single.jpg","7"
"081219","11:25:32","10","10","5.0.14.0","2","126","trial1","naming","0","0","0","0","hair Enter Name","0","2074","1","White_Screen.jpg","7","24","MannequinHead.jpg","7"
"081219","11:25:32","10","10","5.0.14.0","2","127","trial1","naming","0","0","0","0","metal Enter Name","0","3396","1","White_Screen.jpg","10","181","CarSuspension.jpg","10"
"081219","11:25:32","10","10","5.0.14.0","2","128","trial1","naming","0","0","0","0","button Enter Name","0","3706","1","White_Screen.jpg","7","65","PowerDoorPushButton.jpg","7"
"081219","11:25:32","10","10","5.0.14.0","2","129","trial1","naming","0","0","0","0","rubber bandEnter Name","0","3772","1","White_Screen.jpg","7","88","ElasticBand.jpg","7"
"081219","11:25:32","10","10","5.0.14.0","2","130","trial1","naming","0","0","0","0","gas  Enter Name","0","2553","1","White_Screen.jpg","9","31","Toy_GasPump.jpg","9"
"081219","11:25:32","10","10","5.0.14.0","2","131","trial1","naming","0","0","0","0","sofa Enter Name","0","3301","1","White_Screen.jpg","12","176","SofaAntique.jpg","12"
"081219","11:25:32","10","10","5.0.14.0","2","132","trial1","naming","0","0","0","0","shoes Enter Name","0","3411","1","White_Screen.jpg","7","19","Bindings_Snowboard.jpg","7"
"081219","11:25:32","10","10","5.0.14.0","2","133","trial1","naming","0","0","0","0","pliars Enter Name","0","6764","1","White_Screen.jpg","7","69","WireStripper.jpg","7"
"081219","11:25:32","10","10","5.0.14.0","2","134","trial1","naming","0","0","0","0","escalator Enter Name","0","3612","1","White_Screen.jpg","13","131","Escalator.jpg","13"
"081219","11:25:32","10","10","5.0.14.0","2","135","trial1","naming","0","0","0","0","pecan Enter Name","0","3070","1","White_Screen.jpg","8","133","Nuts_Pecan.jpg","8"
"081219","11:25:32","10","10","5.0.14.0","2","136","trial1","naming","0","0","0","0","mouse Enter Name","0","2628","1","White_Screen.jpg","8","173","ComputerMouse.jpg","8"
"081219","11:25:32","10","10","5.0.14.0","2","137","trial1","naming","0","0","0","0","hole puncheEnter Name","0","5411","1","White_Screen.jpg","6","87","ThreeHolePunch.jpg","6"
"081219","11:25:32","10","10","5.0.14.0","2","138","trial1","naming","0","0","0","0","lughter Enter Name","0","3054","1","White_Screen.jpg","8","114","Lighter_Yellow.jpg","8"
"081219","11:25:32","10","10","5.0.14.0","2","139","trial1","naming","0","0","0","0","napkin Enter Name","0","3359","1","White_Screen.jpg","7","68","Napkin_Single.jpg","7"
"081219","11:25:32","10","10","5.0.14.0","2","140","trial1","naming","0","0","0","0","shirt Enter Name","0","2444","1","White_Screen.jpg","7","76","Shirt_Tshirt.jpg","7"
"081219","11:25:32","10","10","5.0.14.0","2","141","trial1","naming","0","0","0","0","doll Enter Name","0","3199","1","White_Screen.jpg","7","120","Toy_FigurineSwing.jpg","7"
"081219","11:25:32","10","10","5.0.14.0","2","142","trial1","naming","0","0","0","0","light Enter Name","0","2699","1","White_Screen.jpg","8","187","PatioHeater.jpg","8"
"081219","11:25:32","10","10","5.0.14.0","2","143","trial1","naming","0","0","0","0","seagulEnter Name","0","5759","1","White_Screen.jpg","7","123","Bird_Pelican.jpg","7"
"081219","11:25:32","10","10","5.0.14.0","2","144","trial1","naming","0","0","0","0","toilet paper Enter Name","0","6376","1","White_Screen.jpg","6","111","PaperTowel_Kitchen.jpg","6"
