"date","time","group","subject","build","blocknum","trialnum","blockcode","trialcode","pretrialpause","posttrialpause","trialduration","trialtimeout","response","correct","latency","stimulusnumber1","stimulusitem1","stimulusonset1","stimulusnumber2","stimulusitem2","stimulusonset2"
"091219","11:37:15","23","23","5.0.14.0","2","1","trial1","naming","0","0","0","0","paper towelEnter Name","0","7866","1","White_Screen.jpg","10","128","PaperTowel_Brown.jpg","10"
"091219","11:37:15","23","23","5.0.14.0","2","2","trial1","naming","0","0","0","0","magnifying glass","0","7800","1","White_Screen.jpg","2","74","Mirror_Handheld.jpg","2"
"091219","11:37:15","23","23","5.0.14.0","2","3","trial1","naming","0","0","0","0","purse","0","4464","1","White_Screen.jpg","1","40","Handbag.jpg","1"
"091219","11:37:15","23","23","5.0.14.0","2","4","trial1","naming","0","0","0","0","spear","0","3730","1","White_Screen.jpg","1","41","Spear.jpg","1"
"091219","11:37:15","23","23","5.0.14.0","2","5","trial1","naming","0","0","0","0","spray can","0","3793","1","White_Screen.jpg","1","73","Bottle_CosmeticSpray.jpg","1"
"091219","11:37:15","23","23","5.0.14.0","2","6","trial1","naming","0","0","0","0","tulip","0","3003","1","White_Screen.jpg","1","49","Flower_Tulip.jpg","1"
"091219","11:37:15","23","23","5.0.14.0","2","7","trial1","naming","0","0","0","0","microwave","0","3886","1","White_Screen.jpg","1","58","Microwave.jpg","1"
"091219","11:37:15","23","23","5.0.14.0","2","8","trial1","naming","0","0","0","0","radish","0","4161","1","White_Screen.jpg","1","123","Radish.jpg","1"
"091219","11:37:15","23","23","5.0.14.0","2","9","trial1","naming","0","0","0","0","broccoli","0","3856","1","White_Screen.jpg","39","150","Broccoli.jpg","39"
"091219","11:37:15","23","23","5.0.14.0","2","10","trial1","naming","0","0","0","0","","0","10000","1","White_Screen.jpg","1","28","StockingChristmas.jpg","1"
"091219","11:37:15","23","23","5.0.14.0","2","11","trial1","naming","0","0","0","0","bamboo","0","9958","1","White_Screen.jpg","2","67","Clave.jpg","2"
"091219","11:37:15","23","23","5.0.14.0","2","12","trial1","naming","0","0","0","0","piano","0","5041","1","White_Screen.jpg","1","111","Piano_Upright.jpg","1"
"091219","11:37:15","23","23","5.0.14.0","2","13","trial1","naming","0","0","0","0","sammich","0","4327","1","White_Screen.jpg","1","59","Sandwich_Ham.jpg","1"
"091219","11:37:15","23","23","5.0.14.0","2","14","trial1","naming","0","0","0","0","octopus","0","4831","1","White_Screen.jpg","2","83","Squid_Pink.jpg","2"
"091219","11:37:15","23","23","5.0.14.0","2","15","trial1","naming","0","0","0","0","cookie cutter","0","3539","1","White_Screen.jpg","1","33","CookieCutter_Bell.jpg","1"
"091219","11:37:15","23","23","5.0.14.0","2","16","trial1","naming","0","0","0","0","camel","0","2611","1","White_Screen.jpg","27","115","Camel_Dromedary.jpg","27"
"091219","11:37:15","23","23","5.0.14.0","2","17","trial1","naming","0","0","0","0","oars","0","2298","1","White_Screen.jpg","1","61","Oars.jpg","1"
"091219","11:37:15","23","23","5.0.14.0","2","18","trial1","naming","0","0","0","0","parakeet","0","10000","1","White_Screen.jpg","1","92","Bird_Budgie.jpg","1"
"091219","11:37:15","23","23","5.0.14.0","2","19","trial1","naming","0","0","0","0","","0","10000","1","White_Screen.jpg","2","50","Jar_Capers.jpg","2"
"091219","11:37:15","23","23","5.0.14.0","2","20","trial1","naming","0","0","0","0","crown","0","10000","1","White_Screen.jpg","1","22","Crown.jpg","1"
"091219","11:37:15","23","23","5.0.14.0","2","21","trial1","naming","0","0","0","0","lock","0","8855","1","White_Screen.jpg","2","31","Lock_Combination.jpg","2"
"091219","11:37:15","23","23","5.0.14.0","2","22","trial1","naming","0","0","0","0","sand scooper","0","5215","1","White_Screen.jpg","1","4","Shovel_Sandbox.jpg","1"
"091219","11:37:15","23","23","5.0.14.0","2","23","trial1","naming","0","0","0","0","rocks","0","4773","1","White_Screen.jpg","1","118","Inukshuk.jpg","1"
"091219","11:37:15","23","23","5.0.14.0","2","24","trial1","naming","0","0","0","0","grill heater","0","6501","1","White_Screen.jpg","1","108","OvenElement.jpg","1"
"091219","11:37:15","23","23","5.0.14.0","2","25","trial1","naming","0","0","0","0","bobcat","0","4936","1","White_Screen.jpg","1","45","Lynx.jpg","1"
"091219","11:37:15","23","23","5.0.14.0","2","26","trial1","naming","0","0","0","0","ballerina doll","0","8782","1","White_Screen.jpg","1","148","Figurine_Ballerina.jpg","1"
"091219","11:37:15","23","23","5.0.14.0","2","27","trial1","naming","0","0","0","0","dustpan","0","4599","1","White_Screen.jpg","1","32","CementFinisher.jpg","1"
"091219","11:37:15","23","23","5.0.14.0","2","28","trial1","naming","0","0","0","0","toenail clippers","0","5161","1","White_Screen.jpg","1","3","NailClipper.jpg","1"
"091219","11:37:15","23","23","5.0.14.0","2","29","trial1","naming","0","0","0","0","bus stop","0","5539","1","White_Screen.jpg","1","53","BusStop.jpg","1"
"091219","11:37:15","23","23","5.0.14.0","2","30","trial1","naming","0","0","0","0","silverware","0","4279","1","White_Screen.jpg","1","38","Box_Cutlery.jpg","1"
"091219","11:37:15","23","23","5.0.14.0","2","31","trial1","naming","0","0","0","0","mason jar","0","6422","1","White_Screen.jpg","1","136","Jar_Empty.jpg","1"
"091219","11:37:15","23","23","5.0.14.0","2","32","trial1","naming","0","0","0","0","pickaxe","0","4531","1","White_Screen.jpg","1","20","Pickaxe.jpg","1"
"091219","11:37:15","23","23","5.0.14.0","2","33","trial1","naming","0","0","0","0","gingerbread house","0","9665","1","White_Screen.jpg","1","7","House_CeramicGingerbread.jpg","1"
"091219","11:37:15","23","23","5.0.14.0","2","34","trial1","naming","0","0","0","0","coffee grinder","0","5002","1","White_Screen.jpg","1","100","CoffeeGrinder.jpg","1"
"091219","11:37:15","23","23","5.0.14.0","2","35","trial1","naming","0","0","0","0","vegetable","0","10000","1","White_Screen.jpg","1","47","Squash_Butternut.jpg","1"
"091219","11:37:15","23","23","5.0.14.0","2","36","trial1","naming","0","0","0","0","pictur","0","10000","1","White_Screen.jpg","1","25","CameoPortrait.jpg","1"
"091219","11:37:15","23","23","5.0.14.0","2","37","trial1","naming","0","0","0","0","pebbles","0","6187","1","White_Screen.jpg","1","12","Sand.jpg","1"
"091219","11:37:15","23","23","5.0.14.0","2","38","trial1","naming","0","0","0","0","eagle","0","3419","1","White_Screen.jpg","1","79","Bird_Eagle.jpg","1"
"091219","11:37:15","23","23","5.0.14.0","2","39","trial1","naming","0","0","0","0","jar","0","4182","1","White_Screen.jpg","1","143","Can_MilkAntique.jpg","1"
"091219","11:37:15","23","23","5.0.14.0","2","40","trial1","naming","0","0","0","0","green crayon","0","3712","1","White_Screen.jpg","1","80","Crayon_Green.jpg","1"
"091219","11:37:15","23","23","5.0.14.0","2","41","trial1","naming","0","0","0","0","candy","0","3955","1","White_Screen.jpg","1","39","Candy_Chocolate.jpg","1"
"091219","11:37:15","23","23","5.0.14.0","2","42","trial1","naming","0","0","0","0","tile","0","2459","1","White_Screen.jpg","1","144","FloorTile.jpg","1"
"091219","11:37:15","23","23","5.0.14.0","2","43","trial1","naming","0","0","0","0","fishing hook","0","2959","1","White_Screen.jpg","1","84","Hook_Double.jpg","1"
"091219","11:37:15","23","23","5.0.14.0","2","44","trial1","naming","0","0","0","0","compass","0","2656","1","White_Screen.jpg","1","17","DrawingCompass.jpg","1"
"091219","11:37:15","23","23","5.0.14.0","2","45","trial1","naming","0","0","0","0","macroni","0","4781","1","White_Screen.jpg","1","137","Bowl_Pasta.jpg","1"
"091219","11:37:15","23","23","5.0.14.0","2","46","trial1","naming","0","0","0","0","ornament","0","4164","1","White_Screen.jpg","1","90","Decoration_ChristmasRed.jpg","1"
"091219","11:37:15","23","23","5.0.14.0","2","47","trial1","naming","0","0","0","0","ski stoppers","0","6762","1","White_Screen.jpg","1","129","SkiPoles.jpg","1"
"091219","11:37:15","23","23","5.0.14.0","2","48","trial1","naming","0","0","0","0","ID card holder","0","5099","1","White_Screen.jpg","1","117","Nametag.jpg","1"
"091219","11:37:15","23","23","5.0.14.0","2","49","trial1","naming","0","0","0","0","plant","0","2963","1","White_Screen.jpg","1","9","Bamboo.jpg","1"
"091219","11:37:15","23","23","5.0.14.0","2","50","trial1","naming","0","0","0","0","carborator","0","4719","1","White_Screen.jpg","1","114","CoolingFan_Engine.jpg","1"
"091219","11:37:15","23","23","5.0.14.0","2","52","trial1","naming","0","0","0","0","shots","0","4061","1","White_Screen.jpg","1","95","ShotGlassTray.jpg","1"
"091219","11:37:15","23","23","5.0.14.0","2","53","trial1","naming","0","0","0","0","porta toilet","0","4302","1","White_Screen.jpg","1","6","PortaPotty.jpg","1"
"091219","11:37:15","23","23","5.0.14.0","2","54","trial1","naming","0","0","0","0","dart","0","2621","1","White_Screen.jpg","1","2","Dart.jpg","1"
"091219","11:37:15","23","23","5.0.14.0","2","55","trial1","naming","0","0","0","0","jack","0","2774","1","White_Screen.jpg","1","89","CarJack.jpg","1"
"091219","11:37:15","23","23","5.0.14.0","2","56","trial1","naming","0","0","0","0","scythe","0","6763","1","White_Screen.jpg","1","141","Scythe.jpg","1"
"091219","11:37:15","23","23","5.0.14.0","2","57","trial1","naming","0","0","0","0","wheel","0","3595","1","White_Screen.jpg","5","99","PulleyWooden.jpg","5"
"091219","11:37:15","23","23","5.0.14.0","2","58","trial1","naming","0","0","0","0","shed","0","2093","1","White_Screen.jpg","1","27","Shed.jpg","1"
"091219","11:37:15","23","23","5.0.14.0","2","59","trial1","naming","0","0","0","0","barber chair","0","3264","1","White_Screen.jpg","1","51","Chair_Barber.jpg","1"
"091219","11:37:15","23","23","5.0.14.0","2","60","trial1","naming","0","0","0","0","briefcase","0","4173","1","White_Screen.jpg","1","107","Briefcase_Leather.jpg","1"
"091219","11:37:15","23","23","5.0.14.0","2","61","trial1","naming","0","0","0","0","old cell phone","0","4459","1","White_Screen.jpg","1","65","Phone_Flip.jpg","1"
"091219","11:37:15","23","23","5.0.14.0","2","62","trial1","naming","0","0","0","0","toxic","0","2507","1","White_Screen.jpg","1","104","RadioactiveContainer.jpg","1"
"091219","11:37:15","23","23","5.0.14.0","2","63","trial1","naming","0","0","0","0","pool ball","0","3943","1","White_Screen.jpg","1","87","Ball_8.jpg","1"
"091219","11:37:15","23","23","5.0.14.0","2","64","trial1","naming","0","0","0","0","octopus","0","4403","1","White_Screen.jpg","1","112","Squid_Orange.jpg","1"
"091219","11:37:15","23","23","5.0.14.0","2","65","trial1","naming","0","0","0","0","chicken","0","9378","1","White_Screen.jpg","1","19","Bird_Duck.jpg","1"
"091219","11:37:15","23","23","5.0.14.0","2","66","trial1","naming","0","0","0","0","Enter Name","0","1309","1","White_Screen.jpg","5","116","IceScraper.jpg","5"
"091219","11:37:15","23","23","5.0.14.0","2","67","trial1","naming","0","0","0","0","clothes line","0","6123","1","White_Screen.jpg","1","88","ClothesDryingRack.jpg","1"
"091219","11:37:15","23","23","5.0.14.0","2","68","trial1","naming","0","0","0","0","music box","0","5145","1","White_Screen.jpg","1","109","Box_Jewellery.jpg","1"
"091219","11:37:15","23","23","5.0.14.0","2","69","trial1","naming","0","0","0","0","dental tool","0","4200","1","White_Screen.jpg","1","43","DentalProbe.jpg","1"
"091219","11:37:15","23","23","5.0.14.0","2","70","trial1","naming","0","0","0","0","bucket","0","4251","1","White_Screen.jpg","1","134","Bucket_WoodenDark.jpg","1"
"091219","11:37:15","23","23","5.0.14.0","2","71","trial1","naming","0","0","0","0","grinder","0","4910","1","White_Screen.jpg","1","29","MortarPestle_WhiteMarble.jpg","1"
"091219","11:37:15","23","23","5.0.14.0","2","72","trial1","naming","0","0","0","0","taillights","0","5996","1","White_Screen.jpg","1","113","TailLight.jpg","1"
"091219","11:37:15","23","23","5.0.14.0","2","73","trial1","naming","0","0","0","0","street sign","0","3804","1","White_Screen.jpg","1","98","Sign_OneWay.jpg","1"
"091219","11:37:15","23","23","5.0.14.0","2","74","trial1","naming","0","0","0","0","cookie sheet","0","4309","1","White_Screen.jpg","1","52","Tray_Muffin.jpg","1"
"091219","11:37:15","23","23","5.0.14.0","2","75","trial1","naming","0","0","0","0","chopsticks","0","4236","1","White_Screen.jpg","1","149","Chopsticks.jpg","1"
"091219","11:37:15","23","23","5.0.14.0","2","76","trial1","naming","0","0","0","0","cheese grater","0","3357","1","White_Screen.jpg","1","8","Cheesegrater_Box.jpg","1"
"091219","11:37:15","23","23","5.0.14.0","2","77","trial1","naming","0","0","0","0","christmas decoration","0","9450","1","White_Screen.jpg","1","122","Bells_Christmas.jpg","1"
"091219","11:37:15","23","23","5.0.14.0","2","78","trial1","naming","0","0","0","0","workout equipment","0","4853","1","White_Screen.jpg","1","81","Exercise_Machine.jpg","1"
"091219","11:37:15","23","23","5.0.14.0","2","79","trial1","naming","0","0","0","0","CPU","0","2472","1","White_Screen.jpg","1","66","Computer_CPU.jpg","1"
"091219","11:37:15","23","23","5.0.14.0","2","80","trial1","naming","0","0","0","0","plastic storage containe","0","6266","1","White_Screen.jpg","3","124","Container_Tupperware.jpg","3"
"091219","11:37:15","23","23","5.0.14.0","2","81","trial1","naming","0","0","0","0","antique car","0","6458","1","White_Screen.jpg","1","119","Car_Vintage.jpg","1"
"091219","11:37:15","23","23","5.0.14.0","2","82","trial1","naming","0","0","0","0","stirrer","0","6006","1","White_Screen.jpg","1","77","Stick_Stirring.jpg","1"
"091219","11:37:15","23","23","5.0.14.0","2","83","trial1","naming","0","0","0","0","speaker","0","3301","1","White_Screen.jpg","1","82","Speaker_Single.jpg","1"
"091219","11:37:15","23","23","5.0.14.0","2","84","trial1","naming","0","0","0","0","coffee pot","0","4401","1","White_Screen.jpg","1","139","CoffeePot.jpg","1"
"091219","11:37:15","23","23","5.0.14.0","2","85","trial1","naming","0","0","0","0","car keys","0","5004","1","White_Screen.jpg","1","69","Key_Car.jpg","1"
"091219","11:37:15","23","23","5.0.14.0","2","86","trial1","naming","0","0","0","0","multi-use printer","0","7295","1","White_Screen.jpg","1","18","Photocopier.jpg","1"
"091219","11:37:15","23","23","5.0.14.0","2","87","trial1","naming","0","0","0","0","blue light bulb","0","3652","1","White_Screen.jpg","1","125","LightBulb_Blue.jpg","1"
"091219","11:37:15","23","23","5.0.14.0","2","88","trial1","naming","0","0","0","0","keyboard key ","0","3442","1","White_Screen.jpg","1","70","ComputerKeyboard_Backspace.jpg","1"
"091219","11:37:15","23","23","5.0.14.0","2","89","trial1","naming","0","0","0","0","walker","0","2805","1","White_Screen.jpg","1","24","Walker_Blue.jpg","1"
"091219","11:37:15","23","23","5.0.14.0","2","90","trial1","naming","0","0","0","0","bulldozer","0","3126","1","White_Screen.jpg","1","147","Tractor_Orange.jpg","1"
"091219","11:37:15","23","23","5.0.14.0","2","91","trial1","naming","0","0","0","0","purse","0","2617","1","White_Screen.jpg","1","103","Purse.jpg","1"
"091219","11:37:15","23","23","5.0.14.0","2","92","trial1","naming","0","0","0","0","children's toy","0","4613","1","White_Screen.jpg","1","133","Toy_RobotTransformer.jpg","1"
"091219","11:37:15","23","23","5.0.14.0","2","93","trial1","naming","0","0","0","0","mailboxes","0","4084","1","White_Screen.jpg","1","140","Mailbox_Community.jpg","1"
"091219","11:37:15","23","23","5.0.14.0","2","94","trial1","naming","0","0","0","0","calculator","0","3063","1","White_Screen.jpg","1","135","Calculator.jpg","1"
"091219","11:37:15","23","23","5.0.14.0","2","95","trial1","naming","0","0","0","0","grinder","0","2861","1","White_Screen.jpg","1","96","AngleGrinder.jpg","1"
"091219","11:37:15","23","23","5.0.14.0","2","96","trial1","naming","0","0","0","0","painting","0","3042","1","White_Screen.jpg","1","60","MonaLisa.jpg","1"
"091219","11:37:15","23","23","5.0.14.0","2","97","trial1","naming","0","0","0","0","statue","0","2490","1","White_Screen.jpg","1","46","Statue_Horse.jpg","1"
"091219","11:37:15","23","23","5.0.14.0","2","98","trial1","naming","0","0","0","0","bathtub","0","4122","1","White_Screen.jpg","1","97","Bathtub.jpg","1"
"091219","11:37:15","23","23","5.0.14.0","2","99","trial1","naming","0","0","0","0","price tagger","0","6594","1","White_Screen.jpg","1","105","Pricegun.jpg","1"
"091219","11:37:15","23","23","5.0.14.0","2","100","trial1","naming","0","0","0","0","amplifier","0","4749","1","White_Screen.jpg","1","138","Amp.jpg","1"
"091219","11:37:15","23","23","5.0.14.0","2","101","trial1","naming","0","0","0","0","towel","0","3500","1","White_Screen.jpg","1","1","Blanket.jpg","1"
"091219","11:37:15","23","23","5.0.14.0","2","103","trial1","naming","0","0","0","0","pliers","0","4472","1","White_Screen.jpg","2","37","Pliers_SlipJoint.jpg","2"
"091219","11:37:15","23","23","5.0.14.0","2","104","trial1","naming","0","0","0","0","macroni","0","4414","1","White_Screen.jpg","2","23","Pasta_Penne.jpg","2"
"091219","11:37:15","23","23","5.0.14.0","2","105","trial1","naming","0","0","0","0","selfie stick","0","4581","1","White_Screen.jpg","1","64","SelfieStick.jpg","1"
"091219","11:37:15","23","23","5.0.14.0","2","106","trial1","naming","0","0","0","0","exercise equipment","0","7008","1","White_Screen.jpg","1","35","Exercise_Stretch.jpg","1"
"091219","11:37:15","23","23","5.0.14.0","2","107","trial1","naming","0","0","0","0","\Enter Name","0","1415","1","White_Screen.jpg","1","5","GiftBow.jpg","1"
"091219","11:37:15","23","23","5.0.14.0","2","108","trial1","naming","0","0","0","0","hairpick","0","4393","1","White_Screen.jpg","1","36","Comb.jpg","1"
"091219","11:37:15","23","23","5.0.14.0","2","109","trial1","naming","0","0","0","0","necklace","0","6351","1","White_Screen.jpg","1","94","Necklace_Black.jpg","1"
"091219","11:37:15","23","23","5.0.14.0","2","110","trial1","naming","0","0","0","0","binoculars","0","3853","1","White_Screen.jpg","1","120","Binoculars.jpg","1"
"091219","11:37:15","23","23","5.0.14.0","2","111","trial1","naming","0","0","0","0","joyce","0","9488","1","White_Screen.jpg","1","110","Pillar.jpg","1"
"091219","11:37:15","23","23","5.0.14.0","2","112","trial1","naming","0","0","0","0","lawn decoration","0","6709","1","White_Screen.jpg","1","93","Flamingo_Real.jpg","1"
"091219","11:37:15","23","23","5.0.14.0","2","113","trial1","naming","0","0","0","0","deck of cards","0","3747","1","White_Screen.jpg","1","54","Card_Deck.jpg","1"
"091219","11:37:15","23","23","5.0.14.0","2","114","trial1","naming","0","0","0","0","old film","0","4927","1","White_Screen.jpg","1","142","SlideViewer.jpg","1"
"091219","11:37:15","23","23","5.0.14.0","2","115","trial1","naming","0","0","0","0","used water boot","0","5195","1","White_Screen.jpg","1","55","Boot_Rain.jpg","1"
"091219","11:37:15","23","23","5.0.14.0","2","116","trial1","naming","0","0","0","0","checkered flags","0","4160","1","White_Screen.jpg","1","101","Flags_CheckeredRacing.jpg","1"
"091219","11:37:15","23","23","5.0.14.0","2","117","trial1","naming","0","0","0","0","chalkboard","0","3290","1","White_Screen.jpg","1","34","Blackboard.jpg","1"
"091219","11:37:15","23","23","5.0.14.0","2","118","trial1","naming","0","0","0","0","blinds","0","3705","1","White_Screen.jpg","1","75","WindowBlinds.jpg","1"
"091219","11:37:15","23","23","5.0.14.0","2","119","trial1","naming","0","0","0","0","puffer ball","0","4941","1","White_Screen.jpg","1","16","Toy_DogBall.jpg","1"
"091219","11:37:15","23","23","5.0.14.0","2","120","trial1","naming","0","0","0","0","acorn","0","3422","1","White_Screen.jpg","1","132","Acorn.jpg","1"
"091219","11:37:15","23","23","5.0.14.0","2","121","trial1","naming","0","0","0","0","children's table & chairs","0","5878","1","White_Screen.jpg","1","56","Toy_TableSet.jpg","1"
"091219","11:37:15","23","23","5.0.14.0","2","122","trial1","naming","0","0","0","0","mixer","0","3644","1","White_Screen.jpg","2","126","Beater_Electric.jpg","2"
"091219","11:37:15","23","23","5.0.14.0","2","123","trial1","naming","0","0","0","0","carbiner ","0","4379","1","White_Screen.jpg","1","14","Carabiner_Orange.jpg","1"
"091219","11:37:15","23","23","5.0.14.0","2","124","trial1","naming","0","0","0","0","baseball","0","3163","1","White_Screen.jpg","1","146","Ball_Baseball.jpg","1"
"091219","11:37:15","23","23","5.0.14.0","2","125","trial1","naming","0","0","0","0","bike pedals","0","3756","1","White_Screen.jpg","1","10","BicyclePedal.jpg","1"
"091219","11:37:15","23","23","5.0.14.0","2","126","trial1","naming","0","0","0","0","cactus","0","4150","1","White_Screen.jpg","1","48","Cactus.jpg","1"
"091219","11:37:15","23","23","5.0.14.0","2","127","trial1","naming","0","0","0","0","kitchen table","0","5042","1","White_Screen.jpg","1","44","Table_AntiqueWooden.jpg","1"
"091219","11:37:15","23","23","5.0.14.0","2","128","trial1","naming","0","0","0","0","doll ","0","8745","1","White_Screen.jpg","1","121","Toy_FigurineEngineer.jpg","1"
"091219","11:37:15","23","23","5.0.14.0","2","129","trial1","naming","0","0","0","0","car mats","0","3158","1","White_Screen.jpg","1","26","Mat_Car.jpg","1"
"091219","11:37:15","23","23","5.0.14.0","2","130","trial1","naming","0","0","0","0","walnet","0","2290","1","White_Screen.jpg","1","130","Nuts_Walnut.jpg","1"
"091219","11:37:15","23","23","5.0.14.0","2","131","trial1","naming","0","0","0","0","microscope","0","5248","1","White_Screen.jpg","1","106","Microscope.jpg","1"
"091219","11:37:15","23","23","5.0.14.0","2","132","trial1","naming","0","0","0","0","glasses","0","2639","1","White_Screen.jpg","1","131","Glasses_Reading.jpg","1"
"091219","11:37:15","23","23","5.0.14.0","2","133","trial1","naming","0","0","0","0","pen","0","2429","1","White_Screen.jpg","1","15","Pen_Ballpoint.jpg","1"
"091219","11:37:15","23","23","5.0.14.0","2","134","trial1","naming","0","0","0","0","lollipop","0","3536","1","White_Screen.jpg","1","62","Lollipop_Grape.jpg","1"
"091219","11:37:15","23","23","5.0.14.0","2","135","trial1","naming","0","0","0","0","cream","0","2906","1","White_Screen.jpg","1","91","Tube_Paint.jpg","1"
"091219","11:37:15","23","23","5.0.14.0","2","136","trial1","naming","0","0","0","0","disco ball","0","3764","1","White_Screen.jpg","1","13","Ball_Disco.jpg","1"
"091219","11:37:15","23","23","5.0.14.0","2","137","trial1","naming","0","0","0","0","flour","0","2833","1","White_Screen.jpg","1","127","Bowl_Flour.jpg","1"
"091219","11:37:15","23","23","5.0.14.0","2","138","trial1","naming","0","0","0","0","not a clue","0","4853","1","White_Screen.jpg","1","102","HairCurler.jpg","1"
"091219","11:37:15","23","23","5.0.14.0","2","139","trial1","naming","0","0","0","0","juicer","0","2611","1","White_Screen.jpg","1","11","JuicerCitrus.jpg","1"
"091219","11:37:15","23","23","5.0.14.0","2","140","trial1","naming","0","0","0","0","eye chart","0","3228","1","White_Screen.jpg","1","42","EyeChart.jpg","1"
"091219","11:37:15","23","23","5.0.14.0","2","141","trial1","naming","0","0","0","0","record player","0","3038","1","White_Screen.jpg","1","30","RecordPlayer.jpg","1"
"091219","11:37:15","23","23","5.0.14.0","2","142","trial1","naming","0","0","0","0","sting ray","0","9935","1","White_Screen.jpg","1","68","Stingray.jpg","1"
"091219","11:37:15","23","23","5.0.14.0","2","143","trial1","naming","0","0","0","0","stuffed animal","0","4009","1","White_Screen.jpg","1","72","Toy_RabbitPlushie.jpg","1"
"091219","11:37:15","23","23","5.0.14.0","2","144","trial1","naming","0","0","0","0","bed","0","1953","1","White_Screen.jpg","1","63","Bed_QueenSize.jpg","1"
"091219","11:37:15","23","23","5.0.14.0","2","145","trial1","naming","0","0","0","0","no clue","0","4808","1","White_Screen.jpg","1","57","JoustingSpear.jpg","1"
"091219","11:37:15","23","23","5.0.14.0","2","146","trial1","naming","0","0","0","0","hanging plant","0","3120","1","White_Screen.jpg","1","78","Flower_Basket.jpg","1"
"091219","11:37:15","23","23","5.0.14.0","2","147","trial1","naming","0","0","0","0","cinnamon roll","0","4356","1","White_Screen.jpg","1","76","Cinnamonroll.jpg","1"
"091219","11:37:15","23","23","5.0.14.0","2","148","trial1","naming","0","0","0","0","vegetable chopper","0","8918","1","White_Screen.jpg","1","21","ProcessorFood_Modern.jpg","1"
"091219","11:37:15","23","23","5.0.14.0","2","149","trial1","naming","0","0","0","0","lettuce","0","3307","1","White_Screen.jpg","1","145","Lettuce_GreenLeaf.jpg","1"
"091219","11:37:15","23","23","5.0.14.0","2","150","trial1","naming","0","0","0","0","wooden box","0","5263","1","White_Screen.jpg","1","85","Box_WoodenOpen.jpg","1"
"091219","11:37:15","23","23","5.0.14.0","2","151","trial1","naming","0","0","0","0","oscars trophy","0","4419","1","White_Screen.jpg","2","71","Trophy.jpg","2"
"091219","11:37:15","23","23","5.0.14.0","2","152","trial1","naming","0","0","0","0","cup","0","2829","1","White_Screen.jpg","1","86","Glass_Wine.jpg","1"
"091219","11:37:15","23","23","5.0.14.0","2","154","trial1","naming","0","0","0","0","spray can","0","3553","1","White_Screen.jpg","1","73","Bottle_CosmeticSpray.jpg","1"
"091219","11:37:15","23","23","5.0.14.0","2","155","trial1","naming","0","0","0","0","cactus","0","3417","1","White_Screen.jpg","1","48","Cactus.jpg","1"
"091219","11:37:15","23","23","5.0.14.0","2","156","trial1","naming","0","0","0","0","amplifier","0","3648","1","White_Screen.jpg","1","138","Amp.jpg","1"
"091219","11:37:15","23","23","5.0.14.0","2","157","trial1","naming","0","0","0","0","doll","0","3551","1","White_Screen.jpg","1","121","Toy_FigurineEngineer.jpg","1"
"091219","11:37:15","23","23","5.0.14.0","2","158","trial1","naming","0","0","0","0","price tagger","0","4547","1","White_Screen.jpg","1","105","Pricegun.jpg","1"
"091219","11:37:15","23","23","5.0.14.0","2","159","trial1","naming","0","0","0","0","still not a clue","0","3644","1","White_Screen.jpg","1","57","JoustingSpear.jpg","1"
"091219","11:37:15","23","23","5.0.14.0","2","160","trial1","naming","0","0","0","0","walnut","0","3312","1","White_Screen.jpg","1","130","Nuts_Walnut.jpg","1"
"091219","11:37:15","23","23","5.0.14.0","2","161","trial1","naming","0","0","0","0","lettuce","0","2905","1","White_Screen.jpg","1","145","Lettuce_GreenLeaf.jpg","1"
"091219","11:37:15","23","23","5.0.14.0","2","162","trial1","naming","0","0","0","0","old cellphone","0","4580","1","White_Screen.jpg","1","65","Phone_Flip.jpg","1"
"091219","11:37:15","23","23","5.0.14.0","2","163","trial1","naming","0","0","0","0","walker","0","2183","1","White_Screen.jpg","1","24","Walker_Blue.jpg","1"
"091219","11:37:15","23","23","5.0.14.0","2","164","trial1","naming","0","0","0","0","gingerbread house","0","4079","1","White_Screen.jpg","1","7","House_CeramicGingerbread.jpg","1"
"091219","11:37:15","23","23","5.0.14.0","2","165","trial1","naming","0","0","0","0","hair pick","0","3044","1","White_Screen.jpg","1","36","Comb.jpg","1"
"091219","11:37:15","23","23","5.0.14.0","2","166","trial1","naming","0","0","0","0","kitchen table","0","3076","1","White_Screen.jpg","1","44","Table_AntiqueWooden.jpg","1"
"091219","11:37:15","23","23","5.0.14.0","2","167","trial1","naming","0","0","0","0","keyboard key","0","3374","1","White_Screen.jpg","1","70","ComputerKeyboard_Backspace.jpg","1"
"091219","11:37:15","23","23","5.0.14.0","2","168","trial1","naming","0","0","0","0","microscope","0","5029","1","White_Screen.jpg","1","106","Microscope.jpg","1"
"091219","11:37:15","23","23","5.0.14.0","2","169","trial1","naming","0","0","0","0","pickaxe","0","4093","1","White_Screen.jpg","1","20","Pickaxe.jpg","1"
"091219","11:37:15","23","23","5.0.14.0","2","170","trial1","naming","0","0","0","0","bulldozer","0","3696","1","White_Screen.jpg","1","147","Tractor_Orange.jpg","1"
"091219","11:37:15","23","23","5.0.14.0","2","171","trial1","naming","0","0","0","0","car mats","0","2591","1","White_Screen.jpg","1","26","Mat_Car.jpg","1"
"091219","11:37:15","23","23","5.0.14.0","2","172","trial1","naming","0","0","0","0","checkered flags","0","4743","1","White_Screen.jpg","1","101","Flags_CheckeredRacing.jpg","1"
"091219","11:37:15","23","23","5.0.14.0","2","173","trial1","naming","0","0","0","0","mixer","0","2623","1","White_Screen.jpg","1","126","Beater_Electric.jpg","1"
"091219","11:37:15","23","23","5.0.14.0","2","174","trial1","naming","0","0","0","0","coffee pot","0","2901","1","White_Screen.jpg","1","139","CoffeePot.jpg","1"
"091219","11:37:15","23","23","5.0.14.0","2","175","trial1","naming","0","0","0","0","still no clue","0","3102","1","White_Screen.jpg","1","102","HairCurler.jpg","1"
"091219","11:37:15","23","23","5.0.14.0","2","176","trial1","naming","0","0","0","0","pool ball","0","2985","1","White_Screen.jpg","1","87","Ball_8.jpg","1"
"091219","11:37:15","23","23","5.0.14.0","2","177","trial1","naming","0","0","0","0","cup","0","2118","1","White_Screen.jpg","1","86","Glass_Wine.jpg","1"
"091219","11:37:15","23","23","5.0.14.0","2","178","trial1","naming","0","0","0","0","acorn","0","2969","1","White_Screen.jpg","1","132","Acorn.jpg","1"
"091219","11:37:15","23","23","5.0.14.0","2","179","trial1","naming","0","0","0","0","magnifying glass","0","4810","1","White_Screen.jpg","1","74","Mirror_Handheld.jpg","1"
"091219","11:37:15","23","23","5.0.14.0","2","180","trial1","naming","0","0","0","0","bed","0","3250","1","White_Screen.jpg","1","63","Bed_QueenSize.jpg","1"
"091219","11:37:15","23","23","5.0.14.0","2","181","trial1","naming","0","0","0","0","lawn ornament","0","5389","1","White_Screen.jpg","1","93","Flamingo_Real.jpg","1"
"091219","11:37:15","23","23","5.0.14.0","2","182","trial1","naming","0","0","0","0","speaker","0","3430","1","White_Screen.jpg","1","82","Speaker_Single.jpg","1"
"091219","11:37:15","23","23","5.0.14.0","2","183","trial1","naming","0","0","0","0","antique car","0","4989","1","White_Screen.jpg","1","119","Car_Vintage.jpg","1"
"091219","11:37:15","23","23","5.0.14.0","2","184","trial1","naming","0","0","0","0","used water boot","0","6094","1","White_Screen.jpg","1","55","Boot_Rain.jpg","1"
"091219","11:37:15","23","23","5.0.14.0","2","185","trial1","naming","0","0","0","0","cupcake tray","0","4951","1","White_Screen.jpg","1","52","Tray_Muffin.jpg","1"
"091219","11:37:15","23","23","5.0.14.0","2","186","trial1","naming","0","0","0","0","car keys","0","2671","1","White_Screen.jpg","1","69","Key_Car.jpg","1"
"091219","11:37:15","23","23","5.0.14.0","2","187","trial1","naming","0","0","0","0","lollipop","0","4524","1","White_Screen.jpg","1","62","Lollipop_Grape.jpg","1"
"091219","11:37:15","23","23","5.0.14.0","2","188","trial1","naming","0","0","0","0","chalkboard","0","3447","1","White_Screen.jpg","1","34","Blackboard.jpg","1"
"091219","11:37:15","23","23","5.0.14.0","2","189","trial1","naming","0","0","0","0","necklace","0","3233","1","White_Screen.jpg","1","94","Necklace_Black.jpg","1"
"091219","11:37:15","23","23","5.0.14.0","2","190","trial1","naming","0","0","0","0","painting","0","3551","1","White_Screen.jpg","1","60","MonaLisa.jpg","1"
"091219","11:37:15","23","23","5.0.14.0","2","191","trial1","naming","0","0","0","0","stuffed animal","0","2984","1","White_Screen.jpg","1","72","Toy_RabbitPlushie.jpg","1"
"091219","11:37:15","23","23","5.0.14.0","2","192","trial1","naming","0","0","0","0","toenail clippers","0","4791","1","White_Screen.jpg","12","3","NailClipper.jpg","12"
"091219","11:37:15","23","23","5.0.14.0","2","193","trial1","naming","0","0","0","0","caribiner","0","3796","1","White_Screen.jpg","1","14","Carabiner_Orange.jpg","1"
"091219","11:37:15","23","23","5.0.14.0","2","194","trial1","naming","0","0","0","0","saturnalia ornaments","0","6035","1","White_Screen.jpg","1","122","Bells_Christmas.jpg","1"
"091219","11:37:15","23","23","5.0.14.0","2","195","trial1","naming","0","0","0","0","cream","0","2907","1","White_Screen.jpg","1","91","Tube_Paint.jpg","1"
"091219","11:37:15","23","23","5.0.14.0","2","196","trial1","naming","0","0","0","0","multi-use printer","0","4064","1","White_Screen.jpg","1","18","Photocopier.jpg","1"
"091219","11:37:15","23","23","5.0.14.0","2","197","trial1","naming","0","0","0","0","dart","0","2924","1","White_Screen.jpg","1","2","Dart.jpg","1"
"091219","11:37:15","23","23","5.0.14.0","2","198","trial1","naming","0","0","0","0","grinder","0","2369","1","White_Screen.jpg","1","96","AngleGrinder.jpg","1"
"091219","11:37:15","23","23","5.0.14.0","2","199","trial1","naming","0","0","0","0","glasses","0","3419","1","White_Screen.jpg","1","131","Glasses_Reading.jpg","1"
"091219","11:37:15","23","23","5.0.14.0","2","200","trial1","naming","0","0","0","0","cheese grinder","0","3532","1","White_Screen.jpg","1","8","Cheesegrater_Box.jpg","1"
"091219","11:37:15","23","23","5.0.14.0","2","201","trial1","naming","0","0","0","0","exercise equipment","0","5635","1","White_Screen.jpg","1","35","Exercise_Stretch.jpg","1"
"091219","11:37:15","23","23","5.0.14.0","2","202","trial1","naming","0","0","0","0","juicer","0","4364","1","White_Screen.jpg","1","11","JuicerCitrus.jpg","1"
"091219","11:37:15","23","23","5.0.14.0","2","203","trial1","naming","0","0","0","0","ice scrapper","0","3160","1","White_Screen.jpg","14","116","IceScraper.jpg","14"
"091219","11:37:15","23","23","5.0.14.0","3","1","demographics_block","gender","0","0","0","0","male","1","7254","0","0","0","0","0","0"
"091219","11:37:15","23","23","5.0.14.0","3","1","demographics_block","age","0","0","0","0","35","1","7254","0","0","0","0","0","0"
"091219","11:37:15","23","23","5.0.14.0","3","1","demographics_block","education","0","0","0","0","16","1","7254","0","0","0","0","0","0"
"091219","11:37:15","23","23","5.0.14.0","3","2","demographics_block","left_right_handed","0","0","0","0","Right","1","4185","0","0","0","0","0","0"
"091219","11:37:15","23","23","5.0.14.0","3","2","demographics_block","raceoption1","0","0","0","0","0","1","4185","0","0","0","0","0","0"
"091219","11:37:15","23","23","5.0.14.0","3","2","demographics_block","raceoption2","0","0","0","0","","1","4185","0","0","0","0","0","0"
"091219","11:37:15","23","23","5.0.14.0","3","2","demographics_block","raceoption3","0","0","0","0","","1","4185","0","0","0","0","0","0"
"091219","11:37:15","23","23","5.0.14.0","3","2","demographics_block","raceoption4","0","0","0","0","","1","4185","0","0","0","0","0","0"
"091219","11:37:15","23","23","5.0.14.0","3","2","demographics_block","raceoption5","0","0","0","0","","1","4185","0","0","0","0","0","0"
"091219","11:37:15","23","23","5.0.14.0","3","2","demographics_block","raceoption6","0","0","0","0","","1","4185","0","0","0","0","0","0"
"091219","11:37:15","23","23","5.0.14.0","3","2","demographics_block","raceoption7","0","0","0","0","","1","4185","0","0","0","0","0","0"
"091219","11:37:15","23","23","5.0.14.0","3","2","demographics_block","raceoption8","0","0","0","0","","1","4185","0","0","0","0","0","0"
"091219","11:37:15","23","23","5.0.14.0","3","2","demographics_block","raceoption9","0","0","0","0","","1","4185","0","0","0","0","0","0"
"091219","11:37:15","23","23","5.0.14.0","3","2","demographics_block","raceother","0","0","0","0","","1","4185","0","0","0","0","0","0"
"091219","11:37:15","23","23","5.0.14.0","3","2","demographics_block","raceother","0","0","0","0","","1","4185","0","0","0","0","0","0"
"091219","11:37:15","23","23","5.0.14.0","3","2","demographics_block","english_language","0","0","0","0","Yes","1","4185","0","0","0","0","0","0"
"091219","11:37:15","23","23","5.0.14.0","3","2","demographics_block","english_languageother","0","0","0","0","","1","4185","0","0","0","0","0","0"
"091219","11:37:15","23","23","5.0.14.0","3","3","demographics_block","eyesight","0","0","0","0","Yes","1","3480","0","0","0","0","0","0"
"091219","11:37:15","23","23","5.0.14.0","3","3","demographics_block","colorblind","0","0","0","0","No","1","3480","0","0","0","0","0","0"
"091219","11:37:15","23","23","5.0.14.0","4","1","worker_id_block","worker_id_textbox","0","0","0","0","ATGF05HW5Q63J","1","5134","0","0","0","0","0","0"
"date","time","group","subject","build","blocknum","trialnum","blockcode","trialcode","pretrialpause","posttrialpause","trialduration","trialtimeout","response","correct","latency","stimulusnumber1","stimulusitem1","stimulusonset1","stimulusnumber2","stimulusitem2","stimulusonset2"
"091219","12:38:32","22","22","5.0.14.0","2","1","trial1","naming","0","0","0","0","paper towel","0","7423","1","White_Screen.jpg","22","128","PaperTowel_Brown.jpg","22"
"091219","12:38:32","22","22","5.0.14.0","2","2","trial1","naming","0","0","0","0","horse figurine","0","9981","1","White_Screen.jpg","7","46","Statue_Horse.jpg","7"
"091219","12:38:32","22","22","5.0.14.0","2","3","trial1","naming","0","0","0","0","Handbag","0","7437","1","White_Screen.jpg","7","107","Briefcase_Leather.jpg","7"
"091219","12:38:32","22","22","5.0.14.0","2","4","trial1","naming","0","0","0","0","Sandwhich","0","4447","1","White_Screen.jpg","9","59","Sandwich_Ham.jpg","9"
"091219","12:38:32","22","22","5.0.14.0","2","5","trial1","naming","0","0","0","0","candy","0","4831","1","White_Screen.jpg","5","39","Candy_Chocolate.jpg","5"
"091219","12:38:32","22","22","5.0.14.0","2","6","trial1","naming","0","0","0","0","bird","0","2779","1","White_Screen.jpg","8","92","Bird_Budgie.jpg","8"
"091219","12:38:32","22","22","5.0.14.0","2","7","trial1","naming","0","0","0","0","pickaxe","0","3660","1","White_Screen.jpg","7","20","Pickaxe.jpg","7"
"091219","12:38:32","22","22","5.0.14.0","2","8","trial1","naming","0","0","0","0","calculator","0","4673","1","White_Screen.jpg","7","135","Calculator.jpg","7"
"091219","12:38:32","22","22","5.0.14.0","2","9","trial1","naming","0","0","0","0","weights","0","6836","1","White_Screen.jpg","7","35","Exercise_Stretch.jpg","7"
"091219","12:38:32","22","22","5.0.14.0","2","10","trial1","naming","0","0","0","0","compass","0","2459","1","White_Screen.jpg","5","17","DrawingCompass.jpg","5"
"091219","12:38:32","22","22","5.0.14.0","2","11","trial1","naming","0","0","0","0","chinaware","0","7518","1","White_Screen.jpg","7","38","Box_Cutlery.jpg","7"
"091219","12:38:32","22","22","5.0.14.0","2","12","trial1","naming","0","0","0","0","flour","0","2442","1","White_Screen.jpg","5","127","Bowl_Flour.jpg","5"
"091219","12:38:32","22","22","5.0.14.0","2","13","trial1","naming","0","0","0","0","Enter Name","0","950","1","White_Screen.jpg","7","1","Blanket.jpg","7"
"091219","12:38:32","22","22","5.0.14.0","2","14","trial1","naming","0","0","0","0","Enter Name","0","39","1","White_Screen.jpg","6","76","Cinnamonroll.jpg","6"
"091219","12:38:32","22","22","5.0.14.0","2","15","trial1","naming","0","0","0","0","blender","0","4707","1","White_Screen.jpg","7","21","ProcessorFood_Modern.jpg","7"
"091219","12:38:32","22","22","5.0.14.0","2","16","trial1","naming","0","0","0","0","piano","0","3070","1","White_Screen.jpg","7","111","Piano_Upright.jpg","7"
"091219","12:38:32","22","22","5.0.14.0","2","17","trial1","naming","0","0","0","0","bobcat","0","2780","1","White_Screen.jpg","5","45","Lynx.jpg","5"
"091219","12:38:32","22","22","5.0.14.0","2","18","trial1","naming","0","0","0","0","wine glass","0","4849","1","White_Screen.jpg","8","86","Glass_Wine.jpg","8"
"091219","12:38:32","22","22","5.0.14.0","2","19","trial1","naming","0","0","0","0","toy chairs","0","4534","1","White_Screen.jpg","6","56","Toy_TableSet.jpg","6"
"091219","12:38:32","22","22","5.0.14.0","2","20","trial1","naming","0","0","0","0","radish","0","3574","1","White_Screen.jpg","8","123","Radish.jpg","8"
"091219","12:38:32","22","22","5.0.14.0","2","21","trial1","naming","0","0","0","0","microwave","0","2992","1","White_Screen.jpg","7","58","Microwave.jpg","7"
"091219","12:38:32","22","22","5.0.14.0","2","22","trial1","naming","0","0","0","0","brocoli","0","3070","1","White_Screen.jpg","7","150","Broccoli.jpg","7"
"091219","12:38:32","22","22","5.0.14.0","2","23","trial1","naming","0","0","0","0","tiles","0","2091","1","White_Screen.jpg","7","144","FloorTile.jpg","7"
"091219","12:38:32","22","22","5.0.14.0","2","24","trial1","naming","0","0","0","0","lolipop","0","4173","1","White_Screen.jpg","7","62","Lollipop_Grape.jpg","7"
"091219","12:38:32","22","22","5.0.14.0","2","25","trial1","naming","0","0","0","0","bed","0","2134","1","White_Screen.jpg","7","63","Bed_QueenSize.jpg","7"
"091219","12:38:32","22","22","5.0.14.0","2","26","trial1","naming","0","0","0","0"," ball","0","10000","1","White_Screen.jpg","5","87","Ball_8.jpg","5"
"091219","12:38:32","22","22","5.0.14.0","2","27","trial1","naming","0","0","0","0","eagle","0","3491","1","White_Screen.jpg","9","79","Bird_Eagle.jpg","9"
"091219","12:38:32","22","22","5.0.14.0","2","28","trial1","naming","0","0","0","0","pen'","0","1761","1","White_Screen.jpg","7","15","Pen_Ballpoint.jpg","7"
"091219","12:38:32","22","22","5.0.14.0","2","29","trial1","naming","0","0","0","0","coffee pot","0","8249","1","White_Screen.jpg","8","139","CoffeePot.jpg","8"
"091219","12:38:32","22","22","5.0.14.0","2","30","trial1","naming","0","0","0","0","doorbell","0","5871","1","White_Screen.jpg","7","99","PulleyWooden.jpg","7"
"091219","12:38:32","22","22","5.0.14.0","2","31","trial1","naming","0","0","0","0","binoculars","0","8267","1","White_Screen.jpg","7","120","Binoculars.jpg","7"
"091219","12:38:32","22","22","5.0.14.0","2","32","trial1","naming","0","0","0","0","purse","0","2424","1","White_Screen.jpg","5","103","Purse.jpg","5"
"091219","12:38:32","22","22","5.0.14.0","2","33","trial1","naming","0","0","0","0","tub","0","2709","1","White_Screen.jpg","7","97","Bathtub.jpg","7"
"091219","12:38:32","22","22","5.0.14.0","2","34","trial1","naming","0","0","0","0","tool","0","8455","1","White_Screen.jpg","7","89","CarJack.jpg","7"
"091219","12:38:32","22","22","5.0.14.0","2","35","trial1","naming","0","0","0","0","necklace","0","6500","1","White_Screen.jpg","7","94","Necklace_Black.jpg","7"
"091219","12:38:32","22","22","5.0.14.0","2","36","trial1","naming","0","0","0","0","pasta","0","6983","1","White_Screen.jpg","9","137","Bowl_Pasta.jpg","9"
"091219","12:38:32","22","22","5.0.14.0","2","37","trial1","naming","0","0","0","0","flour","0","9862","1","White_Screen.jpg","7","29","MortarPestle_WhiteMarble.jpg","7"
"091219","12:38:32","22","22","5.0.14.0","2","38","trial1","naming","0","0","0","0","sign","0","3298","1","White_Screen.jpg","7","98","Sign_OneWay.jpg","7"
"091219","12:38:32","22","22","5.0.14.0","2","39","trial1","naming","0","0","0","0","scoop","0","6605","1","White_Screen.jpg","6","32","CementFinisher.jpg","6"
"091219","12:38:32","22","22","5.0.14.0","2","40","trial1","naming","0","0","0","0","desk","0","3372","1","White_Screen.jpg","7","88","ClothesDryingRack.jpg","7"
"091219","12:38:32","22","22","5.0.14.0","2","41","trial1","naming","0","0","0","0","","0","10000","1","White_Screen.jpg","7","24","Walker_Blue.jpg","7"
"091219","12:38:32","22","22","5.0.14.0","2","42","trial1","naming","0","0","0","0","comb","0","2996","1","White_Screen.jpg","5","36","Comb.jpg","5"
"091219","12:38:32","22","22","5.0.14.0","2","43","trial1","naming","0","0","0","0","magnifying glass","0","6009","1","White_Screen.jpg","7","74","Mirror_Handheld.jpg","7"
"091219","12:38:32","22","22","5.0.14.0","2","44","trial1","naming","0","0","0","0","box","0","1984","1","White_Screen.jpg","7","85","Box_WoodenOpen.jpg","7"
"091219","12:38:32","22","22","5.0.14.0","2","45","trial1","naming","0","0","0","0","bird","0","2465","1","White_Screen.jpg","6","93","Flamingo_Real.jpg","6"
"091219","12:38:32","22","22","5.0.14.0","2","46","trial1","naming","0","0","0","0","blinds","0","3596","1","White_Screen.jpg","7","75","WindowBlinds.jpg","7"
"091219","12:38:32","22","22","5.0.14.0","2","47","trial1","naming","0","0","0","0","backspace key","0","6475","1","White_Screen.jpg","7","70","ComputerKeyboard_Backspace.jpg","7"
"091219","12:38:32","22","22","5.0.14.0","2","48","trial1","naming","0","0","0","0","kettle","0","3855","1","White_Screen.jpg","7","143","Can_MilkAntique.jpg","7"
"091219","12:38:32","22","22","5.0.14.0","2","49","trial1","naming","0","0","0","0","gift bow","0","7908","1","White_Screen.jpg","7","5","GiftBow.jpg","7"
"091219","12:38:32","22","22","5.0.14.0","2","50","trial1","naming","0","0","0","0","exercise machine","0","9446","1","White_Screen.jpg","7","81","Exercise_Machine.jpg","7"
"091219","12:38:32","22","22","5.0.14.0","2","52","trial1","naming","0","0","0","0","camel","0","2906","1","White_Screen.jpg","5","115","Camel_Dromedary.jpg","5"
"091219","12:38:32","22","22","5.0.14.0","2","53","trial1","naming","0","0","0","0","eye test","0","4051","1","White_Screen.jpg","7","42","EyeChart.jpg","7"
"091219","12:38:32","22","22","5.0.14.0","2","54","trial1","naming","0","0","0","0","toy","0","3121","1","White_Screen.jpg","5","133","Toy_RobotTransformer.jpg","5"
"091219","12:38:32","22","22","5.0.14.0","2","55","trial1","naming","0","0","0","0","fruit","0","2323","1","White_Screen.jpg","6","47","Squash_Butternut.jpg","6"
"091219","12:38:32","22","22","5.0.14.0","2","56","trial1","naming","0","0","0","0","toy","0","3684","1","White_Screen.jpg","7","102","HairCurler.jpg","7"
"091219","12:38:32","22","22","5.0.14.0","2","57","trial1","naming","0","0","0","0","bells","0","2065","1","White_Screen.jpg","5","122","Bells_Christmas.jpg","5"
"091219","12:38:32","22","22","5.0.14.0","2","58","trial1","naming","0","0","0","0","beer glasses","0","9692","1","White_Screen.jpg","7","95","ShotGlassTray.jpg","7"
"091219","12:38:32","22","22","5.0.14.0","2","59","trial1","naming","0","0","0","0","light blub","0","4558","1","White_Screen.jpg","7","125","LightBulb_Blue.jpg","7"
"091219","12:38:32","22","22","5.0.14.0","2","60","trial1","naming","0","0","0","0","speaker","0","3487","1","White_Screen.jpg","7","82","Speaker_Single.jpg","7"
"091219","12:38:32","22","22","5.0.14.0","2","61","trial1","naming","0","0","0","0","purse","0","2843","1","White_Screen.jpg","7","40","Handbag.jpg","7"
"091219","12:38:32","22","22","5.0.14.0","2","62","trial1","naming","0","0","0","0","heater","0","7480","1","White_Screen.jpg","7","108","OvenElement.jpg","7"
"091219","12:38:32","22","22","5.0.14.0","2","63","trial1","naming","0","0","0","0","backlight","0","4668","1","White_Screen.jpg","7","113","TailLight.jpg","7"
"091219","12:38:32","22","22","5.0.14.0","2","64","trial1","naming","0","0","0","0","toy","0","2441","1","White_Screen.jpg","5","121","Toy_FigurineEngineer.jpg","5"
"091219","12:38:32","22","22","5.0.14.0","2","65","trial1","naming","0","0","0","0","record player","0","4812","1","White_Screen.jpg","8","30","RecordPlayer.jpg","8"
"091219","12:38:32","22","22","5.0.14.0","2","66","trial1","naming","0","0","0","0","flower","0","2356","1","White_Screen.jpg","7","49","Flower_Tulip.jpg","7"
"091219","12:38:32","22","22","5.0.14.0","2","67","trial1","naming","0","0","0","0","glasses","0","2660","1","White_Screen.jpg","7","131","Glasses_Reading.jpg","7"
"091219","12:38:32","22","22","5.0.14.0","2","68","trial1","naming","0","0","0","0","hook","0","4056","1","White_Screen.jpg","7","14","Carabiner_Orange.jpg","7"
"091219","12:38:32","22","22","5.0.14.0","2","69","trial1","naming","0","0","0","0","tool","0","5237","1","White_Screen.jpg","7","142","SlideViewer.jpg","7"
"091219","12:38:32","22","22","5.0.14.0","2","70","trial1","naming","0","0","0","0","lance","0","4879","1","White_Screen.jpg","10","57","JoustingSpear.jpg","10"
"091219","12:38:32","22","22","5.0.14.0","2","71","trial1","naming","0","0","0","0","painting","0","4223","1","White_Screen.jpg","5","60","MonaLisa.jpg","5"
"091219","12:38:32","22","22","5.0.14.0","2","72","trial1","naming","0","0","0","0","nail clipper","0","2795","1","White_Screen.jpg","7","3","NailClipper.jpg","7"
"091219","12:38:32","22","22","5.0.14.0","2","73","trial1","naming","0","0","0","0","scoop","0","2363","1","White_Screen.jpg","7","4","Shovel_Sandbox.jpg","7"
"091219","12:38:32","22","22","5.0.14.0","2","74","trial1","naming","0","0","0","0","cookie cutter","0","5123","1","White_Screen.jpg","7","33","CookieCutter_Bell.jpg","7"
"091219","12:38:32","22","22","5.0.14.0","2","75","trial1","naming","0","0","0","0","blender","0","6870","1","White_Screen.jpg","6","11","JuicerCitrus.jpg","6"
"091219","12:38:32","22","22","5.0.14.0","2","76","trial1","naming","0","0","0","0","tool","0","5107","1","White_Screen.jpg","5","114","CoolingFan_Engine.jpg","5"
"091219","12:38:32","22","22","5.0.14.0","2","77","trial1","naming","0","0","0","0","ski pool","0","4836","1","White_Screen.jpg","7","129","SkiPoles.jpg","7"
"091219","12:38:32","22","22","5.0.14.0","2","78","trial1","naming","0","0","0","0","squid","0","3846","1","White_Screen.jpg","10","83","Squid_Pink.jpg","10"
"091219","12:38:32","22","22","5.0.14.0","2","79","trial1","naming","0","0","0","0","barrel","0","3758","1","White_Screen.jpg","7","104","RadioactiveContainer.jpg","7"
"091219","12:38:32","22","22","5.0.14.0","2","80","trial1","naming","0","0","0","0","christmas ornament","0","8231","1","White_Screen.jpg","7","90","Decoration_ChristmasRed.jpg","7"
"091219","12:38:32","22","22","5.0.14.0","2","81","trial1","naming","0","0","0","0","mixer","0","6049","1","White_Screen.jpg","10","126","Beater_Electric.jpg","10"
"091219","12:38:32","22","22","5.0.14.0","2","82","trial1","naming","0","0","0","0","squid","0","2499","1","White_Screen.jpg","5","112","Squid_Orange.jpg","5"
"091219","12:38:32","22","22","5.0.14.0","2","83","trial1","naming","0","0","0","0","dart","0","2620","1","White_Screen.jpg","7","2","Dart.jpg","7"
"091219","12:38:32","22","22","5.0.14.0","2","84","trial1","naming","0","0","0","0","flowers","0","2465","1","White_Screen.jpg","7","78","Flower_Basket.jpg","7"
"091219","12:38:32","22","22","5.0.14.0","2","85","trial1","naming","0","0","0","0","crayon","0","3311","1","White_Screen.jpg","7","80","Crayon_Green.jpg","7"
"091219","12:38:32","22","22","5.0.14.0","2","86","trial1","naming","0","0","0","0","speaker","0","4186","1","White_Screen.jpg","7","138","Amp.jpg","7"
"091219","12:38:32","22","22","5.0.14.0","2","87","trial1","naming","0","0","0","0","bus stop","0","5074","1","White_Screen.jpg","5","53","BusStop.jpg","5"
"091219","12:38:32","22","22","5.0.14.0","2","88","trial1","naming","0","0","0","0","post","0","2589","1","White_Screen.jpg","7","110","Pillar.jpg","7"
"091219","12:38:32","22","22","5.0.14.0","2","89","trial1","naming","0","0","0","0","bacteria","0","4972","1","White_Screen.jpg","7","130","Nuts_Walnut.jpg","7"
"091219","12:38:32","22","22","5.0.14.0","2","90","trial1","naming","0","0","0","0","tool","0","2700","1","White_Screen.jpg","7","96","AngleGrinder.jpg","7"
"091219","12:38:32","22","22","5.0.14.0","2","91","trial1","naming","0","0","0","0","processor","0","4568","1","White_Screen.jpg","5","66","Computer_CPU.jpg","5"
"091219","12:38:32","22","22","5.0.14.0","2","92","trial1","naming","0","0","0","0","bathroom","0","4280","1","White_Screen.jpg","5","6","PortaPotty.jpg","5"
"091219","12:38:32","22","22","5.0.14.0","2","93","trial1","naming","0","0","0","0","award","0","4466","1","White_Screen.jpg","7","71","Trophy.jpg","7"
"091219","12:38:32","22","22","5.0.14.0","2","94","trial1","naming","0","0","0","0","shreder","0","4224","1","White_Screen.jpg","5","8","Cheesegrater_Box.jpg","5"
"091219","12:38:32","22","22","5.0.14.0","2","95","trial1","naming","0","0","0","0","chalkboard","0","4180","1","White_Screen.jpg","7","34","Blackboard.jpg","7"
"091219","12:38:32","22","22","5.0.14.0","2","96","trial1","naming","0","0","0","0","crown","0","1948","1","White_Screen.jpg","7","22","Crown.jpg","7"
"091219","12:38:32","22","22","5.0.14.0","2","97","trial1","naming","0","0","0","0","mailboxes","0","5941","1","White_Screen.jpg","7","140","Mailbox_Community.jpg","7"
"091219","12:38:32","22","22","5.0.14.0","2","98","trial1","naming","0","0","0","0","tool","0","3046","1","White_Screen.jpg","7","37","Pliers_SlipJoint.jpg","7"
"091219","12:38:32","22","22","5.0.14.0","2","99","trial1","naming","0","0","0","0","boot","0","1900","1","White_Screen.jpg","7","55","Boot_Rain.jpg","7"
"091219","12:38:32","22","22","5.0.14.0","2","100","trial1","naming","0","0","0","0","ticket machine","0","7216","1","White_Screen.jpg","5","105","Pricegun.jpg","5"
"091219","12:38:32","22","22","5.0.14.0","2","101","trial1","naming","0","0","0","0","tags","0","4997","1","White_Screen.jpg","7","77","Stick_Stirring.jpg","7"
"091219","12:38:32","22","22","5.0.14.0","2","103","trial1","naming","0","0","0","0","acorn","0","2854","1","White_Screen.jpg","5","132","Acorn.jpg","5"
"091219","12:38:32","22","22","5.0.14.0","2","104","trial1","naming","0","0","0","0","art","0","2514","1","White_Screen.jpg","6","25","CameoPortrait.jpg","6"
"091219","12:38:32","22","22","5.0.14.0","2","105","trial1","naming","0","0","0","0","bird","0","3051","1","White_Screen.jpg","7","19","Bird_Duck.jpg","7"
"091219","12:38:32","22","22","5.0.14.0","2","106","trial1","naming","0","0","0","0","lettuce","0","3745","1","White_Screen.jpg","5","145","Lettuce_GreenLeaf.jpg","5"
"091219","12:38:32","22","22","5.0.14.0","2","107","trial1","naming","0","0","0","0","phone","0","3065","1","White_Screen.jpg","7","65","Phone_Flip.jpg","7"
"091219","12:38:32","22","22","5.0.14.0","2","108","trial1","naming","0","0","0","0","truck","0","3838","1","White_Screen.jpg","7","147","Tractor_Orange.jpg","7"
"091219","12:38:32","22","22","5.0.14.0","2","109","trial1","naming","0","0","0","0","shed","0","6859","1","White_Screen.jpg","7","27","Shed.jpg","7"
"091219","12:38:32","22","22","5.0.14.0","2","110","trial1","naming","0","0","0","0","tool","0","3960","1","White_Screen.jpg","7","116","IceScraper.jpg","7"
"091219","12:38:32","22","22","5.0.14.0","2","111","trial1","naming","0","0","0","0","christmas sock","0","10000","1","White_Screen.jpg","7","28","StockingChristmas.jpg","7"
"091219","12:38:32","22","22","5.0.14.0","2","112","trial1","naming","0","0","0","0","Enter Name","0","1","1","White_Screen.jpg","5","50","Jar_Capers.jpg","5"
"091219","12:38:32","22","22","5.0.14.0","2","113","trial1","naming","0","0","0","0","tube","0","4744","1","White_Screen.jpg","3","91","Tube_Paint.jpg","3"
"091219","12:38:32","22","22","5.0.14.0","2","114","trial1","naming","0","0","0","0","chop sticks","0","4542","1","White_Screen.jpg","7","149","Chopsticks.jpg","7"
"091219","12:38:32","22","22","5.0.14.0","2","115","trial1","naming","0","0","0","0","cookie","0","10000","1","White_Screen.jpg","7","52","Tray_Muffin.jpg","7"
"091219","12:38:32","22","22","5.0.14.0","2","116","trial1","naming","0","0","0","0","copy machine","0","5968","1","White_Screen.jpg","5","18","Photocopier.jpg","5"
"091219","12:38:32","22","22","5.0.14.0","2","117","trial1","naming","0","0","0","0","stingray","0","7487","1","White_Screen.jpg","5","68","Stingray.jpg","5"
"091219","12:38:32","22","22","5.0.14.0","2","118","trial1","naming","0","0","0","0","rocks","0","2403","1","White_Screen.jpg","5","118","Inukshuk.jpg","5"
"091219","12:38:32","22","22","5.0.14.0","2","119","trial1","naming","0","0","0","0","name tag","0","4185","1","White_Screen.jpg","5","117","Nametag.jpg","5"
"091219","12:38:32","22","22","5.0.14.0","2","120","trial1","naming","0","0","0","0","toy","0","2617","1","White_Screen.jpg","5","72","Toy_RabbitPlushie.jpg","5"
"091219","12:38:32","22","22","5.0.14.0","2","121","trial1","naming","0","0","0","0","barber seat","0","6374","1","White_Screen.jpg","7","51","Chair_Barber.jpg","7"
"091219","12:38:32","22","22","5.0.14.0","2","122","trial1","naming","0","0","0","0","container","0","2806","1","White_Screen.jpg","7","124","Container_Tupperware.jpg","7"
"091219","12:38:32","22","22","5.0.14.0","2","123","trial1","naming","0","0","0","0","tool","0","4603","1","White_Screen.jpg","8","64","SelfieStick.jpg","8"
"091219","12:38:32","22","22","5.0.14.0","2","124","trial1","naming","0","0","0","0","car flooring","0","6050","1","White_Screen.jpg","7","26","Mat_Car.jpg","7"
"091219","12:38:32","22","22","5.0.14.0","2","125","trial1","naming","0","0","0","0","tool","0","4495","1","White_Screen.jpg","6","100","CoffeeGrinder.jpg","6"
"091219","12:38:32","22","22","5.0.14.0","2","126","trial1","naming","0","0","0","0","hook","0","2530","1","White_Screen.jpg","7","84","Hook_Double.jpg","7"
"091219","12:38:32","22","22","5.0.14.0","2","127","trial1","naming","0","0","0","0","toy house","0","4108","1","White_Screen.jpg","7","7","House_CeramicGingerbread.jpg","7"
"091219","12:38:32","22","22","5.0.14.0","2","128","trial1","naming","0","0","0","0","jar","0","2911","1","White_Screen.jpg","7","136","Jar_Empty.jpg","7"
"091219","12:38:32","22","22","5.0.14.0","2","129","trial1","naming","0","0","0","0","flags","0","2242","1","White_Screen.jpg","7","101","Flags_CheckeredRacing.jpg","7"
"091219","12:38:32","22","22","5.0.14.0","2","130","trial1","naming","0","0","0","0","car","0","1935","1","White_Screen.jpg","7","119","Car_Vintage.jpg","7"
"091219","12:38:32","22","22","5.0.14.0","2","131","trial1","naming","0","0","0","0","tool","0","3938","1","White_Screen.jpg","6","43","DentalProbe.jpg","6"
"091219","12:38:32","22","22","5.0.14.0","2","132","trial1","naming","0","0","0","0","box","0","2698","1","White_Screen.jpg","6","109","Box_Jewellery.jpg","6"
"091219","12:38:32","22","22","5.0.14.0","2","133","trial1","naming","0","0","0","0","toy ball","0","3141","1","White_Screen.jpg","7","16","Toy_DogBall.jpg","7"
"091219","12:38:32","22","22","5.0.14.0","2","134","trial1","naming","0","0","0","0","cactus","0","3014","1","White_Screen.jpg","7","48","Cactus.jpg","7"
"091219","12:38:32","22","22","5.0.14.0","2","135","trial1","naming","0","0","0","0","pasta","0","2509","1","White_Screen.jpg","7","23","Pasta_Penne.jpg","7"
"091219","12:38:32","22","22","5.0.14.0","2","136","trial1","naming","0","0","0","0","replacemen","0","10000","1","White_Screen.jpg","7","10","BicyclePedal.jpg","7"
"091219","12:38:32","22","22","5.0.14.0","2","137","trial1","naming","0","0","0","0","lock","0","5359","1","White_Screen.jpg","7","31","Lock_Combination.jpg","7"
"091219","12:38:32","22","22","5.0.14.0","2","138","trial1","naming","0","0","0","0","paddles","0","3047","1","White_Screen.jpg","7","61","Oars.jpg","7"
"091219","12:38:32","22","22","5.0.14.0","2","139","trial1","naming","0","0","0","0","weapon","0","4452","1","White_Screen.jpg","7","41","Spear.jpg","7"
"091219","12:38:32","22","22","5.0.14.0","2","140","trial1","naming","0","0","0","0","arageno","0","7667","1","White_Screen.jpg","5","12","Sand.jpg","5"
"091219","12:38:32","22","22","5.0.14.0","2","141","trial1","naming","0","0","0","0","bucket","0","2477","1","White_Screen.jpg","7","134","Bucket_WoodenDark.jpg","7"
"091219","12:38:32","22","22","5.0.14.0","2","142","trial1","naming","0","0","0","0","sythe","0","3361","1","White_Screen.jpg","7","141","Scythe.jpg","7"
"091219","12:38:32","22","22","5.0.14.0","2","143","trial1","naming","0","0","0","0","bamboo","0","4362","1","White_Screen.jpg","7","9","Bamboo.jpg","7"
"091219","12:38:32","22","22","5.0.14.0","2","144","trial1","naming","0","0","0","0","card deck","0","4859","1","White_Screen.jpg","7","54","Card_Deck.jpg","7"
"091219","12:38:32","22","22","5.0.14.0","2","145","trial1","naming","0","0","0","0","spray","0","2646","1","White_Screen.jpg","8","73","Bottle_CosmeticSpray.jpg","8"
"091219","12:38:32","22","22","5.0.14.0","2","146","trial1","naming","0","0","0","0","microscope","0","3148","1","White_Screen.jpg","7","106","Microscope.jpg","7"
"091219","12:38:32","22","22","5.0.14.0","2","147","trial1","naming","0","0","0","0","keys","0","2790","1","White_Screen.jpg","7","69","Key_Car.jpg","7"
"091219","12:38:32","22","22","5.0.14.0","2","148","trial1","naming","0","0","0","0","figure","0","4765","1","White_Screen.jpg","7","148","Figurine_Ballerina.jpg","7"
"091219","12:38:32","22","22","5.0.14.0","2","149","trial1","naming","0","0","0","0","baseball","0","3109","1","White_Screen.jpg","7","146","Ball_Baseball.jpg","7"
"091219","12:38:32","22","22","5.0.14.0","2","150","trial1","naming","0","0","0","0","table","0","2272","1","White_Screen.jpg","7","44","Table_AntiqueWooden.jpg","7"
"091219","12:38:32","22","22","5.0.14.0","2","151","trial1","naming","0","0","0","0","bambooEnter Name","0","4444","1","White_Screen.jpg","7","67","Clave.jpg","7"
"091219","12:38:32","22","22","5.0.14.0","2","152","trial1","naming","0","0","0","0","discoball ","0","4921","1","White_Screen.jpg","7","13","Ball_Disco.jpg","7"
"091219","12:38:32","22","22","5.0.14.0","2","154","trial1","naming","0","0","0","0","car","0","1987","1","White_Screen.jpg","5","119","Car_Vintage.jpg","5"
"091219","12:38:32","22","22","5.0.14.0","2","155","trial1","naming","0","0","0","0","chopsticks","0","3313","1","White_Screen.jpg","7","149","Chopsticks.jpg","7"
"091219","12:38:32","22","22","5.0.14.0","2","156","trial1","naming","0","0","0","0","ball","0","1796","1","White_Screen.jpg","7","16","Toy_DogBall.jpg","7"
"091219","12:38:32","22","22","5.0.14.0","2","157","trial1","naming","0","0","0","0","box","0","2643","1","White_Screen.jpg","7","109","Box_Jewellery.jpg","7"
"091219","12:38:32","22","22","5.0.14.0","2","158","trial1","naming","0","0","0","0","flour","0","3488","1","White_Screen.jpg","7","127","Bowl_Flour.jpg","7"
"091219","12:38:32","22","22","5.0.14.0","2","159","trial1","naming","0","0","0","0","8 ball","0","3211","1","White_Screen.jpg","8","87","Ball_8.jpg","8"
"091219","12:38:32","22","22","5.0.14.0","2","160","trial1","naming","0","0","0","0","tags","0","2426","1","White_Screen.jpg","7","77","Stick_Stirring.jpg","7"
"091219","12:38:32","22","22","5.0.14.0","2","161","trial1","naming","0","0","0","0","painting","0","2839","1","White_Screen.jpg","7","60","MonaLisa.jpg","7"
"091219","12:38:32","22","22","5.0.14.0","2","162","trial1","naming","0","0","0","0","filter","0","3309","1","White_Screen.jpg","7","102","HairCurler.jpg","7"
"091219","12:38:32","22","22","5.0.14.0","2","163","trial1","naming","0","0","0","0","paddles","0","2472","1","White_Screen.jpg","7","61","Oars.jpg","7"
"091219","12:38:32","22","22","5.0.14.0","2","164","trial1","naming","0","0","0","0","art peice","0","3116","1","White_Screen.jpg","7","25","CameoPortrait.jpg","7"
"091219","12:38:32","22","22","5.0.14.0","2","165","trial1","naming","0","0","0","0","tool","0","3085","1","White_Screen.jpg","7","89","CarJack.jpg","7"
"091219","12:38:32","22","22","5.0.14.0","2","166","trial1","naming","0","0","0","0","calculator","0","2915","1","White_Screen.jpg","5","135","Calculator.jpg","5"
"091219","12:38:32","22","22","5.0.14.0","2","167","trial1","naming","0","0","0","0","necklace","0","3876","1","White_Screen.jpg","7","94","Necklace_Black.jpg","7"
"091219","12:38:32","22","22","5.0.14.0","2","168","trial1","naming","0","0","0","0","lightbulb","0","2856","1","White_Screen.jpg","7","125","LightBulb_Blue.jpg","7"
"091219","12:38:32","22","22","5.0.14.0","2","169","trial1","naming","0","0","0","0","jar","0","3781","1","White_Screen.jpg","7","50","Jar_Capers.jpg","7"
"091219","12:38:32","22","22","5.0.14.0","2","170","trial1","naming","0","0","0","0","bacteria","0","3340","1","White_Screen.jpg","8","130","Nuts_Walnut.jpg","8"
"091219","12:38:32","22","22","5.0.14.0","2","171","trial1","naming","0","0","0","0","tube","0","2379","1","White_Screen.jpg","9","91","Tube_Paint.jpg","9"
"091219","12:38:32","22","22","5.0.14.0","2","172","trial1","naming","0","0","0","0","shreder","0","3046","1","White_Screen.jpg","7","8","Cheesegrater_Box.jpg","7"
"091219","12:38:32","22","22","5.0.14.0","2","173","trial1","naming","0","0","0","0","tool","0","2211","1","White_Screen.jpg","7","100","CoffeeGrinder.jpg","7"
"091219","12:38:32","22","22","5.0.14.0","2","174","trial1","naming","0","0","0","0","pen","0","1674","1","White_Screen.jpg","7","15","Pen_Ballpoint.jpg","7"
"091219","12:38:32","22","22","5.0.14.0","2","175","trial1","naming","0","0","0","0","microscope","0","2606","1","White_Screen.jpg","7","106","Microscope.jpg","7"
"091219","12:38:32","22","22","5.0.14.0","2","176","trial1","naming","0","0","0","0","bird","0","1796","1","White_Screen.jpg","7","92","Bird_Budgie.jpg","7"
"091219","12:38:32","22","22","5.0.14.0","2","177","trial1","naming","0","0","0","0","bathroom","0","3587","1","White_Screen.jpg","7","6","PortaPotty.jpg","7"
"091219","12:38:32","22","22","5.0.14.0","2","178","trial1","naming","0","0","0","0","award","0","2611","1","White_Screen.jpg","7","71","Trophy.jpg","7"
"091219","12:38:32","22","22","5.0.14.0","2","179","trial1","naming","0","0","0","0","pickaxe","0","3026","1","White_Screen.jpg","7","20","Pickaxe.jpg","7"
"091219","12:38:32","22","22","5.0.14.0","2","180","trial1","naming","0","0","0","0","speaker","0","2512","1","White_Screen.jpg","7","82","Speaker_Single.jpg","7"
"091219","12:38:32","22","22","5.0.14.0","2","181","trial1","naming","0","0","0","0","blanket","0","4762","1","White_Screen.jpg","7","1","Blanket.jpg","7"
"091219","12:38:32","22","22","5.0.14.0","2","182","trial1","naming","0","0","0","0","filter","0","2947","1","White_Screen.jpg","7","114","CoolingFan_Engine.jpg","7"
"091219","12:38:32","22","22","5.0.14.0","2","183","trial1","naming","0","0","0","0","purse","0","3196","1","White_Screen.jpg","7","40","Handbag.jpg","7"
"091219","12:38:32","22","22","5.0.14.0","2","184","trial1","naming","0","0","0","0","fisghing hooks","0","7051","1","White_Screen.jpg","7","84","Hook_Double.jpg","7"
"091219","12:38:32","22","22","5.0.14.0","2","185","trial1","naming","0","0","0","0","bells","0","2040","1","White_Screen.jpg","7","122","Bells_Christmas.jpg","7"
"091219","12:38:32","22","22","5.0.14.0","2","186","trial1","naming","0","0","0","0","mail boxes","0","4638","1","White_Screen.jpg","7","140","Mailbox_Community.jpg","7"
"091219","12:38:32","22","22","5.0.14.0","2","187","trial1","naming","0","0","0","0","crayon","0","3355","1","White_Screen.jpg","7","80","Crayon_Green.jpg","7"
"091219","12:38:32","22","22","5.0.14.0","2","188","trial1","naming","0","0","0","0","bobcat","0","2931","1","White_Screen.jpg","7","45","Lynx.jpg","7"
"091219","12:38:32","22","22","5.0.14.0","2","189","trial1","naming","0","0","0","0","toy chairs","0","5182","1","White_Screen.jpg","7","56","Toy_TableSet.jpg","7"
"091219","12:38:32","22","22","5.0.14.0","2","190","trial1","naming","0","0","0","0","pedal","0","3014","1","White_Screen.jpg","7","10","BicyclePedal.jpg","7"
"091219","12:38:32","22","22","5.0.14.0","2","191","trial1","naming","0","0","0","0","lock","0","1828","1","White_Screen.jpg","7","31","Lock_Combination.jpg","7"
"091219","12:38:32","22","22","5.0.14.0","2","192","trial1","naming","0","0","0","0","cards deck","0","8482","1","White_Screen.jpg","7","54","Card_Deck.jpg","7"
"091219","12:38:32","22","22","5.0.14.0","2","193","trial1","naming","0","0","0","0","jar","0","2398","1","White_Screen.jpg","7","136","Jar_Empty.jpg","7"
"091219","12:38:32","22","22","5.0.14.0","2","194","trial1","naming","0","0","0","0","container","0","2317","1","White_Screen.jpg","7","124","Container_Tupperware.jpg","7"
"091219","12:38:32","22","22","5.0.14.0","2","195","trial1","naming","0","0","0","0","horse figure","0","8128","1","White_Screen.jpg","7","46","Statue_Horse.jpg","7"
"091219","12:38:32","22","22","5.0.14.0","2","196","trial1","naming","0","0","0","0","fruit","0","2377","1","White_Screen.jpg","7","47","Squash_Butternut.jpg","7"
"091219","12:38:32","22","22","5.0.14.0","2","197","trial1","naming","0","0","0","0","door bell","0","4145","1","White_Screen.jpg","7","99","PulleyWooden.jpg","7"
"091219","12:38:32","22","22","5.0.14.0","2","198","trial1","naming","0","0","0","0","box","0","2097","1","White_Screen.jpg","8","85","Box_WoodenOpen.jpg","8"
"091219","12:38:32","22","22","5.0.14.0","2","199","trial1","naming","0","0","0","0","beer glasses","0","4622","1","White_Screen.jpg","7","95","ShotGlassTray.jpg","7"
"091219","12:38:32","22","22","5.0.14.0","2","200","trial1","naming","0","0","0","0","tiles","0","2820","1","White_Screen.jpg","7","144","FloorTile.jpg","7"
"091219","12:38:32","22","22","5.0.14.0","2","201","trial1","naming","0","0","0","0","ticket machine","0","4939","1","White_Screen.jpg","5","105","Pricegun.jpg","5"
"091219","12:38:32","22","22","5.0.14.0","2","202","trial1","naming","0","0","0","0","finish flags","0","4891","1","White_Screen.jpg","7","101","Flags_CheckeredRacing.jpg","7"
"091219","12:38:32","22","22","5.0.14.0","2","203","trial1","naming","0","0","0","0","kettle","0","3007","1","White_Screen.jpg","7","143","Can_MilkAntique.jpg","7"
"091219","12:38:32","22","22","5.0.14.0","3","1","demographics_block","gender","0","0","0","0","Male","1","22678","0","0","0","0","0","0"
"091219","12:38:32","22","22","5.0.14.0","3","1","demographics_block","age","0","0","0","0","25","1","22678","0","0","0","0","0","0"
"091219","12:38:32","22","22","5.0.14.0","3","1","demographics_block","education","0","0","0","0","4","1","22678","0","0","0","0","0","0"
"091219","12:38:32","22","22","5.0.14.0","3","2","demographics_block","left_right_handed","0","0","0","0","Right","1","8627","0","0","0","0","0","0"
"091219","12:38:32","22","22","5.0.14.0","3","2","demographics_block","raceoption1","0","0","0","0","","1","8627","0","0","0","0","0","0"
"091219","12:38:32","22","22","5.0.14.0","3","2","demographics_block","raceoption2","0","0","0","0","","1","8627","0","0","0","0","0","0"
"091219","12:38:32","22","22","5.0.14.0","3","2","demographics_block","raceoption3","0","0","0","0","2","1","8627","0","0","0","0","0","0"
"091219","12:38:32","22","22","5.0.14.0","3","2","demographics_block","raceoption4","0","0","0","0","","1","8627","0","0","0","0","0","0"
"091219","12:38:32","22","22","5.0.14.0","3","2","demographics_block","raceoption5","0","0","0","0","","1","8627","0","0","0","0","0","0"
"091219","12:38:32","22","22","5.0.14.0","3","2","demographics_block","raceoption6","0","0","0","0","","1","8627","0","0","0","0","0","0"
"091219","12:38:32","22","22","5.0.14.0","3","2","demographics_block","raceoption7","0","0","0","0","","1","8627","0","0","0","0","0","0"
"091219","12:38:32","22","22","5.0.14.0","3","2","demographics_block","raceoption8","0","0","0","0","","1","8627","0","0","0","0","0","0"
"091219","12:38:32","22","22","5.0.14.0","3","2","demographics_block","raceoption9","0","0","0","0","","1","8627","0","0","0","0","0","0"
"091219","12:38:32","22","22","5.0.14.0","3","2","demographics_block","raceother","0","0","0","0","","1","8627","0","0","0","0","0","0"
"091219","12:38:32","22","22","5.0.14.0","3","2","demographics_block","raceother","0","0","0","0","","1","8627","0","0","0","0","0","0"
"091219","12:38:32","22","22","5.0.14.0","3","2","demographics_block","english_language","0","0","0","0","Yes","1","8627","0","0","0","0","0","0"
"091219","12:38:32","22","22","5.0.14.0","3","2","demographics_block","english_languageother","0","0","0","0","","1","8627","0","0","0","0","0","0"
"091219","12:38:32","22","22","5.0.14.0","3","3","demographics_block","eyesight","0","0","0","0","Yes","1","4018","0","0","0","0","0","0"
"091219","12:38:32","22","22","5.0.14.0","3","3","demographics_block","colorblind","0","0","0","0","No","1","4018","0","0","0","0","0","0"
"091219","12:38:32","22","22","5.0.14.0","4","1","worker_id_block","worker_id_textbox","0","0","0","0","A3NKZMF7M4X0ZP","1","6138","0","0","0","0","0","0"
"date","time","group","subject","build","blocknum","trialnum","blockcode","trialcode","pretrialpause","posttrialpause","trialduration","trialtimeout","response","correct","latency","stimulusnumber1","stimulusitem1","stimulusonset1","stimulusnumber2","stimulusitem2","stimulusonset2"
"091219","11:35:16","20","20","5.0.14.0","2","1","trial1","naming","0","0","0","0","bathtub","0","10000","1","White_Screen.jpg","161","97","Bathtub.jpg","161"
"091219","11:35:16","20","20","5.0.14.0","2","2","trial1","naming","0","0","0","0","duck","0","7368","1","White_Screen.jpg","5","19","Bird_Duck.jpg","5"
"091219","11:35:16","20","20","5.0.14.0","2","3","trial1","naming","0","0","0","0","pricing machine","0","8308","1","White_Screen.jpg","5","105","Pricegun.jpg","5"
"091219","11:35:16","20","20","5.0.14.0","2","4","trial1","naming","0","0","0","0","sickle","0","5769","1","White_Screen.jpg","6","141","Scythe.jpg","6"
"091219","11:35:16","20","20","5.0.14.0","2","5","trial1","naming","0","0","0","0","lollipop","0","5654","1","White_Screen.jpg","7","62","Lollipop_Grape.jpg","7"
"091219","11:35:16","20","20","5.0.14.0","2","6","trial1","naming","0","0","0","0","bicycle pedals","0","9200","1","White_Screen.jpg","6","10","BicyclePedal.jpg","6"
"091219","11:35:16","20","20","5.0.14.0","2","7","trial1","naming","0","0","0","0","calculator","0","4633","1","White_Screen.jpg","4","135","Calculator.jpg","4"
"091219","11:35:16","20","20","5.0.14.0","2","8","trial1","naming","0","0","0","0","cell phone","0","4522","1","White_Screen.jpg","5","65","Phone_Flip.jpg","5"
"091219","11:35:16","20","20","5.0.14.0","2","9","trial1","naming","0","0","0","0","ice scraper","0","4246","1","White_Screen.jpg","5","116","IceScraper.jpg","5"
"091219","11:35:16","20","20","5.0.14.0","2","10","trial1","naming","0","0","0","0","coffee pot","0","4144","1","White_Screen.jpg","6","139","CoffeePot.jpg","6"
"091219","11:35:16","20","20","5.0.14.0","2","11","trial1","naming","0","0","0","0","masher","0","8817","1","White_Screen.jpg","4","29","MortarPestle_WhiteMarble.jpg","4"
"091219","11:35:16","20","20","5.0.14.0","2","12","trial1","naming","0","0","0","0","leopard","0","5838","1","White_Screen.jpg","5","45","Lynx.jpg","5"
"091219","11:35:16","20","20","5.0.14.0","2","13","trial1","naming","0","0","0","0","square","0","8999","1","White_Screen.jpg","7","66","Computer_CPU.jpg","7"
"091219","11:35:16","20","20","5.0.14.0","2","14","trial1","naming","0","0","0","0","disco ball","0","3480","1","White_Screen.jpg","5","13","Ball_Disco.jpg","5"
"091219","11:35:16","20","20","5.0.14.0","2","15","trial1","naming","0","0","0","0","turntable","0","3880","1","White_Screen.jpg","4","30","RecordPlayer.jpg","4"
"091219","11:35:16","20","20","5.0.14.0","2","16","trial1","naming","0","0","0","0","bamboo","0","3966","1","White_Screen.jpg","4","9","Bamboo.jpg","4"
"091219","11:35:16","20","20","5.0.14.0","2","17","trial1","naming","0","0","0","0","one way arrow","0","4750","1","White_Screen.jpg","3","98","Sign_OneWay.jpg","3"
"091219","11:35:16","20","20","5.0.14.0","2","18","trial1","naming","0","0","0","0","christmas bells","0","5181","1","White_Screen.jpg","3","122","Bells_Christmas.jpg","3"
"091219","11:35:16","20","20","5.0.14.0","2","19","trial1","naming","0","0","0","0","copy machine","0","4639","1","White_Screen.jpg","4","18","Photocopier.jpg","4"
"091219","11:35:16","20","20","5.0.14.0","2","20","trial1","naming","0","0","0","0","hanging plant","0","3730","1","White_Screen.jpg","6","78","Flower_Basket.jpg","6"
"091219","11:35:16","20","20","5.0.14.0","2","21","trial1","naming","0","0","0","0","sand","0","5303","1","White_Screen.jpg","13","12","Sand.jpg","13"
"091219","11:35:16","20","20","5.0.14.0","2","22","trial1","naming","0","0","0","0","massage ball","0","3992","1","White_Screen.jpg","4","16","Toy_DogBall.jpg","4"
"091219","11:35:16","20","20","5.0.14.0","2","23","trial1","naming","0","0","0","0","magnifying glass","0","6048","1","White_Screen.jpg","5","74","Mirror_Handheld.jpg","5"
"091219","11:35:16","20","20","5.0.14.0","2","24","trial1","naming","0","0","0","0","car mats","0","7585","1","White_Screen.jpg","4","26","Mat_Car.jpg","4"
"091219","11:35:16","20","20","5.0.14.0","2","25","trial1","naming","0","0","0","0","flour","0","4300","1","White_Screen.jpg","5","127","Bowl_Flour.jpg","5"
"091219","11:35:16","20","20","5.0.14.0","2","26","trial1","naming","0","0","0","0","Mona Lisa","0","5408","1","White_Screen.jpg","4","60","MonaLisa.jpg","4"
"091219","11:35:16","20","20","5.0.14.0","2","27","trial1","naming","0","0","0","0","box","0","7534","1","White_Screen.jpg","6","110","Pillar.jpg","6"
"091219","11:35:16","20","20","5.0.14.0","2","28","trial1","naming","0","0","0","0","padlock","0","3886","1","White_Screen.jpg","4","31","Lock_Combination.jpg","4"
"091219","11:35:16","20","20","5.0.14.0","2","29","trial1","naming","0","0","0","0","food processor","0","7917","1","White_Screen.jpg","4","11","JuicerCitrus.jpg","4"
"091219","11:35:16","20","20","5.0.14.0","2","30","trial1","naming","0","0","0","0","scraper","0","7568","1","White_Screen.jpg","4","41","Spear.jpg","4"
"091219","11:35:16","20","20","5.0.14.0","2","31","trial1","naming","0","0","0","0","clothes hanger","0","7350","1","White_Screen.jpg","4","88","ClothesDryingRack.jpg","4"
"091219","11:35:16","20","20","5.0.14.0","2","32","trial1","naming","0","0","0","0","drill","0","3811","1","White_Screen.jpg","4","96","AngleGrinder.jpg","4"
"091219","11:35:16","20","20","5.0.14.0","2","33","trial1","naming","0","0","0","0","towell","0","3509","1","White_Screen.jpg","9","1","Blanket.jpg","9"
"091219","11:35:16","20","20","5.0.14.0","2","34","trial1","naming","0","0","0","0","radioactive barrel","0","9923","1","White_Screen.jpg","3","104","RadioactiveContainer.jpg","3"
"091219","11:35:16","20","20","5.0.14.0","2","35","trial1","naming","0","0","0","0","microscope","0","4598","1","White_Screen.jpg","5","106","Microscope.jpg","5"
"091219","11:35:16","20","20","5.0.14.0","2","36","trial1","naming","0","0","0","0","parakeet","0","4230","1","White_Screen.jpg","3","92","Bird_Budgie.jpg","3"
"091219","11:35:16","20","20","5.0.14.0","2","37","trial1","naming","0","0","0","0","tupperware container","0","5391","1","White_Screen.jpg","6","124","Container_Tupperware.jpg","6"
"091219","11:35:16","20","20","5.0.14.0","2","38","trial1","naming","0","0","0","0","ski poles","0","4039","1","White_Screen.jpg","4","129","SkiPoles.jpg","4"
"091219","11:35:16","20","20","5.0.14.0","2","39","trial1","naming","0","0","0","0","nail clipper","0","4345","1","White_Screen.jpg","7","3","NailClipper.jpg","7"
"091219","11:35:16","20","20","5.0.14.0","2","40","trial1","naming","0","0","0","0","piano","0","3305","1","White_Screen.jpg","3","111","Piano_Upright.jpg","3"
"091219","11:35:16","20","20","5.0.14.0","2","41","trial1","naming","0","0","0","0","coil","0","6330","1","White_Screen.jpg","4","108","OvenElement.jpg","4"
"091219","11:35:16","20","20","5.0.14.0","2","42","trial1","naming","0","0","0","0","dust pan","0","4905","1","White_Screen.jpg","6","32","CementFinisher.jpg","6"
"091219","11:35:16","20","20","5.0.14.0","2","43","trial1","naming","0","0","0","0","badge holder","0","7007","1","White_Screen.jpg","7","117","Nametag.jpg","7"
"091219","11:35:16","20","20","5.0.14.0","2","44","trial1","naming","0","0","0","0","wooden bucket","0","5786","1","White_Screen.jpg","6","134","Bucket_WoodenDark.jpg","6"
"091219","11:35:16","20","20","5.0.14.0","2","45","trial1","naming","0","0","0","0","squid","0","3446","1","White_Screen.jpg","8","83","Squid_Pink.jpg","8"
"091219","11:35:16","20","20","5.0.14.0","2","46","trial1","naming","0","0","0","0","hair roller","0","3513","1","White_Screen.jpg","7","102","HairCurler.jpg","7"
"091219","11:35:16","20","20","5.0.14.0","2","47","trial1","naming","0","0","0","0","barber chair","0","4965","1","White_Screen.jpg","3","51","Chair_Barber.jpg","3"
"091219","11:35:16","20","20","5.0.14.0","2","48","trial1","naming","0","0","0","0","amplifier","0","6208","1","White_Screen.jpg","3","138","Amp.jpg","3"
"091219","11:35:16","20","20","5.0.14.0","2","49","trial1","naming","0","0","0","0","cookie cutter","0","8688","1","White_Screen.jpg","6","33","CookieCutter_Bell.jpg","6"
"091219","11:35:16","20","20","5.0.14.0","2","50","trial1","naming","0","0","0","0","window blind","0","5364","1","White_Screen.jpg","6","75","WindowBlinds.jpg","6"
"091219","11:35:16","20","20","5.0.14.0","2","52","trial1","naming","0","0","0","0","bald eagle","0","5286","1","White_Screen.jpg","4","79","Bird_Eagle.jpg","4"
"091219","11:35:16","20","20","5.0.14.0","2","53","trial1","naming","0","0","0","0","paddles","0","4410","1","White_Screen.jpg","5","61","Oars.jpg","5"
"091219","11:35:16","20","20","5.0.14.0","2","54","trial1","naming","0","0","0","0","rock formation","0","5380","1","White_Screen.jpg","4","118","Inukshuk.jpg","4"
"091219","11:35:16","20","20","5.0.14.0","2","55","trial1","naming","0","0","0","0","bus stop","0","4478","1","White_Screen.jpg","3","53","BusStop.jpg","3"
"091219","11:35:16","20","20","5.0.14.0","2","56","trial1","naming","0","0","0","0","tractor","0","4358","1","White_Screen.jpg","6","147","Tractor_Orange.jpg","6"
"091219","11:35:16","20","20","5.0.14.0","2","57","trial1","naming","0","0","0","0","baseball","0","3455","1","White_Screen.jpg","4","146","Ball_Baseball.jpg","4"
"091219","11:35:16","20","20","5.0.14.0","2","58","trial1","naming","0","0","0","0","round table","0","5234","1","White_Screen.jpg","7","44","Table_AntiqueWooden.jpg","7"
"091219","11:35:16","20","20","5.0.14.0","2","59","trial1","naming","0","0","0","0","exercise machine","0","6023","1","White_Screen.jpg","8","81","Exercise_Machine.jpg","8"
"091219","11:35:16","20","20","5.0.14.0","2","60","trial1","naming","0","0","0","0","speaker","0","4055","1","White_Screen.jpg","9","82","Speaker_Single.jpg","9"
"091219","11:35:16","20","20","5.0.14.0","2","61","trial1","naming","0","0","0","0","cactus","0","3204","1","White_Screen.jpg","5","48","Cactus.jpg","5"
"091219","11:35:16","20","20","5.0.14.0","2","62","trial1","naming","0","0","0","0","walker","0","6772","1","White_Screen.jpg","6","24","Walker_Blue.jpg","6"
"091219","11:35:16","20","20","5.0.14.0","2","63","trial1","naming","0","0","0","0","food processor","0","4999","1","White_Screen.jpg","7","21","ProcessorFood_Modern.jpg","7"
"091219","11:35:16","20","20","5.0.14.0","2","64","trial1","naming","0","0","0","0","key","0","5681","1","White_Screen.jpg","4","69","Key_Car.jpg","4"
"091219","11:35:16","20","20","5.0.14.0","2","65","trial1","naming","0","0","0","0","air filter","0","5020","1","White_Screen.jpg","3","114","CoolingFan_Engine.jpg","3"
"091219","11:35:16","20","20","5.0.14.0","2","66","trial1","naming","0","0","0","0","green crayon","0","5021","1","White_Screen.jpg","5","80","Crayon_Green.jpg","5"
"091219","11:35:16","20","20","5.0.14.0","2","67","trial1","naming","0","0","0","0","tooth scraper","0","4979","1","White_Screen.jpg","5","43","DentalProbe.jpg","5"
"091219","11:35:16","20","20","5.0.14.0","2","68","trial1","naming","0","0","0","0","stuffed bunny","0","5446","1","White_Screen.jpg","4","72","Toy_RabbitPlushie.jpg","4"
"091219","11:35:16","20","20","5.0.14.0","2","69","trial1","naming","0","0","0","0","tail light","0","4753","1","White_Screen.jpg","4","113","TailLight.jpg","4"
"091219","11:35:16","20","20","5.0.14.0","2","70","trial1","naming","0","0","0","0","gold bow","0","4254","1","White_Screen.jpg","5","5","GiftBow.jpg","5"
"091219","11:35:16","20","20","5.0.14.0","2","71","trial1","naming","0","0","0","0","camel","0","4880","1","White_Screen.jpg","8","115","Camel_Dromedary.jpg","8"
"091219","11:35:16","20","20","5.0.14.0","2","72","trial1","naming","0","0","0","0","bed","0","2788","1","White_Screen.jpg","4","63","Bed_QueenSize.jpg","4"
"091219","11:35:16","20","20","5.0.14.0","2","73","trial1","naming","0","0","0","0","Christmas house","0","8126","1","White_Screen.jpg","8","7","House_CeramicGingerbread.jpg","8"
"091219","11:35:16","20","20","5.0.14.0","2","74","trial1","naming","0","0","0","0","cinnamon roll","0","7498","1","White_Screen.jpg","4","76","Cinnamonroll.jpg","4"
"091219","11:35:16","20","20","5.0.14.0","2","75","trial1","naming","0","0","0","0","tooth ","0","10000","1","White_Screen.jpg","10","64","SelfieStick.jpg","10"
"091219","11:35:16","20","20","5.0.14.0","2","76","trial1","naming","0","0","0","0","romaine lettuce","0","7160","1","White_Screen.jpg","7","145","Lettuce_GreenLeaf.jpg","7"
"091219","11:35:16","20","20","5.0.14.0","2","77","trial1","naming","0","0","0","0","squash","0","3946","1","White_Screen.jpg","6","47","Squash_Butternut.jpg","6"
"091219","11:35:16","20","20","5.0.14.0","2","78","trial1","naming","0","0","0","0","hook","0","5602","1","White_Screen.jpg","3","14","Carabiner_Orange.jpg","3"
"091219","11:35:16","20","20","5.0.14.0","2","79","trial1","naming","0","0","0","0","car jack","0","4624","1","White_Screen.jpg","4","89","CarJack.jpg","4"
"091219","11:35:16","20","20","5.0.14.0","2","80","trial1","naming","0","0","0","0","blue lightbulb","0","5294","1","White_Screen.jpg","6","125","LightBulb_Blue.jpg","6"
"091219","11:35:16","20","20","5.0.14.0","2","81","trial1","naming","0","0","0","0","children's table","0","5933","1","White_Screen.jpg","4","56","Toy_TableSet.jpg","4"
"091219","11:35:16","20","20","5.0.14.0","2","82","trial1","naming","0","0","0","0","slide projector","0","8543","1","White_Screen.jpg","4","142","SlideViewer.jpg","4"
"091219","11:35:16","20","20","5.0.14.0","2","83","trial1","naming","0","0","0","0","tiles","0","4914","1","White_Screen.jpg","5","144","FloorTile.jpg","5"
"091219","11:35:16","20","20","5.0.14.0","2","84","trial1","naming","0","0","0","0","walnut","0","3182","1","White_Screen.jpg","3","130","Nuts_Walnut.jpg","3"
"091219","11:35:16","20","20","5.0.14.0","2","85","trial1","naming","0","0","0","0","pulley","0","3617","1","White_Screen.jpg","4","99","PulleyWooden.jpg","4"
"091219","11:35:16","20","20","5.0.14.0","2","86","trial1","naming","0","0","0","0","Oscar","0","3499","1","White_Screen.jpg","4","71","Trophy.jpg","4"
"091219","11:35:16","20","20","5.0.14.0","2","87","trial1","naming","0","0","0","0","glass jar","0","3644","1","White_Screen.jpg","3","136","Jar_Empty.jpg","3"
"091219","11:35:16","20","20","5.0.14.0","2","88","trial1","naming","0","0","0","0","aerosol spray","0","6492","1","White_Screen.jpg","6","73","Bottle_CosmeticSpray.jpg","6"
"091219","11:35:16","20","20","5.0.14.0","2","89","trial1","naming","0","0","0","0","paper towels","0","5158","1","White_Screen.jpg","6","128","PaperTowel_Brown.jpg","6"
"091219","11:35:16","20","20","5.0.14.0","2","90","trial1","naming","0","0","0","0","mailbox","0","6870","1","White_Screen.jpg","4","140","Mailbox_Community.jpg","4"
"091219","11:35:16","20","20","5.0.14.0","2","91","trial1","naming","0","0","0","0","eye chart","0","3035","1","White_Screen.jpg","6","42","EyeChart.jpg","6"
"091219","11:35:16","20","20","5.0.14.0","2","92","trial1","naming","0","0","0","0","arm exerciser","0","7926","1","White_Screen.jpg","5","35","Exercise_Stretch.jpg","5"
"091219","11:35:16","20","20","5.0.14.0","2","93","trial1","naming","0","0","0","0","dart","0","2662","1","White_Screen.jpg","6","2","Dart.jpg","6"
"091219","11:35:16","20","20","5.0.14.0","2","94","trial1","naming","0","0","0","0","crown","0","2908","1","White_Screen.jpg","10","22","Crown.jpg","10"
"091219","11:35:16","20","20","5.0.14.0","2","95","trial1","naming","0","0","0","0","broccoli","0","3443","1","White_Screen.jpg","4","150","Broccoli.jpg","4"
"091219","11:35:16","20","20","5.0.14.0","2","96","trial1","naming","0","0","0","0","chisle","0","5920","1","White_Screen.jpg","6","20","Pickaxe.jpg","6"
"091219","11:35:16","20","20","5.0.14.0","2","97","trial1","naming","0","0","0","0","binoculars","0","3881","1","White_Screen.jpg","9","120","Binoculars.jpg","9"
"091219","11:35:16","20","20","5.0.14.0","2","98","trial1","naming","0","0","0","0","candy","0","4682","1","White_Screen.jpg","5","39","Candy_Chocolate.jpg","5"
"091219","11:35:16","20","20","5.0.14.0","2","99","trial1","naming","0","0","0","0","Christmas stocking","0","5673","1","White_Screen.jpg","4","28","StockingChristmas.jpg","4"
"091219","11:35:16","20","20","5.0.14.0","2","100","trial1","naming","0","0","0","0","rain boot","0","3480","1","White_Screen.jpg","6","55","Boot_Rain.jpg","6"
"091219","11:35:16","20","20","5.0.14.0","2","101","trial1","naming","0","0","0","0","jewelry box","0","4143","1","White_Screen.jpg","3","109","Box_Jewellery.jpg","3"
"091219","11:35:16","20","20","5.0.14.0","2","103","trial1","naming","0","0","0","0","hair pick","0","3335","1","White_Screen.jpg","4","36","Comb.jpg","4"
"091219","11:35:16","20","20","5.0.14.0","2","104","trial1","naming","0","0","0","0","silverware","0","4248","1","White_Screen.jpg","4","38","Box_Cutlery.jpg","4"
"091219","11:35:16","20","20","5.0.14.0","2","105","trial1","naming","0","0","0","0","porcelain horse","0","7076","1","White_Screen.jpg","3","46","Statue_Horse.jpg","3"
"091219","11:35:16","20","20","5.0.14.0","2","106","trial1","naming","0","0","0","0","tube","0","5674","1","White_Screen.jpg","7","91","Tube_Paint.jpg","7"
"091219","11:35:16","20","20","5.0.14.0","2","107","trial1","naming","0","0","0","0","mixer","0","7032","1","White_Screen.jpg","5","126","Beater_Electric.jpg","5"
"091219","11:35:16","20","20","5.0.14.0","2","108","trial1","naming","0","0","0","0","eight ball","0","4395","1","White_Screen.jpg","4","87","Ball_8.jpg","4"
"091219","11:35:16","20","20","5.0.14.0","2","109","trial1","naming","0","0","0","0","beer taster","0","5447","1","White_Screen.jpg","4","95","ShotGlassTray.jpg","4"
"091219","11:35:16","20","20","5.0.14.0","2","110","trial1","naming","0","0","0","0","deck of cards","0","4743","1","White_Screen.jpg","3","54","Card_Deck.jpg","3"
"091219","11:35:16","20","20","5.0.14.0","2","111","trial1","naming","0","0","0","0","spotted ray","0","5641","1","White_Screen.jpg","4","68","Stingray.jpg","4"
"091219","11:35:16","20","20","5.0.14.0","2","112","trial1","naming","0","0","0","0","eye glasses","0","4403","1","White_Screen.jpg","6","131","Glasses_Reading.jpg","6"
"091219","11:35:16","20","20","5.0.14.0","2","113","trial1","naming","0","0","0","0","backspace key","0","5313","1","White_Screen.jpg","6","70","ComputerKeyboard_Backspace.jpg","6"
"091219","11:35:16","20","20","5.0.14.0","2","114","trial1","naming","0","0","0","0","pasta","0","5297","1","White_Screen.jpg","3","137","Bowl_Pasta.jpg","3"
"091219","11:35:16","20","20","5.0.14.0","2","115","trial1","naming","0","0","0","0","transformer toy","0","5594","1","White_Screen.jpg","6","133","Toy_RobotTransformer.jpg","6"
"091219","11:35:16","20","20","5.0.14.0","2","116","trial1","naming","0","0","0","0","mixer","0","5854","1","White_Screen.jpg","6","100","CoffeeGrinder.jpg","6"
"091219","11:35:16","20","20","5.0.14.0","2","117","trial1","naming","0","0","0","0","pen","0","3074","1","White_Screen.jpg","6","15","Pen_Ballpoint.jpg","6"
"091219","11:35:16","20","20","5.0.14.0","2","118","trial1","naming","0","0","0","0","chalkboard","0","3894","1","White_Screen.jpg","7","34","Blackboard.jpg","7"
"091219","11:35:16","20","20","5.0.14.0","2","119","trial1","naming","0","0","0","0","fishing spear","0","5764","1","White_Screen.jpg","7","57","JoustingSpear.jpg","7"
"091219","11:35:16","20","20","5.0.14.0","2","120","trial1","naming","0","0","0","0","out house","0","5813","1","White_Screen.jpg","4","6","PortaPotty.jpg","4"
"091219","11:35:16","20","20","5.0.14.0","2","121","trial1","naming","0","0","0","0","toy shovel","0","3643","1","White_Screen.jpg","4","4","Shovel_Sandbox.jpg","4"
"091219","11:35:16","20","20","5.0.14.0","2","122","trial1","naming","0","0","0","0","finish flag","0","6752","1","White_Screen.jpg","5","101","Flags_CheckeredRacing.jpg","5"
"091219","11:35:16","20","20","5.0.14.0","2","123","trial1","naming","0","0","0","0","tulip","0","4279","1","White_Screen.jpg","3","49","Flower_Tulip.jpg","3"
"091219","11:35:16","20","20","5.0.14.0","2","124","trial1","naming","0","0","0","0","compass","0","4294","1","White_Screen.jpg","8","17","DrawingCompass.jpg","8"
"091219","11:35:16","20","20","5.0.14.0","2","125","trial1","naming","0","0","0","0","wood flute","0","5874","1","White_Screen.jpg","3","67","Clave.jpg","3"
"091219","11:35:16","20","20","5.0.14.0","2","126","trial1","naming","0","0","0","0","chopsticks","0","4700","1","White_Screen.jpg","6","149","Chopsticks.jpg","6"
"091219","11:35:16","20","20","5.0.14.0","2","127","trial1","naming","0","0","0","0","acorn","0","2988","1","White_Screen.jpg","4","132","Acorn.jpg","4"
"091219","11:35:16","20","20","5.0.14.0","2","128","trial1","naming","0","0","0","0","glass jar","0","7190","1","White_Screen.jpg","9","50","Jar_Capers.jpg","9"
"091219","11:35:16","20","20","5.0.14.0","2","129","trial1","naming","0","0","0","0","pliers","0","3004","1","White_Screen.jpg","4","37","Pliers_SlipJoint.jpg","4"
"091219","11:35:16","20","20","5.0.14.0","2","130","trial1","naming","0","0","0","0","old car","0","5122","1","White_Screen.jpg","5","119","Car_Vintage.jpg","5"
"091219","11:35:16","20","20","5.0.14.0","2","131","trial1","naming","0","0","0","0","toy worker","0","6735","1","White_Screen.jpg","7","121","Toy_FigurineEngineer.jpg","7"
"091219","11:35:16","20","20","5.0.14.0","2","132","trial1","naming","0","0","0","0","wood box","0","3079","1","White_Screen.jpg","5","85","Box_WoodenOpen.jpg","5"
"091219","11:35:16","20","20","5.0.14.0","2","133","trial1","naming","0","0","0","0","flamingo","0","4011","1","White_Screen.jpg","3","93","Flamingo_Real.jpg","3"
"091219","11:35:16","20","20","5.0.14.0","2","134","trial1","naming","0","0","0","0","necklace","0","5390","1","White_Screen.jpg","5","94","Necklace_Black.jpg","5"
"091219","11:35:16","20","20","5.0.14.0","2","135","trial1","naming","0","0","0","0","radish","0","3795","1","White_Screen.jpg","7","123","Radish.jpg","7"
"091219","11:35:16","20","20","5.0.14.0","2","136","trial1","naming","0","0","0","0","purse","0","5531","1","White_Screen.jpg","3","40","Handbag.jpg","3"
"091219","11:35:16","20","20","5.0.14.0","2","137","trial1","naming","0","0","0","0","microwave","0","4399","1","White_Screen.jpg","3","58","Microwave.jpg","3"
"091219","11:35:16","20","20","5.0.14.0","2","138","trial1","naming","0","0","0","0","muffin tray","0","6669","1","White_Screen.jpg","3","52","Tray_Muffin.jpg","3"
"091219","11:35:16","20","20","5.0.14.0","2","139","trial1","naming","0","0","0","0","cheese grater","0","5900","1","White_Screen.jpg","4","8","Cheesegrater_Box.jpg","4"
"091219","11:35:16","20","20","5.0.14.0","2","140","trial1","naming","0","0","0","0","tube pasta","0","4891","1","White_Screen.jpg","8","23","Pasta_Penne.jpg","8"
"091219","11:35:16","20","20","5.0.14.0","2","141","trial1","naming","0","0","0","0","garden shed","0","4732","1","White_Screen.jpg","4","27","Shed.jpg","4"
"091219","11:35:16","20","20","5.0.14.0","2","142","trial1","naming","0","0","0","0","men's bag","0","7931","1","White_Screen.jpg","4","107","Briefcase_Leather.jpg","4"
"091219","11:35:16","20","20","5.0.14.0","2","143","trial1","naming","0","0","0","0","purse","0","4219","1","White_Screen.jpg","3","103","Purse.jpg","3"
"091219","11:35:16","20","20","5.0.14.0","2","144","trial1","naming","0","0","0","0","cup","0","4750","1","White_Screen.jpg","5","86","Glass_Wine.jpg","5"
"091219","11:35:16","20","20","5.0.14.0","2","145","trial1","naming","0","0","0","0","drink sticks","0","6239","1","White_Screen.jpg","5","77","Stick_Stirring.jpg","5"
"091219","11:35:16","20","20","5.0.14.0","2","146","trial1","naming","0","0","0","0","Christmas ball","0","6230","1","White_Screen.jpg","4","90","Decoration_ChristmasRed.jpg","4"
"091219","11:35:16","20","20","5.0.14.0","2","147","trial1","naming","0","0","0","0","squid","0","4454","1","White_Screen.jpg","4","112","Squid_Orange.jpg","4"
"091219","11:35:16","20","20","5.0.14.0","2","148","trial1","naming","0","0","0","0","fishing hook","0","4665","1","White_Screen.jpg","8","84","Hook_Double.jpg","8"
"091219","11:35:16","20","20","5.0.14.0","2","149","trial1","naming","0","0","0","0","porcelain ballerina","0","7328","1","White_Screen.jpg","5","148","Figurine_Ballerina.jpg","5"
"091219","11:35:16","20","20","5.0.14.0","2","150","trial1","naming","0","0","0","0","metal jar","0","5711","1","White_Screen.jpg","4","143","Can_MilkAntique.jpg","4"
"091219","11:35:16","20","20","5.0.14.0","2","151","trial1","naming","0","0","0","0","jewel","0","10000","1","White_Screen.jpg","5","25","CameoPortrait.jpg","5"
"091219","11:35:16","20","20","5.0.14.0","2","152","trial1","naming","0","0","0","0","bologna sandwich","0","7067","1","White_Screen.jpg","4","59","Sandwich_Ham.jpg","4"
"091219","11:35:16","20","20","5.0.14.0","2","154","trial1","naming","0","0","0","0","flamingo","0","5528","1","White_Screen.jpg","4","93","Flamingo_Real.jpg","4"
"091219","11:35:16","20","20","5.0.14.0","2","155","trial1","naming","0","0","0","0","paper towels","0","3352","1","White_Screen.jpg","5","128","PaperTowel_Brown.jpg","5"
"091219","11:35:16","20","20","5.0.14.0","2","156","trial1","naming","0","0","0","0","masher","0","6834","1","White_Screen.jpg","4","29","MortarPestle_WhiteMarble.jpg","4"
"091219","11:35:16","20","20","5.0.14.0","2","157","trial1","naming","0","0","0","0","clothes dryer","0","4030","1","White_Screen.jpg","4","88","ClothesDryingRack.jpg","4"
"091219","11:35:16","20","20","5.0.14.0","2","158","trial1","naming","0","0","0","0","tiles","0","3046","1","White_Screen.jpg","3","144","FloorTile.jpg","3"
"091219","11:35:16","20","20","5.0.14.0","2","159","trial1","naming","0","0","0","0","camel","0","2604","1","White_Screen.jpg","7","115","Camel_Dromedary.jpg","7"
"091219","11:35:16","20","20","5.0.14.0","2","160","trial1","naming","0","0","0","0","Christmas stocking","0","5041","1","White_Screen.jpg","5","28","StockingChristmas.jpg","5"
"091219","11:35:16","20","20","5.0.14.0","2","161","trial1","naming","0","0","0","0","round table","0","3076","1","White_Screen.jpg","4","44","Table_AntiqueWooden.jpg","4"
"091219","11:35:16","20","20","5.0.14.0","2","162","trial1","naming","0","0","0","0","Bald Eagle","0","3821","1","White_Screen.jpg","8","79","Bird_Eagle.jpg","8"
"091219","11:35:16","20","20","5.0.14.0","2","163","trial1","naming","0","0","0","0","wooden flute","0","3447","1","White_Screen.jpg","6","67","Clave.jpg","6"
"091219","11:35:16","20","20","5.0.14.0","2","164","trial1","naming","0","0","0","0","mailbox","0","3686","1","White_Screen.jpg","3","140","Mailbox_Community.jpg","3"
"091219","11:35:16","20","20","5.0.14.0","2","165","trial1","naming","0","0","0","0","microwave","0","3246","1","White_Screen.jpg","5","58","Microwave.jpg","5"
"091219","11:35:16","20","20","5.0.14.0","2","166","trial1","naming","0","0","0","0","pulley wheel","0","3708","1","White_Screen.jpg","5","99","PulleyWooden.jpg","5"
"091219","11:35:16","20","20","5.0.14.0","2","167","trial1","naming","0","0","0","0","jewelry box","0","3864","1","White_Screen.jpg","5","109","Box_Jewellery.jpg","5"
"091219","11:35:16","20","20","5.0.14.0","2","168","trial1","naming","0","0","0","0","construction worker","0","7046","1","White_Screen.jpg","3","121","Toy_FigurineEngineer.jpg","3"
"091219","11:35:16","20","20","5.0.14.0","2","169","trial1","naming","0","0","0","0","pot of coffee","0","3916","1","White_Screen.jpg","4","139","CoffeePot.jpg","4"
"091219","11:35:16","20","20","5.0.14.0","2","170","trial1","naming","0","0","0","0","calculator","0","4217","1","White_Screen.jpg","4","135","Calculator.jpg","4"
"091219","11:35:16","20","20","5.0.14.0","2","171","trial1","naming","0","0","0","0","porcelain horse","0","6205","1","White_Screen.jpg","8","46","Statue_Horse.jpg","8"
"091219","11:35:16","20","20","5.0.14.0","2","172","trial1","naming","0","0","0","0","blue lightbulb","0","5361","1","White_Screen.jpg","7","125","LightBulb_Blue.jpg","7"
"091219","11:35:16","20","20","5.0.14.0","2","173","trial1","naming","0","0","0","0","coil","0","5080","1","White_Screen.jpg","4","108","OvenElement.jpg","4"
"091219","11:35:16","20","20","5.0.14.0","2","174","trial1","naming","0","0","0","0","wood bucket","0","3422","1","White_Screen.jpg","3","134","Bucket_WoodenDark.jpg","3"
"091219","11:35:16","20","20","5.0.14.0","2","175","trial1","naming","0","0","0","0","exercise machine","0","4430","1","White_Screen.jpg","8","81","Exercise_Machine.jpg","8"
"091219","11:35:16","20","20","5.0.14.0","2","176","trial1","naming","0","0","0","0","disco ball","0","3548","1","White_Screen.jpg","4","13","Ball_Disco.jpg","4"
