"date","time","group","subject","build","blocknum","trialnum","blockcode","trialcode","pretrialpause","posttrialpause","trialduration","trialtimeout","response","correct","latency","stimulusnumber1","stimulusitem1","stimulusonset1","stimulusnumber2","stimulusitem2","stimulusonset2"
"091219","17:34:20","13","13","5.0.14.0","2","1","trial1","naming","0","0","0","0","truck","0","10000","1","White_Screen.jpg","49","44","Van.jpg","49"
"091219","17:34:20","13","13","5.0.14.0","2","2","trial1","naming","0","0","0","0","shutterEnter Name","0","5795","1","White_Screen.jpg","7","189","MovieSlate.jpg","7"
"091219","17:34:20","13","13","5.0.14.0","2","3","trial1","naming","0","0","0","0","diceEnter Name","0","3244","1","White_Screen.jpg","6","99","Tetrahedron.jpg","6"
"091219","17:34:20","13","13","5.0.14.0","2","4","trial1","naming","0","0","0","0","screw knobEnter Name","0","8250","1","White_Screen.jpg","6","185","CarLighter.jpg","6"
"091219","17:34:20","13","13","5.0.14.0","2","5","trial1","naming","0","0","0","0","shoeEnter Name","0","3088","1","White_Screen.jpg","7","76","Shoe_Men.jpg","7"
"091219","17:34:20","13","13","5.0.14.0","2","6","trial1","naming","0","0","0","0","hanwhiskEnter Name","0","10000","1","White_Screen.jpg","6","23","Mixer_Hand.jpg","6"
"091219","17:34:20","13","13","5.0.14.0","2","7","trial1","naming","0","0","0","0"," Enter Name","0","518","1","White_Screen.jpg","6","177","ElectricOutlet.jpg","6"
"091219","17:34:20","13","13","5.0.14.0","2","8","trial1","naming","0","0","0","0","fruitEnter Name","0","5215","1","White_Screen.jpg","6","24","Cranberry.jpg","6"
"091219","17:34:20","13","13","5.0.14.0","2","9","trial1","naming","0","0","0","0","chocolateEnter Name","0","4254","1","White_Screen.jpg","6","173","Egg_Chocolate.jpg","6"
"091219","17:34:20","13","13","5.0.14.0","2","10","trial1","naming","0","0","0","0","gameEnter Name","0","4252","1","White_Screen.jpg","6","56","Abacus.jpg","6"
"091219","17:34:20","13","13","5.0.14.0","2","11","trial1","naming","0","0","0","0","fish hookEnter Name","0","7473","1","White_Screen.jpg","6","41","Hook_Fish.jpg","6"
"091219","17:34:20","13","13","5.0.14.0","2","12","trial1","naming","0","0","0","0","mouse trapEnter Name","0","4967","1","White_Screen.jpg","6","105","Mousetrap.jpg","6"
"091219","17:34:20","13","13","5.0.14.0","2","13","trial1","naming","0","0","0","0","medical kitEnter Name","0","5895","1","White_Screen.jpg","6","84","Box_FirstAidOpen.jpg","6"
"091219","17:34:20","13","13","5.0.14.0","2","14","trial1","naming","0","0","0","0","sealEnter Name","0","8780","1","White_Screen.jpg","7","83","Seal_animal.jpg","7"
"091219","17:34:20","13","13","5.0.14.0","2","15","trial1","naming","0","0","0","0","coneEnter Name","0","4446","1","White_Screen.jpg","6","141","Hat_Party.jpg","6"
"091219","17:34:20","13","13","5.0.14.0","2","16","trial1","naming","0","0","0","0","windowEnter Name","0","3380","1","White_Screen.jpg","7","181","Window.jpg","7"
"091219","17:34:20","13","13","5.0.14.0","2","17","trial1","naming","0","0","0","0","cigEnter Name","0","4373","1","White_Screen.jpg","6","2","Ashtray_Cigarettes.jpg","6"
"091219","17:34:20","13","13","5.0.14.0","2","18","trial1","naming","0","0","0","0","Enter Name","0","126","1","White_Screen.jpg","6","148","OnionRed.jpg","6"
"091219","17:34:20","13","13","5.0.14.0","2","19","trial1","naming","0","0","0","0","honeyEnter Name","0","6583","1","White_Screen.jpg","6","192","AmberWithMosquito.jpg","6"
"091219","17:34:20","13","13","5.0.14.0","2","20","trial1","naming","0","0","0","0","barEnter Name","0","3168","1","White_Screen.jpg","6","100","AlcoholBar.jpg","6"
"091219","17:34:20","13","13","5.0.14.0","2","21","trial1","naming","0","0","0","0","canEnter Name","0","3704","1","White_Screen.jpg","7","97","Cannister_GasVintage.jpg","7"
"091219","17:34:20","13","13","5.0.14.0","2","22","trial1","naming","0","0","0","0","brickEnter Name","0","3683","1","White_Screen.jpg","6","128","CinderBlock.jpg","6"
"091219","17:34:20","13","13","5.0.14.0","2","23","trial1","naming","0","0","0","0","deep fryerEnter Name","0","5039","1","White_Screen.jpg","6","154","DeepFryer.jpg","6"
"091219","17:34:20","13","13","5.0.14.0","2","24","trial1","naming","0","0","0","0","lettersEnter Name","0","4157","1","White_Screen.jpg","6","153","LetterMail.jpg","6"
"091219","17:34:20","13","13","5.0.14.0","2","25","trial1","naming","0","0","0","0","motor cycleEnter Name","0","8191","1","White_Screen.jpg","6","157","AllTerrain.jpg","6"
"091219","17:34:20","13","13","5.0.14.0","2","26","trial1","naming","0","0","0","0","sieveEnter Name","0","5304","1","White_Screen.jpg","6","48","Steamer.jpg","6"
"091219","17:34:20","13","13","5.0.14.0","2","27","trial1","naming","0","0","0","0","garlic crushEnter Name","0","7420","1","White_Screen.jpg","6","79","FlintIgniter.jpg","6"
"091219","17:34:20","13","13","5.0.14.0","2","28","trial1","naming","0","0","0","0","safeEnter Name","0","6628","1","White_Screen.jpg","6","109","FuseBox.jpg","6"
"091219","17:34:20","13","13","5.0.14.0","2","29","trial1","naming","0","0","0","0","boatEnter Name","0","3371","1","White_Screen.jpg","6","36","Boat_Colourful.jpg","6"
"091219","17:34:20","13","13","5.0.14.0","2","30","trial1","naming","0","0","0","0","fenceEnter Name","0","5236","1","White_Screen.jpg","6","152","Fence_Wooden.jpg","6"
"091219","17:34:20","13","13","5.0.14.0","2","31","trial1","naming","0","0","0","0","birdEnter Name","0","3458","1","White_Screen.jpg","7","176","Bird_Toucan.jpg","7"
"091219","17:34:20","13","13","5.0.14.0","2","32","trial1","naming","0","0","0","0","bunEnter Name","0","3439","1","White_Screen.jpg","7","27","Bread_Melon.jpg","7"
"091219","17:34:20","13","13","5.0.14.0","2","33","trial1","naming","0","0","0","0","water gunEnter Name","0","4645","1","White_Screen.jpg","7","26","Gun_Nerf.jpg","7"
"091219","17:34:20","13","13","5.0.14.0","2","34","trial1","naming","0","0","0","0","dog boneEnter Name","0","4715","1","White_Screen.jpg","6","183","DogToy.jpg","6"
"091219","17:34:20","13","13","5.0.14.0","2","35","trial1","naming","0","0","0","0","dogEnter Name","0","2462","1","White_Screen.jpg","6","9","Dog_SaintBernard.jpg","6"
"091219","17:34:20","13","13","5.0.14.0","2","36","trial1","naming","0","0","0","0","potatoEnter Name","0","3907","1","White_Screen.jpg","6","112","Potato.jpg","6"
"091219","17:34:20","13","13","5.0.14.0","2","37","trial1","naming","0","0","0","0","chairsEnter Name","0","4078","1","White_Screen.jpg","7","199","Chairs_Stacked.jpg","7"
"091219","17:34:20","13","13","5.0.14.0","2","38","trial1","naming","0","0","0","0","pyriamdEnter Name","0","6659","1","White_Screen.jpg","7","179","PyramidWooden.jpg","7"
"091219","17:34:20","13","13","5.0.14.0","2","39","trial1","naming","0","0","0","0","olivesEnter Name","0","4129","1","White_Screen.jpg","6","13","Olives.jpg","6"
"091219","17:34:20","13","13","5.0.14.0","2","40","trial1","naming","0","0","0","0","helmetEnter Name","0","3300","1","White_Screen.jpg","6","47","Helmet_Bicycle.jpg","6"
"091219","17:34:20","13","13","5.0.14.0","2","41","trial1","naming","0","0","0","0","grapesEnter Name","0","3807","1","White_Screen.jpg","6","126","Currants.jpg","6"
"091219","17:34:20","13","13","5.0.14.0","2","42","trial1","naming","0","0","0","0","Enter Name","0","4150","1","White_Screen.jpg","6","7","Maraca.jpg","6"
"091219","17:34:20","13","13","5.0.14.0","2","43","trial1","naming","0","0","0","0","cucumberEnter Name","0","4176","1","White_Screen.jpg","6","119","Cucumber.jpg","6"
"091219","17:34:20","13","13","5.0.14.0","2","44","trial1","naming","0","0","0","0","water jetEnter Name","0","5712","1","White_Screen.jpg","7","107","Torpedo.jpg","7"
"091219","17:34:20","13","13","5.0.14.0","2","45","trial1","naming","0","0","0","0","ice cubesEnter Name","0","4084","1","White_Screen.jpg","6","194","IceCubes.jpg","6"
"091219","17:34:20","13","13","5.0.14.0","2","46","trial1","naming","0","0","0","0","chess boardEnter Name","0","5480","1","White_Screen.jpg","6","54","Boardgame_Checkers.jpg","6"
"091219","17:34:20","13","13","5.0.14.0","2","47","trial1","naming","0","0","0","0","graterEnter Name","0","3774","1","White_Screen.jpg","6","129","Cheesegrater_Handheld.jpg","6"
"091219","17:34:20","13","13","5.0.14.0","2","48","trial1","naming","0","0","0","0","golf Enter Name","0","7134","1","White_Screen.jpg","6","29","Golf_Bag.jpg","6"
"091219","17:34:20","13","13","5.0.14.0","2","49","trial1","naming","0","0","0","0","lemonsEnter Name","0","3361","1","White_Screen.jpg","6","90","Bowl_Lemons.jpg","6"
"091219","17:34:20","13","13","5.0.14.0","2","50","trial1","naming","0","0","0","0","milk shakeEnter Name","0","4354","1","White_Screen.jpg","7","104","Milkshake_StrawberryStraw.jpg","7"
"091219","17:34:20","13","13","5.0.14.0","2","52","trial1","naming","0","0","0","0","crabEnter Name","0","3155","1","White_Screen.jpg","7","15","Lobster.jpg","7"
"091219","17:34:20","13","13","5.0.14.0","2","53","trial1","naming","0","0","0","0","casinoEnter Name","0","4772","1","White_Screen.jpg","6","170","Table_Poker.jpg","6"
"091219","17:34:20","13","13","5.0.14.0","2","54","trial1","naming","0","0","0","0","fluteEnter Name","0","3524","1","White_Screen.jpg","7","184","Clarinet.jpg","7"
"091219","17:34:20","13","13","5.0.14.0","2","55","trial1","naming","0","0","0","0","peanutsEnter Name","0","4128","1","White_Screen.jpg","6","182","Nuts_PeanutsPeeled.jpg","6"
"091219","17:34:20","13","13","5.0.14.0","2","56","trial1","naming","0","0","0","0","brakeEnter Name","0","5826","1","White_Screen.jpg","7","67","BicycleBrake.jpg","7"
"091219","17:34:20","13","13","5.0.14.0","2","57","trial1","naming","0","0","0","0","masherEnter Name","0","4073","1","White_Screen.jpg","6","4","PotatoMasher_Grate.jpg","6"
"091219","17:34:20","13","13","5.0.14.0","2","58","trial1","naming","0","0","0","0","spoonEnter Name","0","5342","1","White_Screen.jpg","6","168","Spoon_Serving.jpg","6"
"091219","17:34:20","13","13","5.0.14.0","2","59","trial1","naming","0","0","0","0","drumsEnter Name","0","4320","1","White_Screen.jpg","6","72","Drum_Set.jpg","6"
"091219","17:34:20","13","13","5.0.14.0","2","60","trial1","naming","0","0","0","0","pyriamdEnter Name","0","4771","1","White_Screen.jpg","7","188","Pyramid.jpg","7"
"091219","17:34:20","13","13","5.0.14.0","2","61","trial1","naming","0","0","0","0","toasterEnter Name","0","3916","1","White_Screen.jpg","6","139","Toaster_MetalSleek.jpg","6"
"091219","17:34:20","13","13","5.0.14.0","2","62","trial1","naming","0","0","0","0","cymbalEnter Name","0","6158","1","White_Screen.jpg","7","74","Bugle.jpg","7"
"091219","17:34:20","13","13","5.0.14.0","2","63","trial1","naming","0","0","0","0","screwEnter Name","0","6993","1","White_Screen.jpg","6","171","Pliers_NeedleNose.jpg","6"
"091219","17:34:20","13","13","5.0.14.0","2","64","trial1","naming","0","0","0","0","guagenEnter Name","0","8329","1","White_Screen.jpg","7","21","Iguana.jpg","7"
"091219","17:34:20","13","13","5.0.14.0","2","65","trial1","naming","0","0","0","0","lightEnter Name","0","5013","1","White_Screen.jpg","7","120","Light_Studio.jpg","7"
"091219","17:34:20","13","13","5.0.14.0","2","66","trial1","naming","0","0","0","0","smasherEnter Name","0","6630","1","White_Screen.jpg","6","65","BumperCar.jpg","6"
"091219","17:34:20","13","13","5.0.14.0","2","67","trial1","naming","0","0","0","0","tumblerEnter Name","0","6093","1","White_Screen.jpg","6","32","Cup_sippy.jpg","6"
"091219","17:34:20","13","13","5.0.14.0","2","68","trial1","naming","0","0","0","0","plateEnter Name","0","5793","1","White_Screen.jpg","7","118","Plate_Ceramic.jpg","7"
"091219","17:34:20","13","13","5.0.14.0","2","69","trial1","naming","0","0","0","0","gingerEnter Name","0","3530","1","White_Screen.jpg","6","22","Ginger.jpg","6"
"091219","17:34:20","13","13","5.0.14.0","2","70","trial1","naming","0","0","0","0","forkEnter Name","0","3109","1","White_Screen.jpg","6","166","Fork_Fondue.jpg","6"
"091219","17:34:20","13","13","5.0.14.0","2","71","trial1","naming","0","0","0","0","the worldEnter Name","0","4095","1","White_Screen.jpg","7","40","Earth_Planet.jpg","7"
"091219","17:34:20","13","13","5.0.14.0","2","72","trial1","naming","0","0","0","0","rakeEnter Name","0","3260","1","White_Screen.jpg","6","130","Toy_SandRake.jpg","6"
"091219","17:34:20","13","13","5.0.14.0","2","73","trial1","naming","0","0","0","0","lightEnter Name","0","3817","1","White_Screen.jpg","6","121","BicycleReflector.jpg","6"
"091219","17:34:20","13","13","5.0.14.0","2","74","trial1","naming","0","0","0","0","hEnter Name","0","10000","1","White_Screen.jpg","6","62","Protractor.jpg","6"
"091219","17:34:20","13","13","5.0.14.0","2","75","trial1","naming","0","0","0","0","toffeeEnter Name","0","5105","1","White_Screen.jpg","6","18","Candy_Lozenge.jpg","6"
"091219","17:34:20","13","13","5.0.14.0","2","76","trial1","naming","0","0","0","0","teddy bearEnter Name","0","5748","1","White_Screen.jpg","6","10","Toy_BearBrownPlushie.jpg","6"
"091219","17:34:20","13","13","5.0.14.0","2","77","trial1","naming","0","0","0","0","sushiEnter Name","0","4575","1","White_Screen.jpg","6","77","Sushi.jpg","6"
"091219","17:34:20","13","13","5.0.14.0","2","78","trial1","naming","0","0","0","0","bird houseEnter Name","0","5000","1","White_Screen.jpg","6","75","Birdhouse.jpg","6"
"091219","17:34:20","13","13","5.0.14.0","2","79","trial1","naming","0","0","0","0","bikeEnter Name","0","3103","1","White_Screen.jpg","7","180","Bicycle_Kids.jpg","7"
"091219","17:34:20","13","13","5.0.14.0","2","80","trial1","naming","0","0","0","0","petrol hubEnter Name","0","5834","1","White_Screen.jpg","6","160","GasStation.jpg","6"
"091219","17:34:20","13","13","5.0.14.0","2","81","trial1","naming","0","0","0","0","stairsEnter Name","0","5697","1","White_Screen.jpg","6","58","Staircase_Curving.jpg","6"
"091219","17:34:20","13","13","5.0.14.0","2","82","trial1","naming","0","0","0","0","heaterEnter Name","0","7485","1","White_Screen.jpg","6","163","Heater_Infrared.jpg","6"
"091219","17:34:20","13","13","5.0.14.0","2","83","trial1","naming","0","0","0","0","doctors bagEnter Name","0","5850","1","White_Screen.jpg","6","187","Bag_Doctor.jpg","6"
"091219","17:34:20","13","13","5.0.14.0","2","84","trial1","naming","0","0","0","0","laptop bagEnter Name","0","7240","1","White_Screen.jpg","6","63","Bag_Computer.jpg","6"
"091219","17:34:20","13","13","5.0.14.0","2","85","trial1","naming","0","0","0","0","batteryEnter Name","0","3847","1","White_Screen.jpg","6","132","Battery_AA.jpg","6"
"091219","17:34:20","13","13","5.0.14.0","2","86","trial1","naming","0","0","0","0","puppet shoEnter Name","0","8821","1","White_Screen.jpg","6","61","PuppetTheatre_BlueRed.jpg","6"
"091219","17:34:20","13","13","5.0.14.0","2","87","trial1","naming","0","0","0","0","tinned milkEnter Name","0","7157","1","White_Screen.jpg","7","5","Can_Milk.jpg","7"
"091219","17:34:20","13","13","5.0.14.0","2","88","trial1","naming","0","0","0","0","scissorsEnter Name","0","7456","1","White_Screen.jpg","6","43","HedgeShears.jpg","6"
"091219","17:34:20","13","13","5.0.14.0","2","89","trial1","naming","0","0","0","0","weaponEnter Name","0","8310","1","White_Screen.jpg","7","89","Gun_Bazooka.jpg","7"
"091219","17:34:20","13","13","5.0.14.0","2","90","trial1","naming","0","0","0","0","fruitEnter Name","0","6171","1","White_Screen.jpg","6","137","Fruit_Cactus.jpg","6"
"091219","17:34:20","13","13","5.0.14.0","2","91","trial1","naming","0","0","0","0","instrumentEnter Name","0","10000","1","White_Screen.jpg","6","17","Cymbals.jpg","6"
"091219","17:34:20","13","13","5.0.14.0","2","92","trial1","naming","0","0","0","0","Enter Name","0","62","1","White_Screen.jpg","7","161","Pillow_Heart.jpg","7"
"091219","17:34:20","13","13","5.0.14.0","2","93","trial1","naming","0","0","0","0","chainEnter Name","0","3970","1","White_Screen.jpg","6","159","MetalChain.jpg","6"
"091219","17:34:20","13","13","5.0.14.0","2","94","trial1","naming","0","0","0","0","alarmEnter Name","0","3356","1","White_Screen.jpg","6","59","Clock_Digital.jpg","6"
"091219","17:34:20","13","13","5.0.14.0","2","95","trial1","naming","0","0","0","0","signEnter Name","0","7733","1","White_Screen.jpg","6","156","Sign_Taxi.jpg","6"
"091219","17:34:20","13","13","5.0.14.0","2","96","trial1","naming","0","0","0","0","telescopeEnter Name","0","7992","1","White_Screen.jpg","7","186","OperaGlasses.jpg","7"
"091219","17:34:20","13","13","5.0.14.0","2","97","trial1","naming","0","0","0","0","swingEnter Name","0","4562","1","White_Screen.jpg","6","103","Swing_Child.jpg","6"
"091219","17:34:20","13","13","5.0.14.0","2","98","trial1","naming","0","0","0","0","chain sawEnter Name","0","4964","1","White_Screen.jpg","6","52","Chainsaw.jpg","6"
"091219","17:34:20","13","13","5.0.14.0","2","99","trial1","naming","0","0","0","0","stolEnter Name","0","6573","1","White_Screen.jpg","6","114","Stool_Metal.jpg","6"
"091219","17:34:20","13","13","5.0.14.0","2","100","trial1","naming","0","0","0","0","sheepEnter Name","0","6271","1","White_Screen.jpg","6","55","Toy_LambPlushie.jpg","6"
"091219","17:34:20","13","13","5.0.14.0","2","101","trial1","naming","0","0","0","0","lightEnter Name","0","4709","1","White_Screen.jpg","6","162","LampPost_ThreeBulbs.jpg","6"
"091219","17:34:20","13","13","5.0.14.0","2","103","trial1","naming","0","0","0","0","lipsEnter Name","0","2968","1","White_Screen.jpg","7","92","Lips_Real.jpg","7"
"091219","17:34:20","13","13","5.0.14.0","2","104","trial1","naming","0","0","0","0","pancakesEnter Name","0","5266","1","White_Screen.jpg","6","111","Pancakes.jpg","6"
"091219","17:34:20","13","13","5.0.14.0","2","105","trial1","naming","0","0","0","0","funnelEnter Name","0","8527","1","White_Screen.jpg","6","134","Funnel.jpg","6"
"091219","17:34:20","13","13","5.0.14.0","2","106","trial1","naming","0","0","0","0","tuxedoEnter Name","0","7331","1","White_Screen.jpg","6","14","Tuxedo.jpg","6"
"091219","17:34:20","13","13","5.0.14.0","2","107","trial1","naming","0","0","0","0","phone Enter Name","0","7047","1","White_Screen.jpg","6","143","Phone_Military.jpg","6"
"091219","17:34:20","13","13","5.0.14.0","2","108","trial1","naming","0","0","0","0","chairEnter Name","0","4534","1","White_Screen.jpg","6","64","Chair_Office.jpg","6"
"091219","17:34:20","13","13","5.0.14.0","2","109","trial1","naming","0","0","0","0","dvdEnter Name","0","4098","1","White_Screen.jpg","6","136","DVDPlayer.jpg","6"
"091219","17:34:20","13","13","5.0.14.0","2","110","trial1","naming","0","0","0","0","water gunEnter Name","0","5997","1","White_Screen.jpg","6","91","WaterGun.jpg","6"
"091219","17:34:20","13","13","5.0.14.0","2","111","trial1","naming","0","0","0","0","milkshakeEnter Name","0","6454","1","White_Screen.jpg","6","34","Milkshake_Strawberry.jpg","6"
"091219","17:34:20","13","13","5.0.14.0","2","112","trial1","naming","0","0","0","0","usb harddirEnter Name","0","10000","1","White_Screen.jpg","6","169","USBKey.jpg","6"
"091219","17:34:20","13","13","5.0.14.0","2","113","trial1","naming","0","0","0","0","veEnter Name","0","1806","1","White_Screen.jpg","6","80","Light_Fixtures.jpg","6"
"091219","17:34:20","13","13","5.0.14.0","2","114","trial1","naming","0","0","0","0","dogEnter Name","0","2677","1","White_Screen.jpg","6","135","Dog_CockerSpaniel.jpg","6"
"091219","17:34:20","13","13","5.0.14.0","2","115","trial1","naming","0","0","0","0","stoolEnter Name","0","3489","1","White_Screen.jpg","6","31","Stool_Camping.jpg","6"
"091219","17:34:20","13","13","5.0.14.0","2","116","trial1","naming","0","0","0","0","meshEnter Name","0","3350","1","White_Screen.jpg","6","81","Foam_Accoustic.jpg","6"
"091219","17:34:20","13","13","5.0.14.0","2","117","trial1","naming","0","0","0","0","toyEnter Name","0","3871","1","White_Screen.jpg","6","138","Toy_ElephantPlastic.jpg","6"
"091219","17:34:20","13","13","5.0.14.0","2","118","trial1","naming","0","0","0","0","croissontEnter Name","0","6780","1","White_Screen.jpg","5","108","Croissant.jpg","5"
"091219","17:34:20","13","13","5.0.14.0","2","119","trial1","naming","0","0","0","0","sinkEnter Name","0","2765","1","White_Screen.jpg","6","102","Sink_Bathroom.jpg","6"
"091219","17:34:20","13","13","5.0.14.0","2","120","trial1","naming","0","0","0","0","tri-cycleEnter Name","0","6719","1","White_Screen.jpg","6","35","Tricycle.jpg","6"
"091219","17:34:20","13","13","5.0.14.0","2","121","trial1","naming","0","0","0","0","mattressEnter Name","0","4315","1","White_Screen.jpg","6","69","Mattress.jpg","6"
"091219","17:34:20","13","13","5.0.14.0","2","122","trial1","naming","0","0","0","0","gucamoleEnter Name","0","7134","1","White_Screen.jpg","6","20","Guacamole.jpg","6"
"091219","17:34:20","13","13","5.0.14.0","2","123","trial1","naming","0","0","0","0","tiaraEnter Name","0","4161","1","White_Screen.jpg","6","122","Tiara.jpg","6"
"091219","17:34:20","13","13","5.0.14.0","2","124","trial1","naming","0","0","0","0","footbballEnter Name","0","6706","1","White_Screen.jpg","7","123","Ball_Football.jpg","7"
"091219","17:34:20","13","13","5.0.14.0","2","125","trial1","naming","0","0","0","0","benchEnter Name","0","4999","1","White_Screen.jpg","7","86","Bench_Wooden.jpg","7"
"091219","17:34:20","13","13","5.0.14.0","2","126","trial1","naming","0","0","0","0","coffee makeEnter Name","0","6080","1","White_Screen.jpg","5","53","EspressoMachine.jpg","5"
"091219","17:34:20","13","13","5.0.14.0","2","127","trial1","naming","0","0","0","0","chess stucEnter Name","0","9614","1","White_Screen.jpg","5","68","ChessPiece_Bishop.jpg","5"
"091219","17:34:20","13","13","5.0.14.0","2","128","trial1","naming","0","0","0","0","heart monitrEnter Name","0","8150","1","White_Screen.jpg","6","164","Machine_EKG.jpg","6"
"091219","17:34:20","13","13","5.0.14.0","2","129","trial1","naming","0","0","0","0","cherryEnter Name","0","6120","1","White_Screen.jpg","7","30","Cherry.jpg","7"
"091219","17:34:20","13","13","5.0.14.0","2","130","trial1","naming","0","0","0","0","deskEnter Name","0","3620","1","White_Screen.jpg","6","93","Desk_White.jpg","6"
"091219","17:34:20","13","13","5.0.14.0","2","131","trial1","naming","0","0","0","0","toadEnter Name","0","6500","1","White_Screen.jpg","6","1","Toad.jpg","6"
"091219","17:34:20","13","13","5.0.14.0","2","132","trial1","naming","0","0","0","0","bird houseEnter Name","0","5807","1","White_Screen.jpg","6","88","TreeHouse.jpg","6"
"091219","17:34:20","13","13","5.0.14.0","2","133","trial1","naming","0","0","0","0","shedEnter Name","0","2761","1","White_Screen.jpg","5","45","Outhouse.jpg","5"
"091219","17:34:20","13","13","5.0.14.0","2","134","trial1","naming","0","0","0","0","pumpkinsEnter Name","0","5712","1","White_Screen.jpg","6","25","Cornucopia.jpg","6"
"091219","17:34:20","13","13","5.0.14.0","2","135","trial1","naming","0","0","0","0","fire shEnter Name","0","10000","1","White_Screen.jpg","6","42","Bellows.jpg","6"
"091219","17:34:20","13","13","5.0.14.0","2","136","trial1","naming","0","0","0","0","ostrichEnter Name","0","5430","1","White_Screen.jpg","6","133","Ostrich.jpg","6"
"091219","17:34:20","13","13","5.0.14.0","2","137","trial1","naming","0","0","0","0","taggerEnter Name","0","5092","1","White_Screen.jpg","6","98","Embosser.jpg","6"
"091219","17:34:20","13","13","5.0.14.0","2","138","trial1","naming","0","0","0","0","shoe hornEnter Name","0","6945","1","White_Screen.jpg","6","49","Shoes_Mould.jpg","6"
"091219","17:34:20","13","13","5.0.14.0","2","139","trial1","naming","0","0","0","0","phone lineEnter Name","0","6684","1","White_Screen.jpg","6","78","TelephoneJack.jpg","6"
"091219","17:34:20","13","13","5.0.14.0","2","140","trial1","naming","0","0","0","0","colouring peEnter Name","0","8778","1","White_Screen.jpg","6","151","ColoringSet.jpg","6"
"091219","17:34:20","13","13","5.0.14.0","2","141","trial1","naming","0","0","0","0","polar bearEnter Name","0","5308","1","White_Screen.jpg","6","110","BearPolar.jpg","6"
"091219","17:34:20","13","13","5.0.14.0","2","142","trial1","naming","0","0","0","0","milk shakeEnter Name","0","8072","1","White_Screen.jpg","6","3","Milkshake_Chocolate.jpg","6"
"091219","17:34:20","13","13","5.0.14.0","2","143","trial1","naming","0","0","0","0","ice cubesEnter Name","0","3773","1","White_Screen.jpg","6","178","IceCubes copy.jpg","6"
"091219","17:34:20","13","13","5.0.14.0","2","144","trial1","naming","0","0","0","0","peanutsEnter Name","0","4935","1","White_Screen.jpg","5","101","Nuts_Peanuts.jpg","5"
"091219","17:34:20","13","13","5.0.14.0","2","145","trial1","naming","0","0","0","0","shedEnter Name","0","4176","1","White_Screen.jpg","7","6","Awning.jpg","7"
"091219","17:34:20","13","13","5.0.14.0","2","146","trial1","naming","0","0","0","0","brushEnter Name","0","3674","1","White_Screen.jpg","6","28","Brush_Windshield.jpg","6"
"091219","17:34:20","13","13","5.0.14.0","2","147","trial1","naming","0","0","0","0","sawEnter Name","0","3990","1","White_Screen.jpg","7","140","Blade_Tablesaw.jpg","7"
"091219","17:34:20","13","13","5.0.14.0","2","148","trial1","naming","0","0","0","0","skullEnter Name","0","3366","1","White_Screen.jpg","6","19","HumanSkull.jpg","6"
"091219","17:34:20","13","13","5.0.14.0","2","149","trial1","naming","0","0","0","0","toy pramEnter Name","0","6039","1","White_Screen.jpg","6","127","Toy_Stroller.jpg","6"
"091219","17:34:20","13","13","5.0.14.0","2","150","trial1","naming","0","0","0","0","wheelEnter Name","0","2958","1","White_Screen.jpg","6","51","Wheel_Steering.jpg","6"
"091219","17:34:20","13","13","5.0.14.0","2","151","trial1","naming","0","0","0","0","towelEnter Name","0","4303","1","White_Screen.jpg","6","82","KitchenCloth.jpg","6"
"091219","17:34:20","13","13","5.0.14.0","2","152","trial1","naming","0","0","0","0","wndowEnter Name","0","4660","1","White_Screen.jpg","6","124","DormerWindow.jpg","6"
"091219","17:34:20","13","13","5.0.14.0","2","154","trial1","naming","0","0","0","0","xmas earsEnter Name","0","6344","1","White_Screen.jpg","7","94","ReindeerHeadband.jpg","7"
"091219","17:34:20","13","13","5.0.14.0","2","155","trial1","naming","0","0","0","0","lightEnter Name","0","4924","1","White_Screen.jpg","6","155","Light_Halogen.jpg","6"
"091219","17:34:20","13","13","5.0.14.0","2","156","trial1","naming","0","0","0","0","working tablEnter Name","0","7262","1","White_Screen.jpg","6","8","Table_Saw.jpg","6"
"091219","17:34:20","13","13","5.0.14.0","2","157","trial1","naming","0","0","0","0","panEnter Name","0","2476","1","White_Screen.jpg","7","70","PanCooking.jpg","7"
"091219","17:34:20","13","13","5.0.14.0","2","158","trial1","naming","0","0","0","0","truckEnter Name","0","4033","1","White_Screen.jpg","6","57","Truck_Army.jpg","6"
"091219","17:34:20","13","13","5.0.14.0","2","159","trial1","naming","0","0","0","0","kegEnter Name","0","3992","1","White_Screen.jpg","7","145","Keg.jpg","7"
"091219","17:34:20","13","13","5.0.14.0","2","160","trial1","naming","0","0","0","0","figurineEnter Name","0","7120","1","White_Screen.jpg","5","85","Toy_BearBlackPlastic.jpg","5"
"091219","17:34:20","13","13","5.0.14.0","2","161","trial1","naming","0","0","0","0","toothbrushEnter Name","0","5404","1","White_Screen.jpg","6","46","ToothBrush.jpg","6"
"091219","17:34:20","13","13","5.0.14.0","2","162","trial1","naming","0","0","0","0","gas pontEnter Name","0","7012","1","White_Screen.jpg","6","39","Stove_Portable.jpg","6"
"091219","17:34:20","13","13","5.0.14.0","2","163","trial1","naming","0","0","0","0","make upEnter Name","0","4445","1","White_Screen.jpg","6","16","Makeup_Compact.jpg","6"
"091219","17:34:20","13","13","5.0.14.0","2","164","trial1","naming","0","0","0","0","computer mEnter Name","0","6907","1","White_Screen.jpg","6","96","Monitor.jpg","6"
"091219","17:34:20","13","13","5.0.14.0","2","165","trial1","naming","0","0","0","0","candleEnter Name","0","3736","1","White_Screen.jpg","6","50","Candle_Blue.jpg","6"
"091219","17:34:20","13","13","5.0.14.0","2","166","trial1","naming","0","0","0","0","red blanketEnter Name","0","6674","1","White_Screen.jpg","6","190","ClothRed.jpg","6"
"091219","17:34:20","13","13","5.0.14.0","2","167","trial1","naming","0","0","0","0","smart meterEnter Name","0","5895","1","White_Screen.jpg","6","73","Thermostat_Digital.jpg","6"
"091219","17:34:20","13","13","5.0.14.0","2","168","trial1","naming","0","0","0","0","clipEnter Name","0","3508","1","White_Screen.jpg","6","33","Clip_Binder.jpg","6"
"091219","17:34:20","13","13","5.0.14.0","2","169","trial1","naming","0","0","0","0","olivesEnter Name","0","3479","1","White_Screen.jpg","6","60","Can_Olives.jpg","6"
"091219","17:34:20","13","13","5.0.14.0","2","170","trial1","naming","0","0","0","0","swanEnter Name","0","2732","1","White_Screen.jpg","6","175","Swan.jpg","6"
"091219","17:34:20","13","13","5.0.14.0","2","171","trial1","naming","0","0","0","0","tape filmEnter Name","0","10000","1","White_Screen.jpg","6","167","Projector_Film.jpg","6"
"091219","17:34:20","13","13","5.0.14.0","2","172","trial1","naming","0","0","0","0","Enter Name","0","416","1","White_Screen.jpg","6","196","Ruler_Metal.jpg","6"
"091219","17:34:20","13","13","5.0.14.0","2","173","trial1","naming","0","0","0","0","temp meEnter Name","0","10000","1","White_Screen.jpg","6","37","AnsweringMachine.jpg","6"
"091219","17:34:20","13","13","5.0.14.0","2","174","trial1","naming","0","0","0","0","Enter Name","0","504","1","White_Screen.jpg","6","131","Door_Blue.jpg","6"
"091219","17:34:20","13","13","5.0.14.0","2","175","trial1","naming","0","0","0","0","swimming dEnter Name","0","6171","1","White_Screen.jpg","6","115","DivingBoard.jpg","6"
"091219","17:34:20","13","13","5.0.14.0","2","176","trial1","naming","0","0","0","0","boardEnter Name","0","6565","1","White_Screen.jpg","6","174","Lectern.jpg","6"
"091219","17:34:20","13","13","5.0.14.0","2","177","trial1","naming","0","0","0","0","toyEnter Name","0","3168","1","White_Screen.jpg","6","198","Toy_Alien.jpg","6"
"091219","17:34:20","13","13","5.0.14.0","2","178","trial1","naming","0","0","0","0","vegetableEnter Name","0","9456","1","White_Screen.jpg","6","200","Eggplant.jpg","6"
"091219","17:34:20","13","13","5.0.14.0","2","179","trial1","naming","0","0","0","0","stepEnter Name","0","4503","1","White_Screen.jpg","6","191","Exercise_Stepper.jpg","6"
"091219","17:34:20","13","13","5.0.14.0","2","180","trial1","naming","0","0","0","0","ice creamEnter Name","0","6947","1","White_Screen.jpg","6","197","IceCream_Chocolate.jpg","6"
"091219","17:34:20","13","13","5.0.14.0","2","181","trial1","naming","0","0","0","0","potEnter Name","0","3518","1","White_Screen.jpg","6","117","Pot_FlowerClay.jpg","6"
"091219","17:34:20","13","13","5.0.14.0","2","182","trial1","naming","0","0","0","0","staplesEnter Name","0","3880","1","White_Screen.jpg","6","38","Staples.jpg","6"
"091219","17:34:20","13","13","5.0.14.0","2","183","trial1","naming","0","0","0","0","toasterEnter Name","0","5693","1","White_Screen.jpg","6","172","Toaster_Antique.jpg","6"
"091219","17:34:20","13","13","5.0.14.0","2","184","trial1","naming","0","0","0","0","capEnter Name","0","2610","1","White_Screen.jpg","6","11","Hat_Beret.jpg","6"
"091219","17:34:20","13","13","5.0.14.0","2","185","trial1","naming","0","0","0","0","mugEnter Name","0","2360","1","White_Screen.jpg","6","66","Mug_Ceramic.jpg","6"
"091219","17:34:20","13","13","5.0.14.0","2","186","trial1","naming","0","0","0","0","figurineEnter Name","0","5880","1","White_Screen.jpg","7","12","Toy_Rooster.jpg","7"
"091219","17:34:20","13","13","5.0.14.0","2","187","trial1","naming","0","0","0","0","Enter Name","0","2727","1","White_Screen.jpg","6","165","Jacks.jpg","6"
"091219","17:34:20","13","13","5.0.14.0","2","188","trial1","naming","0","0","0","0","boardEnter Name","0","4225","1","White_Screen.jpg","6","144","CuttingBoard.jpg","6"
"091219","17:34:20","13","13","5.0.14.0","2","189","trial1","naming","0","0","0","0","slideEnter Name","0","2848","1","White_Screen.jpg","5","95","Slide.jpg","5"
"091219","17:34:20","13","13","5.0.14.0","2","190","trial1","naming","0","0","0","0","potEnter Name","0","5062","1","White_Screen.jpg","5","193","Vase_EarthToned.jpg","5"
"091219","17:34:20","13","13","5.0.14.0","2","191","trial1","naming","0","0","0","0","see sawEnter Name","0","7091","1","White_Screen.jpg","6","106","Toy_SeeSaw.jpg","6"
"091219","17:34:20","13","13","5.0.14.0","2","192","trial1","naming","0","0","0","0","flowerEnter Name","0","5632","1","White_Screen.jpg","6","158","Flower_Orchid.jpg","6"
"091219","17:34:20","13","13","5.0.14.0","2","193","trial1","naming","0","0","0","0","radioEnter Name","0","4511","1","White_Screen.jpg","6","116","Radio_Vintage.jpg","6"
"091219","17:34:20","13","13","5.0.14.0","2","194","trial1","naming","0","0","0","0","capEnter Name","0","2627","1","White_Screen.jpg","6","195","Hat_Baseball.jpg","6"
"091219","17:34:20","13","13","5.0.14.0","2","195","trial1","naming","0","0","0","0","figrineEnter Name","0","4264","1","White_Screen.jpg","6","142","Toy_Moose.jpg","6"
"091219","17:34:20","13","13","5.0.14.0","2","196","trial1","naming","0","0","0","0","glueEnter Name","0","4406","1","White_Screen.jpg","6","87","EyeDrops.jpg","6"
"091219","17:34:20","13","13","5.0.14.0","2","197","trial1","naming","0","0","0","0","juke boxEnter Name","0","6725","1","White_Screen.jpg","6","147","JukeboxAntique.jpg","6"
"091219","17:34:20","13","13","5.0.14.0","2","198","trial1","naming","0","0","0","0","candle holdrEnter Name","0","6601","1","White_Screen.jpg","6","71","LumiereBeautyBeast.jpg","6"
"091219","17:34:20","13","13","5.0.14.0","2","199","trial1","naming","0","0","0","0","skii boardEnter Name","0","7258","1","White_Screen.jpg","6","125","Snowboard.jpg","6"
"091219","17:34:20","13","13","5.0.14.0","2","200","trial1","naming","0","0","0","0","aEnter Name","0","10000","1","White_Screen.jpg","6","146","Gecko.jpg","6"
"091219","17:34:20","13","13","5.0.14.0","2","201","trial1","naming","0","0","0","0","bandageEnter Name","0","5930","1","White_Screen.jpg","6","150","Bandage_Wrap.jpg","6"
"091219","17:34:20","13","13","5.0.14.0","2","202","trial1","naming","0","0","0","0","hose pipeEnter Name","0","5149","1","White_Screen.jpg","6","149","Hose_Garden.jpg","6"
"091219","17:34:20","13","13","5.0.14.0","2","203","trial1","naming","0","0","0","0","candy treatsEnter Name","0","8056","1","White_Screen.jpg","6","113","Jars_PetFood.jpg","6"
"091219","17:34:20","13","13","5.0.14.0","3","1","demographics_block","gender","0","0","0","0","female","1","24592","0","0","0","0","0","0"
"091219","17:34:20","13","13","5.0.14.0","3","1","demographics_block","age","0","0","0","0","36","1","24592","0","0","0","0","0","0"
"091219","17:34:20","13","13","5.0.14.0","3","1","demographics_block","education","0","0","0","0","bachelors degree","1","24592","0","0","0","0","0","0"
"091219","17:34:20","13","13","5.0.14.0","3","2","demographics_block","left_right_handed","0","0","0","0","Right","1","10452","0","0","0","0","0","0"
"091219","17:34:20","13","13","5.0.14.0","3","2","demographics_block","raceoption1","0","0","0","0","0","1","10452","0","0","0","0","0","0"
"091219","17:34:20","13","13","5.0.14.0","3","2","demographics_block","raceoption2","0","0","0","0","","1","10452","0","0","0","0","0","0"
"091219","17:34:20","13","13","5.0.14.0","3","2","demographics_block","raceoption3","0","0","0","0","","1","10452","0","0","0","0","0","0"
"091219","17:34:20","13","13","5.0.14.0","3","2","demographics_block","raceoption4","0","0","0","0","","1","10452","0","0","0","0","0","0"
"091219","17:34:20","13","13","5.0.14.0","3","2","demographics_block","raceoption5","0","0","0","0","","1","10452","0","0","0","0","0","0"
"091219","17:34:20","13","13","5.0.14.0","3","2","demographics_block","raceoption6","0","0","0","0","","1","10452","0","0","0","0","0","0"
"091219","17:34:20","13","13","5.0.14.0","3","2","demographics_block","raceoption7","0","0","0","0","","1","10452","0","0","0","0","0","0"
"091219","17:34:20","13","13","5.0.14.0","3","2","demographics_block","raceoption8","0","0","0","0","","1","10452","0","0","0","0","0","0"
"091219","17:34:20","13","13","5.0.14.0","3","2","demographics_block","raceoption9","0","0","0","0","","1","10452","0","0","0","0","0","0"
"091219","17:34:20","13","13","5.0.14.0","3","2","demographics_block","raceother","0","0","0","0","","1","10452","0","0","0","0","0","0"
"091219","17:34:20","13","13","5.0.14.0","3","2","demographics_block","raceother","0","0","0","0","","1","10452","0","0","0","0","0","0"
"091219","17:34:20","13","13","5.0.14.0","3","2","demographics_block","english_language","0","0","0","0","Yes","1","10452","0","0","0","0","0","0"
"091219","17:34:20","13","13","5.0.14.0","3","2","demographics_block","english_languageother","0","0","0","0","","1","10452","0","0","0","0","0","0"
"091219","17:34:20","13","13","5.0.14.0","3","3","demographics_block","eyesight","0","0","0","0","Yes","1","10598","0","0","0","0","0","0"
"091219","17:34:20","13","13","5.0.14.0","3","3","demographics_block","colorblind","0","0","0","0","No","1","10598","0","0","0","0","0","0"
"091219","17:34:20","13","13","5.0.14.0","4","1","worker_id_block","worker_id_textbox","0","0","0","0","A2TZH3L7RO6RFS","1","5444","0","0","0","0","0","0"
"date","time","group","subject","build","blocknum","trialnum","blockcode","trialcode","pretrialpause","posttrialpause","trialduration","trialtimeout","response","correct","latency","stimulusnumber1","stimulusitem1","stimulusonset1","stimulusnumber2","stimulusitem2","stimulusonset2"
"091219","11:42:15","15","15","5.0.14.0","2","1","trial1","naming","0","0","0","0","Laptop bag","0","6742","1","White_Screen.jpg","15","63","Bag_Computer.jpg","15"
"091219","11:42:15","15","15","5.0.14.0","2","2","trial1","naming","0","0","0","0","Heat Lamp","0","10000","1","White_Screen.jpg","2","163","Heater_Infrared.jpg","2"
"091219","11:42:15","15","15","5.0.14.0","2","3","trial1","naming","0","0","0","0","saw blade","0","7599","1","White_Screen.jpg","2","140","Blade_Tablesaw.jpg","2"
"091219","11:42:15","15","15","5.0.14.0","2","4","trial1","naming","0","0","0","0","candy","0","4605","1","White_Screen.jpg","2","18","Candy_Lozenge.jpg","2"
"091219","11:42:15","15","15","5.0.14.0","2","5","trial1","naming","0","0","0","0","milkshake","0","5783","1","White_Screen.jpg","2","34","Milkshake_Strawberry.jpg","2"
"091219","11:42:15","15","15","5.0.14.0","2","6","trial1","naming","0","0","0","0","elephant","0","5325","1","White_Screen.jpg","2","138","Toy_ElephantPlastic.jpg","2"
"091219","11:42:15","15","15","5.0.14.0","2","7","trial1","naming","0","0","0","0","blazer","0","4670","1","White_Screen.jpg","2","14","Tuxedo.jpg","2"
"091219","11:42:15","15","15","5.0.14.0","2","8","trial1","naming","0","0","0","0","chainsaw","0","4324","1","White_Screen.jpg","2","52","Chainsaw.jpg","2"
"091219","11:42:15","15","15","5.0.14.0","2","9","trial1","naming","0","0","0","0","car lighter","0","5698","1","White_Screen.jpg","2","185","CarLighter.jpg","2"
"091219","11:42:15","15","15","5.0.14.0","2","10","trial1","naming","0","0","0","0","cutting board","0","6494","1","White_Screen.jpg","2","144","CuttingBoard.jpg","2"
"091219","11:42:15","15","15","5.0.14.0","2","11","trial1","naming","0","0","0","0","steamer basket","0","9285","1","White_Screen.jpg","27","48","Steamer.jpg","27"
"091219","11:42:15","15","15","5.0.14.0","2","12","trial1","naming","0","0","0","0","lamp","0","5844","1","White_Screen.jpg","2","155","Light_Halogen.jpg","2"
"091219","11:42:15","15","15","5.0.14.0","2","13","trial1","naming","0","0","0","0","cera","0","10000","1","White_Screen.jpg","2","142","Toy_Moose.jpg","2"
"091219","11:42:15","15","15","5.0.14.0","2","14","trial1","naming","0","0","0","0","ice cubes","0","8695","1","White_Screen.jpg","2","178","IceCubes copy.jpg","2"
"091219","11:42:15","15","15","5.0.14.0","2","15","trial1","naming","0","0","0","0","mattress topper","0","6797","1","White_Screen.jpg","2","81","Foam_Accoustic.jpg","2"
"091219","11:42:15","15","15","5.0.14.0","2","16","trial1","naming","0","0","0","0","door","0","10000","1","White_Screen.jpg","2","131","Door_Blue.jpg","2"
"091219","11:42:15","15","15","5.0.14.0","2","17","trial1","naming","0","0","0","0","heart pillow","0","7524","1","White_Screen.jpg","2","161","Pillow_Heart.jpg","2"
"091219","11:42:15","15","15","5.0.14.0","2","18","trial1","naming","0","0","0","0","vendor stand","0","7698","1","White_Screen.jpg","2","100","AlcoholBar.jpg","2"
"091219","11:42:15","15","15","5.0.14.0","2","19","trial1","naming","0","0","0","0","dog toy","0","5155","1","White_Screen.jpg","2","183","DogToy.jpg","2"
"091219","11:42:15","15","15","5.0.14.0","2","20","trial1","naming","0","0","0","0","st brenard","0","10000","1","White_Screen.jpg","2","9","Dog_SaintBernard.jpg","2"
"091219","11:42:15","15","15","5.0.14.0","2","21","trial1","naming","0","0","0","0","Enter Name","0","173","1","White_Screen.jpg","2","116","Radio_Vintage.jpg","2"
"091219","11:42:15","15","15","5.0.14.0","2","22","trial1","naming","0","0","0","0","vegetable","0","10000","1","White_Screen.jpg","2","200","Eggplant.jpg","2"
"091219","11:42:15","15","15","5.0.14.0","2","23","trial1","naming","0","0","0","0","usb thumbdrive","0","9749","1","White_Screen.jpg","2","169","USBKey.jpg","2"
"091219","11:42:15","15","15","5.0.14.0","2","24","trial1","naming","0","0","0","0","chocolate egg","0","6763","1","White_Screen.jpg","2","173","Egg_Chocolate.jpg","2"
"091219","11:42:15","15","15","5.0.14.0","2","25","trial1","naming","0","0","0","0","sippy cup","0","4438","1","White_Screen.jpg","2","32","Cup_sippy.jpg","2"
"091219","11:42:15","15","15","5.0.14.0","2","26","trial1","naming","0","0","0","0","4 sided die","0","7604","1","White_Screen.jpg","2","99","Tetrahedron.jpg","2"
"091219","11:42:15","15","15","5.0.14.0","2","27","trial1","naming","0","0","0","0","show","0","4163","1","White_Screen.jpg","2","76","Shoe_Men.jpg","2"
"091219","11:42:15","15","15","5.0.14.0","2","28","trial1","naming","0","0","0","0","lego alien","0","5303","1","White_Screen.jpg","2","198","Toy_Alien.jpg","2"
"091219","11:42:15","15","15","5.0.14.0","2","29","trial1","naming","0","0","0","0","metal cont","0","10000","1","White_Screen.jpg","2","97","Cannister_GasVintage.jpg","2"
"091219","11:42:15","15","15","5.0.14.0","2","30","trial1","naming","0","0","0","0","presser","0","10000","1","White_Screen.jpg","2","98","Embosser.jpg","2"
"091219","11:42:15","15","15","5.0.14.0","2","31","trial1","naming","0","0","0","0","lighting","0","10000","1","White_Screen.jpg","2","80","Light_Fixtures.jpg","2"
"091219","11:42:15","15","15","5.0.14.0","2","32","trial1","naming","0","0","0","0","croissant","0","10000","1","White_Screen.jpg","2","108","Croissant.jpg","2"
"091219","11:42:15","15","15","5.0.14.0","2","33","trial1","naming","0","0","0","0","strawberry shake","0","10000","1","White_Screen.jpg","3","104","Milkshake_StrawberryStraw.jpg","3"
"091219","11:42:15","15","15","5.0.14.0","2","34","trial1","naming","0","0","0","0","candle","0","6217","1","White_Screen.jpg","2","50","Candle_Blue.jpg","2"
"091219","11:42:15","15","15","5.0.14.0","2","35","trial1","naming","0","0","0","0","street lamp","0","8027","1","White_Screen.jpg","2","162","LampPost_ThreeBulbs.jpg","2"
"091219","11:42:15","15","15","5.0.14.0","2","36","trial1","naming","0","0","0","0","red onion","0","6173","1","White_Screen.jpg","2","148","OnionRed.jpg","2"
"091219","11:42:15","15","15","5.0.14.0","2","37","trial1","naming","0","0","0","0","bellow","0","7099","1","White_Screen.jpg","2","42","Bellows.jpg","2"
"091219","11:42:15","15","15","5.0.14.0","2","38","trial1","naming","0","0","0","0","mini keg","0","10000","1","White_Screen.jpg","2","145","Keg.jpg","2"
"091219","11:42:15","15","15","5.0.14.0","2","39","trial1","naming","0","0","0","0","staples","0","4720","1","White_Screen.jpg","2","38","Staples.jpg","2"
"091219","11:42:15","15","15","5.0.14.0","2","40","trial1","naming","0","0","0","0","plate","0","3540","1","White_Screen.jpg","2","118","Plate_Ceramic.jpg","2"
"091219","11:42:15","15","15","5.0.14.0","2","41","trial1","naming","0","0","0","0","peanuts","0","4005","1","White_Screen.jpg","2","101","Nuts_Peanuts.jpg","2"
"091219","11:42:15","15","15","5.0.14.0","2","42","trial1","naming","0","0","0","0","chairs","0","3527","1","White_Screen.jpg","2","199","Chairs_Stacked.jpg","2"
"091219","11:42:15","15","15","5.0.14.0","2","43","trial1","naming","0","0","0","0","ice cubes","0","3951","1","White_Screen.jpg","2","194","IceCubes.jpg","2"
"091219","11:42:15","15","15","5.0.14.0","2","44","trial1","naming","0","0","0","0","poker table","0","6764","1","White_Screen.jpg","2","170","Table_Poker.jpg","2"
"091219","11:42:15","15","15","5.0.14.0","2","45","trial1","naming","0","0","0","0","seal","0","6295","1","White_Screen.jpg","2","83","Seal_animal.jpg","2"
"091219","11:42:15","15","15","5.0.14.0","2","46","trial1","naming","0","0","0","0","","0","10000","1","White_Screen.jpg","2","147","JukeboxAntique.jpg","2"
"091219","11:42:15","15","15","5.0.14.0","2","47","trial1","naming","0","0","0","0","puppet stage","0","10000","1","White_Screen.jpg","2","61","PuppetTheatre_BlueRed.jpg","2"
"091219","11:42:15","15","15","5.0.14.0","2","48","trial1","naming","0","0","0","0","cinder block","0","4786","1","White_Screen.jpg","2","128","CinderBlock.jpg","2"
"091219","11:42:15","15","15","5.0.14.0","2","49","trial1","naming","0","0","0","0","desk","0","3486","1","White_Screen.jpg","2","93","Desk_White.jpg","2"
"091219","11:42:15","15","15","5.0.14.0","2","50","trial1","naming","0","0","0","0","flowers","0","10000","1","White_Screen.jpg","2","158","Flower_Orchid.jpg","2"
"091219","11:42:15","15","15","5.0.14.0","2","52","trial1","naming","0","0","0","0","bandage","0","10000","1","White_Screen.jpg","2","150","Bandage_Wrap.jpg","2"
"091219","11:42:15","15","15","5.0.14.0","2","53","trial1","naming","0","0","0","0","amber","0","6535","1","White_Screen.jpg","2","192","AmberWithMosquito.jpg","2"
"091219","11:42:15","15","15","5.0.14.0","2","54","trial1","naming","0","0","0","0","evaporated milk","0","10000","1","White_Screen.jpg","2","5","Can_Milk.jpg","2"
"091219","11:42:15","15","15","5.0.14.0","2","55","trial1","naming","0","0","0","0","jack","0","5416","1","White_Screen.jpg","2","165","Jacks.jpg","2"
"091219","11:42:15","15","15","5.0.14.0","2","56","trial1","naming","0","0","0","0","bike light","0","7358","1","White_Screen.jpg","2","121","BicycleReflector.jpg","2"
"091219","11:42:15","15","15","5.0.14.0","2","57","trial1","naming","0","0","0","0","antlers","0","10000","1","White_Screen.jpg","2","94","ReindeerHeadband.jpg","2"
"091219","11:42:15","15","15","5.0.14.0","2","58","trial1","naming","0","0","0","0","potato","0","3362","1","White_Screen.jpg","2","112","Potato.jpg","2"
"091219","11:42:15","15","15","5.0.14.0","2","59","trial1","naming","0","0","0","0","ekg machine","0","10000","1","White_Screen.jpg","2","164","Machine_EKG.jpg","2"
"091219","11:42:15","15","15","5.0.14.0","2","60","trial1","naming","0","0","0","0","dog","0","4763","1","White_Screen.jpg","2","135","Dog_CockerSpaniel.jpg","2"
"091219","11:42:15","15","15","5.0.14.0","2","61","trial1","naming","0","0","0","0","mattress","0","4462","1","White_Screen.jpg","3","69","Mattress.jpg","3"
"091219","11:42:15","15","15","5.0.14.0","2","62","trial1","naming","0","0","0","0","esspresso machine","0","10000","1","White_Screen.jpg","2","53","EspressoMachine.jpg","2"
"091219","11:42:15","15","15","5.0.14.0","2","63","trial1","naming","0","0","0","0","van","0","4794","1","White_Screen.jpg","2","44","Van.jpg","2"
"091219","11:42:15","15","15","5.0.14.0","2","64","trial1","naming","0","0","0","0","circuit breaker","0","6939","1","White_Screen.jpg","2","109","FuseBox.jpg","2"
"091219","11:42:15","15","15","5.0.14.0","2","65","trial1","naming","0","0","0","0","bike grip","0","7888","1","White_Screen.jpg","2","67","BicycleBrake.jpg","2"
"091219","11:42:15","15","15","5.0.14.0","2","66","trial1","naming","0","0","0","0","moraccas","0","5009","1","White_Screen.jpg","2","7","Maraca.jpg","2"
"091219","11:42:15","15","15","5.0.14.0","2","67","trial1","naming","0","0","0","0","radio","0","10000","1","White_Screen.jpg","2","143","Phone_Military.jpg","2"
"091219","11:42:15","15","15","5.0.14.0","2","68","trial1","naming","0","0","0","0","berries","0","10000","1","White_Screen.jpg","2","24","Cranberry.jpg","2"
"091219","11:42:15","15","15","5.0.14.0","2","69","trial1","naming","0","0","0","0","lobster","0","6716","1","White_Screen.jpg","2","15","Lobster.jpg","2"
"091219","11:42:15","15","15","5.0.14.0","2","70","trial1","naming","0","0","0","0","peanuts","0","4632","1","White_Screen.jpg","2","182","Nuts_PeanutsPeeled.jpg","2"
"091219","11:42:15","15","15","5.0.14.0","2","71","trial1","naming","0","0","0","0","ginger","0","2767","1","White_Screen.jpg","2","22","Ginger.jpg","2"
"091219","11:42:15","15","15","5.0.14.0","2","72","trial1","naming","0","0","0","0","Prot","0","10000","1","White_Screen.jpg","2","62","Protractor.jpg","2"
"091219","11:42:15","15","15","5.0.14.0","2","73","trial1","naming","0","0","0","0","gas pump","0","10000","1","White_Screen.jpg","3","160","GasStation.jpg","3"
"091219","11:42:15","15","15","5.0.14.0","2","74","trial1","naming","0","0","0","0","mail","0","5341","1","White_Screen.jpg","2","153","LetterMail.jpg","2"
"091219","11:42:15","15","15","5.0.14.0","2","75","trial1","naming","0","0","0","0","olives","0","6515","1","White_Screen.jpg","2","60","Can_Olives.jpg","2"
"091219","11:42:15","15","15","5.0.14.0","2","76","trial1","naming","0","0","0","0","lemons","0","3513","1","White_Screen.jpg","2","90","Bowl_Lemons.jpg","2"
"091219","11:42:15","15","15","5.0.14.0","2","77","trial1","naming","0","0","0","0","skull","0","3712","1","White_Screen.jpg","2","19","HumanSkull.jpg","2"
"091219","11:42:15","15","15","5.0.14.0","2","78","trial1","naming","0","0","0","0","blanket","0","5561","1","White_Screen.jpg","2","11","Hat_Beret.jpg","2"
"091219","11:42:15","15","15","5.0.14.0","2","79","trial1","naming","0","0","0","0","binoculars","0","8031","1","White_Screen.jpg","2","186","OperaGlasses.jpg","2"
"091219","11:42:15","15","15","5.0.14.0","2","80","trial1","naming","0","0","0","0","bird house","0","8835","1","White_Screen.jpg","2","75","Birdhouse.jpg","2"
"091219","11:42:15","15","15","5.0.14.0","2","81","trial1","naming","0","0","0","0","olives","0","10000","1","White_Screen.jpg","2","13","Olives.jpg","2"
"091219","11:42:15","15","15","5.0.14.0","2","82","trial1","naming","0","0","0","0","sink","0","4720","1","White_Screen.jpg","2","102","Sink_Bathroom.jpg","2"
"091219","11:42:15","15","15","5.0.14.0","2","83","trial1","naming","0","0","0","0","rooster","0","6271","1","White_Screen.jpg","2","12","Toy_Rooster.jpg","2"
"091219","11:42:15","15","15","5.0.14.0","2","84","trial1","naming","0","0","0","0","toothbrush","0","3967","1","White_Screen.jpg","2","46","ToothBrush.jpg","2"
"091219","11:42:15","15","15","5.0.14.0","2","85","trial1","naming","0","0","0","0","dvd player","0","5292","1","White_Screen.jpg","2","136","DVDPlayer.jpg","2"
"091219","11:42:15","15","15","5.0.14.0","2","86","trial1","naming","0","0","0","0","bread","0","5004","1","White_Screen.jpg","2","27","Bread_Melon.jpg","2"
"091219","11:42:15","15","15","5.0.14.0","2","87","trial1","naming","0","0","0","0","wood shoes","0","7629","1","White_Screen.jpg","2","49","Shoes_Mould.jpg","2"
"091219","11:42:15","15","15","5.0.14.0","2","88","trial1","naming","0","0","0","0","Lectern","0","10000","1","White_Screen.jpg","2","174","Lectern.jpg","2"
"091219","11:42:15","15","15","5.0.14.0","2","89","trial1","naming","0","0","0","0","horn","0","10000","1","White_Screen.jpg","2","74","Bugle.jpg","2"
"091219","11:42:15","15","15","5.0.14.0","2","90","trial1","naming","0","0","0","0","shears","0","10000","1","White_Screen.jpg","2","43","HedgeShears.jpg","2"
"091219","11:42:15","15","15","5.0.14.0","2","91","trial1","naming","0","0","0","0","bottle model","0","10000","1","White_Screen.jpg","2","87","EyeDrops.jpg","2"
"091219","11:42:15","15","15","5.0.14.0","2","92","trial1","naming","0","0","0","0","gourds","0","10000","1","White_Screen.jpg","2","25","Cornucopia.jpg","2"
"091219","11:42:15","15","15","5.0.14.0","2","93","trial1","naming","0","0","0","0","berries","0","10000","1","White_Screen.jpg","2","126","Currants.jpg","2"
"091219","11:42:15","15","15","5.0.14.0","2","94","trial1","naming","0","0","0","0","torpedo","0","5671","1","White_Screen.jpg","2","107","Torpedo.jpg","2"
"091219","11:42:15","15","15","5.0.14.0","2","95","trial1","naming","0","0","0","0","burner","0","3915","1","White_Screen.jpg","2","39","Stove_Portable.jpg","2"
"091219","11:42:15","15","15","5.0.14.0","2","96","trial1","naming","0","0","0","0","kid carriage","0","6699","1","White_Screen.jpg","2","127","Toy_Stroller.jpg","2"
"091219","11:42:15","15","15","5.0.14.0","2","97","trial1","naming","0","0","0","0","pottery","0","5072","1","White_Screen.jpg","2","193","Vase_EarthToned.jpg","2"
"091219","11:42:15","15","15","5.0.14.0","2","98","trial1","naming","0","0","0","0","rpg launcher","0","10000","1","White_Screen.jpg","2","89","Gun_Bazooka.jpg","2"
"091219","11:42:15","15","15","5.0.14.0","2","99","trial1","naming","0","0","0","0","bear","0","4357","1","White_Screen.jpg","2","85","Toy_BearBlackPlastic.jpg","2"
"091219","11:42:15","15","15","5.0.14.0","2","100","trial1","naming","0","0","0","0","deep fryer","0","4879","1","White_Screen.jpg","2","154","DeepFryer.jpg","2"
"091219","11:42:15","15","15","5.0.14.0","2","101","trial1","naming","0","0","0","0","diving board","0","7024","1","White_Screen.jpg","2","115","DivingBoard.jpg","2"
"091219","11:42:15","15","15","5.0.14.0","2","103","trial1","naming","0","0","0","0","cup","0","4355","1","White_Screen.jpg","2","66","Mug_Ceramic.jpg","2"
"091219","11:42:15","15","15","5.0.14.0","2","104","trial1","naming","0","0","0","0","lips","0","4154","1","White_Screen.jpg","2","92","Lips_Real.jpg","2"
"091219","11:42:15","15","15","5.0.14.0","2","105","trial1","naming","0","0","0","0","potato smasher","0","6242","1","White_Screen.jpg","2","4","PotatoMasher_Grate.jpg","2"
"091219","11:42:15","15","15","5.0.14.0","2","106","trial1","naming","0","0","0","0","electrical outlet","0","5853","1","White_Screen.jpg","2","177","ElectricOutlet.jpg","2"
"091219","11:42:15","15","15","5.0.14.0","2","107","trial1","naming","0","0","0","0","polar bear","0","6033","1","White_Screen.jpg","2","110","BearPolar.jpg","2"
"091219","11:42:15","15","15","5.0.14.0","2","108","trial1","naming","0","0","0","0","chocolate icecream","0","6779","1","White_Screen.jpg","2","197","IceCream_Chocolate.jpg","2"
"091219","11:42:15","15","15","5.0.14.0","2","109","trial1","naming","0","0","0","0","kids slide","0","4877","1","White_Screen.jpg","2","95","Slide.jpg","2"
"091219","11:42:15","15","15","5.0.14.0","2","110","trial1","naming","0","0","0","0","phone outlet","0","7410","1","White_Screen.jpg","2","78","TelephoneJack.jpg","2"
"091219","11:42:15","15","15","5.0.14.0","2","111","trial1","naming","0","0","0","0","","0","10000","1","White_Screen.jpg","2","17","Cymbals.jpg","2"
"091219","11:42:15","15","15","5.0.14.0","2","112","trial1","naming","0","0","0","0","ruler","0","5953","1","White_Screen.jpg","2","196","Ruler_Metal.jpg","2"
"091219","11:42:15","15","15","5.0.14.0","2","113","trial1","naming","0","0","0","0","thermostat","0","3609","1","White_Screen.jpg","2","73","Thermostat_Digital.jpg","2"
"091219","11:42:15","15","15","5.0.14.0","2","114","trial1","naming","0","0","0","0","bar stool","0","4014","1","White_Screen.jpg","2","114","Stool_Metal.jpg","2"
"091219","11:42:15","15","15","5.0.14.0","2","115","trial1","naming","0","0","0","0","swan","0","2364","1","White_Screen.jpg","2","175","Swan.jpg","2"
"091219","11:42:15","15","15","5.0.14.0","2","116","trial1","naming","0","0","0","0","doctor bag","0","5137","1","White_Screen.jpg","2","187","Bag_Doctor.jpg","2"
"091219","11:42:15","15","15","5.0.14.0","2","117","trial1","naming","0","0","0","0","golf bag","0","3620","1","White_Screen.jpg","2","29","Golf_Bag.jpg","2"
"091219","11:42:15","15","15","5.0.14.0","2","118","trial1","naming","0","0","0","0","ostrich","0","3793","1","White_Screen.jpg","2","133","Ostrich.jpg","2"
"091219","11:42:15","15","15","5.0.14.0","2","119","trial1","naming","0","0","0","0","step platform","0","8628","1","White_Screen.jpg","2","191","Exercise_Stepper.jpg","2"
"091219","11:42:15","15","15","5.0.14.0","2","120","trial1","naming","0","0","0","0","sushi","0","10000","1","White_Screen.jpg","2","77","Sushi.jpg","2"
"091219","11:42:15","15","15","5.0.14.0","2","121","trial1","naming","0","0","0","0","rook","0","10000","1","White_Screen.jpg","2","68","ChessPiece_Bishop.jpg","2"
"091219","11:42:15","15","15","5.0.14.0","2","122","trial1","naming","0","0","0","0","frying pan","0","6822","1","White_Screen.jpg","2","70","PanCooking.jpg","2"
"091219","11:42:15","15","15","5.0.14.0","2","123","trial1","naming","0","0","0","0","tiara","0","4945","1","White_Screen.jpg","2","122","Tiara.jpg","2"
"091219","11:42:15","15","15","5.0.14.0","2","124","trial1","naming","0","0","0","0","military truck","0","6411","1","White_Screen.jpg","2","57","Truck_Army.jpg","2"
"091219","11:42:15","15","15","5.0.14.0","2","125","trial1","naming","0","0","0","0","lizard","0","4398","1","White_Screen.jpg","2","146","Gecko.jpg","2"
"091219","11:42:15","15","15","5.0.14.0","2","126","trial1","naming","0","0","0","0","checkers","0","4475","1","White_Screen.jpg","2","54","Boardgame_Checkers.jpg","2"
"091219","11:42:15","15","15","5.0.14.0","2","127","trial1","naming","0","0","0","0","cooking spoon","0","8016","1","White_Screen.jpg","2","168","Spoon_Serving.jpg","2"
"091219","11:42:15","15","15","5.0.14.0","2","128","trial1","naming","0","0","0","0","u","0","10000","1","White_Screen.jpg","2","166","Fork_Fondue.jpg","2"
"091219","11:42:15","15","15","5.0.14.0","2","129","trial1","naming","0","0","0","0","monitor","0","6854","1","White_Screen.jpg","2","96","Monitor.jpg","2"
"091219","11:42:15","15","15","5.0.14.0","2","130","trial1","naming","0","0","0","0","beater","0","5775","1","White_Screen.jpg","2","23","Mixer_Hand.jpg","2"
"091219","11:42:15","15","15","5.0.14.0","2","131","trial1","naming","0","0","0","0","clock","0","10000","1","White_Screen.jpg","2","59","Clock_Digital.jpg","2"
"091219","11:42:15","15","15","5.0.14.0","2","132","trial1","naming","0","0","0","0","earth","0","4830","1","White_Screen.jpg","2","40","Earth_Planet.jpg","2"
"091219","11:42:15","15","15","5.0.14.0","2","133","trial1","naming","0","0","0","0","art supplies","0","10000","1","White_Screen.jpg","2","151","ColoringSet.jpg","2"
"091219","11:42:15","15","15","5.0.14.0","2","134","trial1","naming","0","0","0","0","medical kit","0","10000","1","White_Screen.jpg","2","84","Box_FirstAidOpen.jpg","2"
"091219","11:42:15","15","15","5.0.14.0","2","135","trial1","naming","0","0","0","0","nerf gun","0","7414","1","White_Screen.jpg","2","26","Gun_Nerf.jpg","2"
"091219","11:42:15","15","15","5.0.14.0","2","136","trial1","naming","0","0","0","0","mouse trap","0","4487","1","White_Screen.jpg","3","105","Mousetrap.jpg","3"
"091219","11:42:15","15","15","5.0.14.0","2","137","trial1","naming","0","0","0","0","lumierre","0","5277","1","White_Screen.jpg","2","71","LumiereBeautyBeast.jpg","2"
"091219","11:42:15","15","15","5.0.14.0","2","138","trial1","naming","0","0","0","0","cherry","0","3900","1","White_Screen.jpg","2","30","Cherry.jpg","2"
"091219","11:42:15","15","15","5.0.14.0","2","139","trial1","naming","0","0","0","0","chocolate milkshake","0","10000","1","White_Screen.jpg","2","3","Milkshake_Chocolate.jpg","2"
"091219","11:42:15","15","15","5.0.14.0","2","140","trial1","naming","0","0","0","0","peas","0","10000","1","White_Screen.jpg","2","20","Guacamole.jpg","2"
"091219","11:42:15","15","15","5.0.14.0","2","141","trial1","naming","0","0","0","0","boat","0","5163","1","White_Screen.jpg","2","36","Boat_Colourful.jpg","2"
"091219","11:42:15","15","15","5.0.14.0","2","142","trial1","naming","0","0","0","0","ash tray","0","3782","1","White_Screen.jpg","2","2","Ashtray_Cigarettes.jpg","2"
"091219","11:42:15","15","15","5.0.14.0","2","143","trial1","naming","0","0","0","0","4 wheeler","0","5765","1","White_Screen.jpg","2","157","AllTerrain.jpg","2"
"091219","11:42:15","15","15","5.0.14.0","2","144","trial1","naming","0","0","0","0","pot","0","3496","1","White_Screen.jpg","2","117","Pot_FlowerClay.jpg","2"
"091219","11:42:15","15","15","5.0.14.0","2","145","trial1","naming","0","0","0","0","see saw","0","3279","1","White_Screen.jpg","2","106","Toy_SeeSaw.jpg","2"
"091219","11:42:15","15","15","5.0.14.0","2","146","trial1","naming","0","0","0","0","fence","0","3868","1","White_Screen.jpg","2","152","Fence_Wooden.jpg","2"
"091219","11:42:15","15","15","5.0.14.0","2","147","trial1","naming","0","0","0","0","taxi sign","0","10000","1","White_Screen.jpg","2","156","Sign_Taxi.jpg","2"
"091219","11:42:15","15","15","5.0.14.0","2","148","trial1","naming","0","0","0","0","football","0","3130","1","White_Screen.jpg","2","123","Ball_Football.jpg","2"
"091219","11:42:15","15","15","5.0.14.0","2","149","trial1","naming","0","0","0","0","pyramid","0","3831","1","White_Screen.jpg","2","188","Pyramid.jpg","2"
"091219","11:42:15","15","15","5.0.14.0","2","150","trial1","naming","0","0","0","0","battery","0","3373","1","White_Screen.jpg","2","132","Battery_AA.jpg","2"
"091219","11:42:15","15","15","5.0.14.0","2","151","trial1","naming","0","0","0","0","toad","0","3571","1","White_Screen.jpg","2","1","Toad.jpg","2"
"091219","11:42:15","15","15","5.0.14.0","2","152","trial1","naming","0","0","0","0","bicycle","0","4128","1","White_Screen.jpg","2","180","Bicycle_Kids.jpg","2"
"091219","11:42:15","15","15","5.0.14.0","2","154","trial1","naming","0","0","0","0","spiral staircase","0","5351","1","White_Screen.jpg","2","58","Staircase_Curving.jpg","2"
"091219","11:42:15","15","15","5.0.14.0","2","155","trial1","naming","0","0","0","0","heat lamp","0","5602","1","White_Screen.jpg","2","120","Light_Studio.jpg","2"
"091219","11:42:15","15","15","5.0.14.0","2","156","trial1","naming","0","0","0","0","tree house","0","4704","1","White_Screen.jpg","2","88","TreeHouse.jpg","2"
"091219","11:42:15","15","15","5.0.14.0","2","157","trial1","naming","0","0","0","0","fire starter","0","6900","1","White_Screen.jpg","2","79","FlintIgniter.jpg","2"
"091219","11:42:15","15","15","5.0.14.0","2","158","trial1","naming","0","0","0","0","iguana","0","6216","1","White_Screen.jpg","2","21","Iguana.jpg","2"
"091219","11:42:15","15","15","5.0.14.0","2","159","trial1","naming","0","0","0","0","hankercheif","0","5657","1","White_Screen.jpg","2","82","KitchenCloth.jpg","2"
"091219","11:42:15","15","15","5.0.14.0","2","160","trial1","naming","0","0","0","0","water gun","0","5582","1","White_Screen.jpg","2","91","WaterGun.jpg","2"
"091219","11:42:15","15","15","5.0.14.0","2","161","trial1","naming","0","0","0","0","swingset","0","5773","1","White_Screen.jpg","2","103","Swing_Child.jpg","2"
"091219","11:42:15","15","15","5.0.14.0","2","162","trial1","naming","0","0","0","0","office chair","0","4007","1","White_Screen.jpg","3","64","Chair_Office.jpg","3"
"091219","11:42:15","15","15","5.0.14.0","2","163","trial1","naming","0","0","0","0","fishing lure","0","8911","1","White_Screen.jpg","2","41","Hook_Fish.jpg","2"
"091219","11:42:15","15","15","5.0.14.0","2","164","trial1","naming","0","0","0","0","funnel","0","5151","1","White_Screen.jpg","2","134","Funnel.jpg","2"
"091219","11:42:15","15","15","5.0.14.0","2","165","trial1","naming","0","0","0","0","toucan","0","6975","1","White_Screen.jpg","2","176","Bird_Toucan.jpg","2"
"091219","11:42:15","15","15","5.0.14.0","2","166","trial1","naming","0","0","0","0","snowboard","0","4516","1","White_Screen.jpg","2","125","Snowboard.jpg","2"
"091219","11:42:15","15","15","5.0.14.0","2","167","trial1","naming","0","0","0","0","grater","0","3074","1","White_Screen.jpg","2","129","Cheesegrater_Handheld.jpg","2"
"091219","11:42:15","15","15","5.0.14.0","2","168","trial1","naming","0","0","0","0","pancakes","0","6008","1","White_Screen.jpg","2","111","Pancakes.jpg","2"
"091219","11:42:15","15","15","5.0.14.0","2","169","trial1","naming","0","0","0","0","tricycle","0","4286","1","White_Screen.jpg","2","35","Tricycle.jpg","2"
"091219","11:42:15","15","15","5.0.14.0","2","170","trial1","naming","0","0","0","0","answering machine","0","7114","1","White_Screen.jpg","2","37","AnsweringMachine.jpg","2"
"091219","11:42:15","15","15","5.0.14.0","2","171","trial1","naming","0","0","0","0","stool","0","6237","1","White_Screen.jpg","2","31","Stool_Camping.jpg","2"
"091219","11:42:15","15","15","5.0.14.0","2","172","trial1","naming","0","0","0","0","steering wheel","0","4802","1","White_Screen.jpg","2","51","Wheel_Steering.jpg","2"
"091219","11:42:15","15","15","5.0.14.0","2","173","trial1","naming","0","0","0","0","cucumber","0","6173","1","White_Screen.jpg","2","119","Cucumber.jpg","2"
"091219","11:42:15","15","15","5.0.14.0","2","174","trial1","naming","0","0","0","0","clarinet","0","5046","1","White_Screen.jpg","2","184","Clarinet.jpg","2"
"091219","11:42:15","15","15","5.0.14.0","2","175","trial1","naming","0","0","0","0","bike helmet","0","7751","1","White_Screen.jpg","2","47","Helmet_Bicycle.jpg","2"
"091219","11:42:15","15","15","5.0.14.0","2","176","trial1","naming","0","0","0","0","drum set","0","6069","1","White_Screen.jpg","12","72","Drum_Set.jpg","12"
"091219","11:42:15","15","15","5.0.14.0","2","177","trial1","naming","0","0","0","0","toaster","0","5906","1","White_Screen.jpg","2","172","Toaster_Antique.jpg","2"
"091219","11:42:15","15","15","5.0.14.0","2","178","trial1","naming","0","0","0","0","needle nose pliers","0","7970","1","White_Screen.jpg","2","171","Pliers_NeedleNose.jpg","2"
"091219","11:42:15","15","15","5.0.14.0","2","179","trial1","naming","0","0","0","0","table saw","0","4979","1","White_Screen.jpg","2","8","Table_Saw.jpg","2"
"091219","11:42:15","15","15","5.0.14.0","2","180","trial1","naming","0","0","0","0","garden hose","0","4716","1","White_Screen.jpg","2","149","Hose_Garden.jpg","2"
"091219","11:42:15","15","15","5.0.14.0","2","181","trial1","naming","0","0","0","0","abikus","0","10000","1","White_Screen.jpg","2","56","Abacus.jpg","2"
"091219","11:42:15","15","15","5.0.14.0","2","182","trial1","naming","0","0","0","0","bumper car","0","6359","1","White_Screen.jpg","2","65","BumperCar.jpg","2"
"091219","11:42:15","15","15","5.0.14.0","2","183","trial1","naming","0","0","0","0","film projector","0","10000","1","White_Screen.jpg","2","167","Projector_Film.jpg","2"
"091219","11:42:15","15","15","5.0.14.0","2","184","trial1","naming","0","0","0","0","foundation","0","10000","1","White_Screen.jpg","2","16","Makeup_Compact.jpg","2"
"091219","11:42:15","15","15","5.0.14.0","2","185","trial1","naming","0","0","0","0","paper clip","0","6118","1","White_Screen.jpg","2","33","Clip_Binder.jpg","2"
"091219","11:42:15","15","15","5.0.14.0","2","186","trial1","naming","0","0","0","0","clapper","0","4041","1","White_Screen.jpg","2","189","MovieSlate.jpg","2"
"091219","11:42:15","15","15","5.0.14.0","2","187","trial1","naming","0","0","0","0","ice scraper","0","10000","1","White_Screen.jpg","2","28","Brush_Windshield.jpg","2"
"091219","11:42:15","15","15","5.0.14.0","2","188","trial1","naming","0","0","0","0","birthday hat","0","7086","1","White_Screen.jpg","2","141","Hat_Party.jpg","2"
"091219","11:42:15","15","15","5.0.14.0","2","189","trial1","naming","0","0","0","0","jars of food","0","10000","1","White_Screen.jpg","2","113","Jars_PetFood.jpg","2"
"091219","11:42:15","15","15","5.0.14.0","2","190","trial1","naming","0","0","0","0","teddy bear","0","10000","1","White_Screen.jpg","2","10","Toy_BearBrownPlushie.jpg","2"
"091219","11:42:15","15","15","5.0.14.0","2","191","trial1","naming","0","0","0","0","awning","0","5294","1","White_Screen.jpg","2","6","Awning.jpg","2"
"091219","11:42:15","15","15","5.0.14.0","2","192","trial1","naming","0","0","0","0","toaster","0","4442","1","White_Screen.jpg","2","139","Toaster_MetalSleek.jpg","2"
"091219","11:42:15","15","15","5.0.14.0","2","193","trial1","naming","0","0","0","0","window","0","4882","1","White_Screen.jpg","2","181","Window.jpg","2"
"091219","11:42:15","15","15","5.0.14.0","2","194","trial1","naming","0","0","0","0","tool","0","10000","1","White_Screen.jpg","2","130","Toy_SandRake.jpg","2"
"091219","11:42:15","15","15","5.0.14.0","2","195","trial1","naming","0","0","0","0","dog collar","0","10000","1","White_Screen.jpg","2","159","MetalChain.jpg","2"
"091219","11:42:15","15","15","5.0.14.0","2","196","trial1","naming","0","0","0","0","cap","0","7034","1","White_Screen.jpg","2","195","Hat_Baseball.jpg","2"
"091219","11:42:15","15","15","5.0.14.0","2","197","trial1","naming","0","0","0","0","window","0","5473","1","White_Screen.jpg","2","124","DormerWindow.jpg","2"
"091219","11:42:15","15","15","5.0.14.0","2","198","trial1","naming","0","0","0","0","bench","0","3581","1","White_Screen.jpg","2","86","Bench_Wooden.jpg","2"
"091219","11:42:15","15","15","5.0.14.0","2","199","trial1","naming","0","0","0","0","red blanket","0","10000","1","White_Screen.jpg","2","190","ClothRed.jpg","2"
"091219","11:42:15","15","15","5.0.14.0","2","200","trial1","naming","0","0","0","0","pyramid block","0","6541","1","White_Screen.jpg","2","179","PyramidWooden.jpg","2"
"091219","11:42:15","15","15","5.0.14.0","2","201","trial1","naming","0","0","0","0","sheep toy","0","10000","1","White_Screen.jpg","2","55","Toy_LambPlushie.jpg","2"
"091219","11:42:15","15","15","5.0.14.0","2","202","trial1","naming","0","0","0","0","cactus fruit","0","10000","1","White_Screen.jpg","2","137","Fruit_Cactus.jpg","2"
"091219","11:42:15","15","15","5.0.14.0","2","203","trial1","naming","0","0","0","0","outhouse","0","10000","1","White_Screen.jpg","2","45","Outhouse.jpg","2"
"091219","11:42:15","15","15","5.0.14.0","3","1","demographics_block","gender","0","0","0","0","Male","1","9362","0","0","0","0","0","0"
"091219","11:42:15","15","15","5.0.14.0","3","1","demographics_block","age","0","0","0","0","35","1","9362","0","0","0","0","0","0"
"091219","11:42:15","15","15","5.0.14.0","3","1","demographics_block","education","0","0","0","0","16","1","9362","0","0","0","0","0","0"
"091219","11:42:15","15","15","5.0.14.0","3","2","demographics_block","left_right_handed","0","0","0","0","Left","1","6207","0","0","0","0","0","0"
"091219","11:42:15","15","15","5.0.14.0","3","2","demographics_block","raceoption1","0","0","0","0","0","1","6207","0","0","0","0","0","0"
"091219","11:42:15","15","15","5.0.14.0","3","2","demographics_block","raceoption2","0","0","0","0","","1","6207","0","0","0","0","0","0"
"091219","11:42:15","15","15","5.0.14.0","3","2","demographics_block","raceoption3","0","0","0","0","","1","6207","0","0","0","0","0","0"
"091219","11:42:15","15","15","5.0.14.0","3","2","demographics_block","raceoption4","0","0","0","0","","1","6207","0","0","0","0","0","0"
"091219","11:42:15","15","15","5.0.14.0","3","2","demographics_block","raceoption5","0","0","0","0","","1","6207","0","0","0","0","0","0"
"091219","11:42:15","15","15","5.0.14.0","3","2","demographics_block","raceoption6","0","0","0","0","","1","6207","0","0","0","0","0","0"
"091219","11:42:15","15","15","5.0.14.0","3","2","demographics_block","raceoption7","0","0","0","0","","1","6207","0","0","0","0","0","0"
"091219","11:42:15","15","15","5.0.14.0","3","2","demographics_block","raceoption8","0","0","0","0","","1","6207","0","0","0","0","0","0"
"091219","11:42:15","15","15","5.0.14.0","3","2","demographics_block","raceoption9","0","0","0","0","","1","6207","0","0","0","0","0","0"
"091219","11:42:15","15","15","5.0.14.0","3","2","demographics_block","raceother","0","0","0","0","","1","6207","0","0","0","0","0","0"
"091219","11:42:15","15","15","5.0.14.0","3","2","demographics_block","raceother","0","0","0","0","","1","6207","0","0","0","0","0","0"
"091219","11:42:15","15","15","5.0.14.0","3","2","demographics_block","english_language","0","0","0","0","Yes","1","6207","0","0","0","0","0","0"
"091219","11:42:15","15","15","5.0.14.0","3","2","demographics_block","english_languageother","0","0","0","0","","1","6207","0","0","0","0","0","0"
"091219","11:42:15","15","15","5.0.14.0","3","3","demographics_block","eyesight","0","0","0","0","Yes","1","8744","0","0","0","0","0","0"
"091219","11:42:15","15","15","5.0.14.0","3","3","demographics_block","colorblind","0","0","0","0","No","1","8744","0","0","0","0","0","0"
"091219","11:42:15","15","15","5.0.14.0","4","1","worker_id_block","worker_id_textbox","0","0","0","0","A1YSBD5XW5UCR0","1","4851","0","0","0","0","0","0"
"date","time","group","subject","build","blocknum","trialnum","blockcode","trialcode","pretrialpause","posttrialpause","trialduration","trialtimeout","response","correct","latency","stimulusnumber1","stimulusitem1","stimulusonset1","stimulusnumber2","stimulusitem2","stimulusonset2"
"091219","11:47:41","16","16","5.0.14.0","2","1","trial1","naming","0","0","0","0","apple","0","3263","1","White_Screen.jpg","209","30","Cherry.jpg","209"
"091219","11:47:41","16","16","5.0.14.0","2","2","trial1","naming","0","0","0","0","pyriamid","0","5864","1","White_Screen.jpg","8","179","PyramidWooden.jpg","8"
"091219","11:47:41","16","16","5.0.14.0","2","3","trial1","naming","0","0","0","0","grapes","0","4418","1","White_Screen.jpg","8","126","Currants.jpg","8"
"091219","11:47:41","16","16","5.0.14.0","2","4","trial1","naming","0","0","0","0","coffee cup","0","8854","1","White_Screen.jpg","9","66","Mug_Ceramic.jpg","9"
"091219","11:47:41","16","16","5.0.14.0","2","5","trial1","naming","0","0","0","0","outlet","0","4715","1","White_Screen.jpg","10","177","ElectricOutlet.jpg","10"
"091219","11:47:41","16","16","5.0.14.0","2","6","trial1","naming","0","0","0","0","abacus","0","5860","1","White_Screen.jpg","10","56","Abacus.jpg","10"
"091219","11:47:41","16","16","5.0.14.0","2","7","trial1","naming","0","0","0","0","funnel","0","4044","1","White_Screen.jpg","8","134","Funnel.jpg","8"
"091219","11:47:41","16","16","5.0.14.0","2","8","trial1","naming","0","0","0","0","bumper car","0","8721","1","White_Screen.jpg","8","65","BumperCar.jpg","8"
"091219","11:47:41","16","16","5.0.14.0","2","9","trial1","naming","0","0","0","0","olives","0","4618","1","White_Screen.jpg","10","60","Can_Olives.jpg","10"
"091219","11:47:41","16","16","5.0.14.0","2","10","trial1","naming","0","0","0","0","trowel","0","7218","1","White_Screen.jpg","8","130","Toy_SandRake.jpg","8"
"091219","11:47:41","16","16","5.0.14.0","2","11","trial1","naming","0","0","0","0","chain","0","5467","1","White_Screen.jpg","8","159","MetalChain.jpg","8"
"091219","11:47:41","16","16","5.0.14.0","2","12","trial1","naming","0","0","0","0","brief case","0","6380","1","White_Screen.jpg","9","63","Bag_Computer.jpg","9"
"091219","11:47:41","16","16","5.0.14.0","2","13","trial1","naming","0","0","0","0","desk","0","4858","1","White_Screen.jpg","8","93","Desk_White.jpg","8"
"091219","11:47:41","16","16","5.0.14.0","2","14","trial1","naming","0","0","0","0","frying pan","0","4883","1","White_Screen.jpg","8","70","PanCooking.jpg","8"
"091219","11:47:41","16","16","5.0.14.0","2","15","trial1","naming","0","0","0","0","truck","0","4881","1","White_Screen.jpg","8","57","Truck_Army.jpg","8"
"091219","11:47:41","16","16","5.0.14.0","2","16","trial1","naming","0","0","0","0","utility box","0","8921","1","White_Screen.jpg","8","109","FuseBox.jpg","8"
"091219","11:47:41","16","16","5.0.14.0","2","17","trial1","naming","0","0","0","0","teddy bear","0","5800","1","White_Screen.jpg","8","10","Toy_BearBrownPlushie.jpg","8"
"091219","11:47:41","16","16","5.0.14.0","2","18","trial1","naming","0","0","0","0","ash tray","0","7248","1","White_Screen.jpg","19","2","Ashtray_Cigarettes.jpg","19"
"091219","11:47:41","16","16","5.0.14.0","2","19","trial1","naming","0","0","0","0","alien toy","0","8971","1","White_Screen.jpg","10","198","Toy_Alien.jpg","10"
"091219","11:47:41","16","16","5.0.14.0","2","20","trial1","naming","0","0","0","0","boat","0","4678","1","White_Screen.jpg","8","36","Boat_Colourful.jpg","8"
"091219","11:47:41","16","16","5.0.14.0","2","21","trial1","naming","0","0","0","0","staples","0","4431","1","White_Screen.jpg","12","38","Staples.jpg","12"
"091219","11:47:41","16","16","5.0.14.0","2","22","trial1","naming","0","0","0","0","desk chair","0","7013","1","White_Screen.jpg","10","64","Chair_Office.jpg","10"
"091219","11:47:41","16","16","5.0.14.0","2","23","trial1","naming","0","0","0","0","bone toy","0","5673","1","White_Screen.jpg","10","183","DogToy.jpg","10"
"091219","11:47:41","16","16","5.0.14.0","2","24","trial1","naming","0","0","0","0","polar bear","0","4573","1","White_Screen.jpg","10","110","BearPolar.jpg","10"
"091219","11:47:41","16","16","5.0.14.0","2","25","trial1","naming","0","0","0","0","chess bishop","0","6841","1","White_Screen.jpg","8","68","ChessPiece_Bishop.jpg","8"
"091219","11:47:41","16","16","5.0.14.0","2","26","trial1","naming","0","0","0","0","dvd player","0","9108","1","White_Screen.jpg","10","136","DVDPlayer.jpg","10"
"091219","11:47:41","16","16","5.0.14.0","2","27","trial1","naming","0","0","0","0","milk shake","0","5469","1","White_Screen.jpg","10","3","Milkshake_Chocolate.jpg","10"
"091219","11:47:41","16","16","5.0.14.0","2","28","trial1","naming","0","0","0","0","car shrapper","0","7105","1","White_Screen.jpg","10","28","Brush_Windshield.jpg","10"
"091219","11:47:41","16","16","5.0.14.0","2","29","trial1","naming","0","0","0","0","shoe","0","5075","1","White_Screen.jpg","11","76","Shoe_Men.jpg","11"
"091219","11:47:41","16","16","5.0.14.0","2","30","trial1","naming","0","0","0","0","mail","0","6453","1","White_Screen.jpg","7","153","LetterMail.jpg","7"
"091219","11:47:41","16","16","5.0.14.0","2","31","trial1","naming","0","0","0","0","keg","0","4099","1","White_Screen.jpg","10","145","Keg.jpg","10"
"091219","11:47:41","16","16","5.0.14.0","2","32","trial1","naming","0","0","0","0","lamp","0","6693","1","White_Screen.jpg","8","120","Light_Studio.jpg","8"
"091219","11:47:41","16","16","5.0.14.0","2","33","trial1","naming","0","0","0","0","almonds","0","4624","1","White_Screen.jpg","8","182","Nuts_PeanutsPeeled.jpg","8"
"091219","11:47:41","16","16","5.0.14.0","2","34","trial1","naming","0","0","0","0","candalabra toy","0","7319","1","White_Screen.jpg","10","71","LumiereBeautyBeast.jpg","10"
"091219","11:47:41","16","16","5.0.14.0","2","35","trial1","naming","0","0","0","0","moraccas","0","6657","1","White_Screen.jpg","11","7","Maraca.jpg","11"
"091219","11:47:41","16","16","5.0.14.0","2","36","trial1","naming","0","0","0","0","clogs","0","4750","1","White_Screen.jpg","9","49","Shoes_Mould.jpg","9"
"091219","11:47:41","16","16","5.0.14.0","2","37","trial1","naming","0","0","0","0","wire cutters","0","7605","1","White_Screen.jpg","10","171","Pliers_NeedleNose.jpg","10"
"091219","11:47:41","16","16","5.0.14.0","2","38","trial1","naming","0","0","0","0","van","0","5808","1","White_Screen.jpg","8","44","Van.jpg","8"
"091219","11:47:41","16","16","5.0.14.0","2","39","trial1","naming","0","0","0","0","blanket","0","5875","1","White_Screen.jpg","7","190","ClothRed.jpg","7"
"091219","11:47:41","16","16","5.0.14.0","2","40","trial1","naming","0","0","0","0","slide","0","5736","1","White_Screen.jpg","10","95","Slide.jpg","10"
"091219","11:47:41","16","16","5.0.14.0","2","41","trial1","naming","0","0","0","0","eggshell foam","0","9765","1","White_Screen.jpg","8","81","Foam_Accoustic.jpg","8"
"091219","11:47:41","16","16","5.0.14.0","2","42","trial1","naming","0","0","0","0","toy gun","0","6456","1","White_Screen.jpg","9","26","Gun_Nerf.jpg","9"
"091219","11:47:41","16","16","5.0.14.0","2","43","trial1","naming","0","0","0","0","stuffed lamb","0","7705","1","White_Screen.jpg","10","55","Toy_LambPlushie.jpg","10"
"091219","11:47:41","16","16","5.0.14.0","2","44","trial1","naming","0","0","0","0","fruit","0","6186","1","White_Screen.jpg","8","137","Fruit_Cactus.jpg","8"
"091219","11:47:41","16","16","5.0.14.0","2","45","trial1","naming","0","0","0","0","berries","0","6625","1","White_Screen.jpg","10","24","Cranberry.jpg","10"
"091219","11:47:41","16","16","5.0.14.0","2","46","trial1","naming","0","0","0","0","ballons","0","5102","1","White_Screen.jpg","8","141","Hat_Party.jpg","8"
"091219","11:47:41","16","16","5.0.14.0","2","47","trial1","naming","0","0","0","0","football","0","5494","1","White_Screen.jpg","9","123","Ball_Football.jpg","9"
"091219","11:47:41","16","16","5.0.14.0","2","48","trial1","naming","0","0","0","0","evaporated milk","0","7258","1","White_Screen.jpg","8","5","Can_Milk.jpg","8"
"091219","11:47:41","16","16","5.0.14.0","2","49","trial1","naming","0","0","0","0","bellows","0","7106","1","White_Screen.jpg","10","42","Bellows.jpg","10"
"091219","11:47:41","16","16","5.0.14.0","2","50","trial1","naming","0","0","0","0","alarm clock","0","5325","1","White_Screen.jpg","9","59","Clock_Digital.jpg","9"
"091219","11:47:41","16","16","5.0.14.0","2","52","trial1","naming","0","0","0","0","battery","0","6537","1","White_Screen.jpg","9","132","Battery_AA.jpg","9"
"091219","11:47:41","16","16","5.0.14.0","2","53","trial1","naming","0","0","0","0","thing","0","7432","1","White_Screen.jpg","10","165","Jacks.jpg","10"
"091219","11:47:41","16","16","5.0.14.0","2","54","trial1","naming","0","0","0","0","saw blade","0","5392","1","White_Screen.jpg","9","140","Blade_Tablesaw.jpg","9"
"091219","11:47:41","16","16","5.0.14.0","2","55","trial1","naming","0","0","0","0","baseball cap","0","6431","1","White_Screen.jpg","8","195","Hat_Baseball.jpg","8"
"091219","11:47:41","16","16","5.0.14.0","2","56","trial1","naming","0","0","0","0","diving board","0","6334","1","White_Screen.jpg","8","115","DivingBoard.jpg","8"
"091219","11:47:41","16","16","5.0.14.0","2","57","trial1","naming","0","0","0","0","oil can","0","5171","1","White_Screen.jpg","9","97","Cannister_GasVintage.jpg","9"
"091219","11:47:41","16","16","5.0.14.0","2","58","trial1","naming","0","0","0","0","crossant","0","7944","1","White_Screen.jpg","10","108","Croissant.jpg","10"
"091219","11:47:41","16","16","5.0.14.0","2","59","trial1","naming","0","0","0","0","osterage","0","6640","1","White_Screen.jpg","8","133","Ostrich.jpg","8"
"091219","11:47:41","16","16","5.0.14.0","2","60","trial1","naming","0","0","0","0","stamp","0","5632","1","White_Screen.jpg","10","98","Embosser.jpg","10"
"091219","11:47:41","16","16","5.0.14.0","2","61","trial1","naming","0","0","0","0","tree house","0","5548","1","White_Screen.jpg","8","88","TreeHouse.jpg","8"
"091219","11:47:41","16","16","5.0.14.0","2","62","trial1","naming","0","0","0","0","atv","0","5507","1","White_Screen.jpg","8","157","AllTerrain.jpg","8"
"091219","11:47:41","16","16","5.0.14.0","2","63","trial1","naming","0","0","0","0","cathode ray tube monit","0","10000","1","White_Screen.jpg","10","96","Monitor.jpg","10"
"091219","11:47:41","16","16","5.0.14.0","2","64","trial1","naming","0","0","0","0","skull","0","4034","1","White_Screen.jpg","9","19","HumanSkull.jpg","9"
"091219","11:47:41","16","16","5.0.14.0","2","65","trial1","naming","0","0","0","0","bar","0","4955","1","White_Screen.jpg","10","100","AlcoholBar.jpg","10"
"091219","11:47:41","16","16","5.0.14.0","2","66","trial1","naming","0","0","0","0","bike","0","5384","1","White_Screen.jpg","8","180","Bicycle_Kids.jpg","8"
"091219","11:47:41","16","16","5.0.14.0","2","67","trial1","naming","0","0","0","0","golf bag","0","5165","1","White_Screen.jpg","8","29","Golf_Bag.jpg","8"
"091219","11:47:41","16","16","5.0.14.0","2","68","trial1","naming","0","0","0","0","outdoor chair","0","7221","1","White_Screen.jpg","9","31","Stool_Camping.jpg","9"
"091219","11:47:41","16","16","5.0.14.0","2","69","trial1","naming","0","0","0","0","storage jars","0","8409","1","White_Screen.jpg","10","113","Jars_PetFood.jpg","10"
"091219","11:47:41","16","16","5.0.14.0","2","70","trial1","naming","0","0","0","0","tricycle","0","6182","1","White_Screen.jpg","10","35","Tricycle.jpg","10"
"091219","11:47:41","16","16","5.0.14.0","2","71","trial1","naming","0","0","0","0","seal","0","4799","1","White_Screen.jpg","8","83","Seal_animal.jpg","8"
"091219","11:47:41","16","16","5.0.14.0","2","72","trial1","naming","0","0","0","0","car ligther","0","8204","1","White_Screen.jpg","9","185","CarLighter.jpg","9"
"091219","11:47:41","16","16","5.0.14.0","2","73","trial1","naming","0","0","0","0","buggel","0","4980","1","White_Screen.jpg","10","74","Bugle.jpg","10"
"091219","11:47:41","16","16","5.0.14.0","2","74","trial1","naming","0","0","0","0","ice cubes","0","4840","1","White_Screen.jpg","8","178","IceCubes copy.jpg","8"
"091219","11:47:41","16","16","5.0.14.0","2","75","trial1","naming","0","0","0","0","street lamp","0","9463","1","White_Screen.jpg","8","162","LampPost_ThreeBulbs.jpg","8"
"091219","11:47:41","16","16","5.0.14.0","2","76","trial1","naming","0","0","0","0","earth","0","4348","1","White_Screen.jpg","9","40","Earth_Planet.jpg","9"
"091219","11:47:41","16","16","5.0.14.0","2","77","trial1","naming","0","0","0","0","maccaque","0","5298","1","White_Screen.jpg","8","176","Bird_Toucan.jpg","8"
"091219","11:47:41","16","16","5.0.14.0","2","78","trial1","naming","0","0","0","0","olives","0","4277","1","White_Screen.jpg","8","13","Olives.jpg","8"
"091219","11:47:41","16","16","5.0.14.0","2","79","trial1","naming","0","0","0","0","table saw","0","5815","1","White_Screen.jpg","8","8","Table_Saw.jpg","8"
"091219","11:47:41","16","16","5.0.14.0","2","80","trial1","naming","0","0","0","0","lips","0","4763","1","White_Screen.jpg","8","92","Lips_Real.jpg","8"
"091219","11:47:41","16","16","5.0.14.0","2","81","trial1","naming","0","0","0","0","mattress","0","4871","1","White_Screen.jpg","8","69","Mattress.jpg","8"
"091219","11:47:41","16","16","5.0.14.0","2","82","trial1","naming","0","0","0","0","wasabi","0","6843","1","White_Screen.jpg","10","20","Guacamole.jpg","10"
"091219","11:47:41","16","16","5.0.14.0","2","83","trial1","naming","0","0","0","0","oprea glasses","0","6976","1","White_Screen.jpg","8","186","OperaGlasses.jpg","8"
"091219","11:47:41","16","16","5.0.14.0","2","84","trial1","naming","0","0","0","0","fancy door","0","7547","1","White_Screen.jpg","8","131","Door_Blue.jpg","8"
"091219","11:47:41","16","16","5.0.14.0","2","85","trial1","naming","0","0","0","0","berret","0","7926","1","White_Screen.jpg","10","11","Hat_Beret.jpg","10"
"091219","11:47:41","16","16","5.0.14.0","2","86","trial1","naming","0","0","0","0","film progector","0","6133","1","White_Screen.jpg","8","167","Projector_Film.jpg","8"
"091219","11:47:41","16","16","5.0.14.0","2","87","trial1","naming","0","0","0","0","bench","0","4594","1","White_Screen.jpg","13","86","Bench_Wooden.jpg","13"
"091219","11:47:41","16","16","5.0.14.0","2","88","trial1","naming","0","0","0","0","jukebox","0","5468","1","White_Screen.jpg","9","147","JukeboxAntique.jpg","9"
"091219","11:47:41","16","16","5.0.14.0","2","89","trial1","naming","0","0","0","0","thumb drive","0","5955","1","White_Screen.jpg","10","169","USBKey.jpg","10"
"091219","11:47:41","16","16","5.0.14.0","2","90","trial1","naming","0","0","0","0","stool","0","5309","1","White_Screen.jpg","10","114","Stool_Metal.jpg","10"
"091219","11:47:41","16","16","5.0.14.0","2","91","trial1","naming","0","0","0","0","elephant toy","0","6493","1","White_Screen.jpg","8","138","Toy_ElephantPlastic.jpg","8"
"091219","11:47:41","16","16","5.0.14.0","2","92","trial1","naming","0","0","0","0","jar","0","5699","1","White_Screen.jpg","10","193","Vase_EarthToned.jpg","10"
"091219","11:47:41","16","16","5.0.14.0","2","93","trial1","naming","0","0","0","0","bike safteylight","0","10000","1","White_Screen.jpg","10","121","BicycleReflector.jpg","10"
"091219","11:47:41","16","16","5.0.14.0","2","94","trial1","naming","0","0","0","0"," swan","0","8120","1","White_Screen.jpg","8","175","Swan.jpg","8"
"091219","11:47:41","16","16","5.0.14.0","2","95","trial1","naming","0","0","0","0","lighter","0","7064","1","White_Screen.jpg","11","79","FlintIgniter.jpg","11"
"091219","11:47:41","16","16","5.0.14.0","2","96","trial1","naming","0","0","0","0","potato","0","6039","1","White_Screen.jpg","9","112","Potato.jpg","9"
"091219","11:47:41","16","16","5.0.14.0","2","97","trial1","naming","0","0","0","0","compact","0","4424","1","White_Screen.jpg","10","16","Makeup_Compact.jpg","10"
"091219","11:47:41","16","16","5.0.14.0","2","98","trial1","naming","0","0","0","0","diadam","0","4261","1","White_Screen.jpg","8","122","Tiara.jpg","8"
"091219","11:47:41","16","16","5.0.14.0","2","99","trial1","naming","0","0","0","0","step","0","4618","1","White_Screen.jpg","8","191","Exercise_Stepper.jpg","8"
"091219","11:47:41","16","16","5.0.14.0","2","100","trial1","naming","0","0","0","0","switch","0","6654","1","White_Screen.jpg","8","78","TelephoneJack.jpg","8"
"091219","11:47:41","16","16","5.0.14.0","2","101","trial1","naming","0","0","0","0","espresso machine","0","7477","1","White_Screen.jpg","9","53","EspressoMachine.jpg","9"
"091219","11:47:41","16","16","5.0.14.0","2","103","trial1","naming","0","0","0","0","stack of pancakes","0","8053","1","White_Screen.jpg","9","111","Pancakes.jpg","9"
"091219","11:47:41","16","16","5.0.14.0","2","104","trial1","naming","0","0","0","0","flowers","0","4681","1","White_Screen.jpg","11","158","Flower_Orchid.jpg","11"
"091219","11:47:41","16","16","5.0.14.0","2","105","trial1","naming","0","0","0","0","ace wraps","0","5365","1","White_Screen.jpg","10","150","Bandage_Wrap.jpg","10"
"091219","11:47:41","16","16","5.0.14.0","2","106","trial1","naming","0","0","0","0","light","0","4630","1","White_Screen.jpg","8","155","Light_Halogen.jpg","8"
"091219","11:47:41","16","16","5.0.14.0","2","107","trial1","naming","0","0","0","0","hose","0","6869","1","White_Screen.jpg","9","149","Hose_Garden.jpg","9"
"091219","11:47:41","16","16","5.0.14.0","2","108","trial1","naming","0","0","0","0","cymballs","0","4928","1","White_Screen.jpg","10","17","Cymbals.jpg","10"
"091219","11:47:41","16","16","5.0.14.0","2","109","trial1","naming","0","0","0","0","phone holder","0","7176","1","White_Screen.jpg","8","80","Light_Fixtures.jpg","8"
"091219","11:47:41","16","16","5.0.14.0","2","110","trial1","naming","0","0","0","0","stroller","0","6444","1","White_Screen.jpg","7","127","Toy_Stroller.jpg","7"
"091219","11:47:41","16","16","5.0.14.0","2","111","trial1","naming","0","0","0","0","checkers board","0","5856","1","White_Screen.jpg","8","54","Boardgame_Checkers.jpg","8"
"091219","11:47:41","16","16","5.0.14.0","2","112","trial1","naming","0","0","0","0","snow board","0","7170","1","White_Screen.jpg","11","125","Snowboard.jpg","11"
"091219","11:47:41","16","16","5.0.14.0","2","113","trial1","naming","0","0","0","0","sushi roll","0","7045","1","White_Screen.jpg","10","77","Sushi.jpg","10"
"091219","11:47:41","16","16","5.0.14.0","2","114","trial1","naming","0","0","0","0","deer toy","0","6840","1","White_Screen.jpg","8","142","Toy_Moose.jpg","8"
"091219","11:47:41","16","16","5.0.14.0","2","115","trial1","naming","0","0","0","0","toaster","0","4438","1","White_Screen.jpg","10","139","Toaster_MetalSleek.jpg","10"
"091219","11:47:41","16","16","5.0.14.0","2","116","trial1","naming","0","0","0","0","out house","0","5467","1","White_Screen.jpg","10","45","Outhouse.jpg","10"
"091219","11:47:41","16","16","5.0.14.0","2","117","trial1","naming","0","0","0","0","ginger root","0","6733","1","White_Screen.jpg","10","22","Ginger.jpg","10"
"091219","11:47:41","16","16","5.0.14.0","2","118","trial1","naming","0","0","0","0","four-sided die","0","6129","1","White_Screen.jpg","7","99","Tetrahedron.jpg","7"
"091219","11:47:41","16","16","5.0.14.0","2","119","trial1","naming","0","0","0","0","thermostat","0","6494","1","White_Screen.jpg","8","73","Thermostat_Digital.jpg","8"
"091219","11:47:41","16","16","5.0.14.0","2","120","trial1","naming","0","0","0","0","tropedo","0","6027","1","White_Screen.jpg","8","107","Torpedo.jpg","8"
"091219","11:47:41","16","16","5.0.14.0","2","121","trial1","naming","0","0","0","0","sink","0","4617","1","White_Screen.jpg","8","102","Sink_Bathroom.jpg","8"
"091219","11:47:41","16","16","5.0.14.0","2","122","trial1","naming","0","0","0","0","steeringwheel","0","10000","1","White_Screen.jpg","8","51","Wheel_Steering.jpg","8"
"091219","11:47:41","16","16","5.0.14.0","2","123","trial1","naming","0","0","0","0","cornicopia","0","5887","1","White_Screen.jpg","8","25","Cornucopia.jpg","8"
"091219","11:47:41","16","16","5.0.14.0","2","124","trial1","naming","0","0","0","0","sippy cup","0","7059","1","White_Screen.jpg","10","32","Cup_sippy.jpg","10"
"091219","11:47:41","16","16","5.0.14.0","2","125","trial1","naming","0","0","0","0","chain saw","0","5640","1","White_Screen.jpg","11","52","Chainsaw.jpg","11"
"091219","11:47:41","16","16","5.0.14.0","2","126","trial1","naming","0","0","0","0","milk shake","0","5938","1","White_Screen.jpg","9","104","Milkshake_StrawberryStraw.jpg","9"
"091219","11:47:41","16","16","5.0.14.0","2","127","trial1","naming","0","0","0","0","medical bag","0","6802","1","White_Screen.jpg","10","187","Bag_Doctor.jpg","10"
"091219","11:47:41","16","16","5.0.14.0","2","128","trial1","naming","0","0","0","0","squirt gun","0","6488","1","White_Screen.jpg","10","91","WaterGun.jpg","10"
"091219","11:47:41","16","16","5.0.14.0","2","129","trial1","naming","0","0","0","0","swing","0","5597","1","White_Screen.jpg","10","103","Swing_Child.jpg","10"
"091219","11:47:41","16","16","5.0.14.0","2","130","trial1","naming","0","0","0","0","see-saw","0","4326","1","White_Screen.jpg","8","106","Toy_SeeSaw.jpg","8"
"091219","11:47:41","16","16","5.0.14.0","2","131","trial1","naming","0","0","0","0","peanut","0","8447","1","White_Screen.jpg","8","101","Nuts_Peanuts.jpg","8"
"091219","11:47:41","16","16","5.0.14.0","2","132","trial1","naming","0","0","0","0","antler hat","0","6188","1","White_Screen.jpg","8","94","ReindeerHeadband.jpg","8"
"091219","11:47:41","16","16","5.0.14.0","2","133","trial1","naming","0","0","0","0","potato masher","0","5589","1","White_Screen.jpg","9","4","PotatoMasher_Grate.jpg","9"
"091219","11:47:41","16","16","5.0.14.0","2","134","trial1","naming","0","0","0","0","red onion","0","5549","1","White_Screen.jpg","11","148","OnionRed.jpg","11"
"091219","11:47:41","16","16","5.0.14.0","2","135","trial1","naming","0","0","0","0","dish towle","0","5269","1","White_Screen.jpg","8","82","KitchenCloth.jpg","8"
"091219","11:47:41","16","16","5.0.14.0","2","136","trial1","naming","0","0","0","0","dog","0","3106","1","White_Screen.jpg","10","9","Dog_SaintBernard.jpg","10"
"091219","11:47:41","16","16","5.0.14.0","2","137","trial1","naming","0","0","0","0","puppet stage","0","6115","1","White_Screen.jpg","10","61","PuppetTheatre_BlueRed.jpg","10"
"091219","11:47:41","16","16","5.0.14.0","2","138","trial1","naming","0","0","0","0","lobster","0","3008","1","White_Screen.jpg","8","15","Lobster.jpg","8"
"091219","11:47:41","16","16","5.0.14.0","2","139","trial1","naming","0","0","0","0","candle","0","3605","1","White_Screen.jpg","8","50","Candle_Blue.jpg","8"
"091219","11:47:41","16","16","5.0.14.0","2","140","trial1","naming","0","0","0","0","chocolate ice cream","0","6747","1","White_Screen.jpg","10","197","IceCream_Chocolate.jpg","10"
"091219","11:47:41","16","16","5.0.14.0","2","141","trial1","naming","0","0","0","0","ice cubes","0","2842","1","White_Screen.jpg","8","194","IceCubes.jpg","8"
"091219","11:47:41","16","16","5.0.14.0","2","142","trial1","naming","0","0","0","0","bird house","0","3364","1","White_Screen.jpg","8","75","Birdhouse.jpg","8"
"091219","11:47:41","16","16","5.0.14.0","2","143","trial1","naming","0","0","0","0","heating lamp","0","5193","1","White_Screen.jpg","9","163","Heater_Infrared.jpg","9"
"091219","11:47:41","16","16","5.0.14.0","2","144","trial1","naming","0","0","0","0","lemoons","0","3048","1","White_Screen.jpg","8","90","Bowl_Lemons.jpg","8"
"091219","11:47:41","16","16","5.0.14.0","2","145","trial1","naming","0","0","0","0","tericata pot","0","7911","1","White_Screen.jpg","10","117","Pot_FlowerClay.jpg","10"
"091219","11:47:41","16","16","5.0.14.0","2","146","trial1","naming","0","0","0","0","cutting board","0","7526","1","White_Screen.jpg","9","144","CuttingBoard.jpg","9"
"091219","11:47:41","16","16","5.0.14.0","2","147","trial1","naming","0","0","0","0","handle bar","0","8222","1","White_Screen.jpg","9","67","BicycleBrake.jpg","9"
"091219","11:47:41","16","16","5.0.14.0","2","148","trial1","naming","0","0","0","0","frog","0","3502","1","White_Screen.jpg","9","1","Toad.jpg","9"
"091219","11:47:41","16","16","5.0.14.0","2","149","trial1","naming","0","0","0","0","scope","0","7981","1","White_Screen.jpg","11","89","Gun_Bazooka.jpg","11"
"091219","11:47:41","16","16","5.0.14.0","2","150","trial1","naming","0","0","0","0","hot plate","0","6227","1","White_Screen.jpg","10","39","Stove_Portable.jpg","10"
"091219","11:47:41","16","16","5.0.14.0","2","151","trial1","naming","0","0","0","0","slotted spoon","0","6232","1","White_Screen.jpg","10","168","Spoon_Serving.jpg","10"
"091219","11:47:41","16","16","5.0.14.0","2","152","trial1","naming","0","0","0","0","chocolate egg","0","7193","1","White_Screen.jpg","9","173","Egg_Chocolate.jpg","9"
"091219","11:47:41","16","16","5.0.14.0","2","154","trial1","naming","0","0","0","0","paper clip","0","6434","1","White_Screen.jpg","9","33","Clip_Binder.jpg","9"
"091219","11:47:41","16","16","5.0.14.0","2","155","trial1","naming","0","0","0","0","lizard","0","4268","1","White_Screen.jpg","10","21","Iguana.jpg","10"
"091219","11:47:41","16","16","5.0.14.0","2","156","trial1","naming","0","0","0","0","bottle","0","5941","1","White_Screen.jpg","9","87","EyeDrops.jpg","9"
"091219","11:47:41","16","16","5.0.14.0","2","157","trial1","naming","0","0","0","0","radio","0","3842","1","White_Screen.jpg","13","116","Radio_Vintage.jpg","13"
"091219","11:47:41","16","16","5.0.14.0","2","158","trial1","naming","0","0","0","0","pyramid","0","5211","1","White_Screen.jpg","9","188","Pyramid.jpg","9"
"091219","11:47:41","16","16","5.0.14.0","2","159","trial1","naming","0","0","0","0","egg beater","0","5618","1","White_Screen.jpg","8","23","Mixer_Hand.jpg","8"
"091219","11:47:41","16","16","5.0.14.0","2","160","trial1","naming","0","0","0","0","winodw","0","5709","1","White_Screen.jpg","9","181","Window.jpg","9"
"091219","11:47:41","16","16","5.0.14.0","2","161","trial1","naming","0","0","0","0","radio","0","8861","1","White_Screen.jpg","8","143","Phone_Military.jpg","8"
"091219","11:47:41","16","16","5.0.14.0","2","162","trial1","naming","0","0","0","0","heart cushon","0","4893","1","White_Screen.jpg","8","161","Pillow_Heart.jpg","8"
"091219","11:47:41","16","16","5.0.14.0","2","163","trial1","naming","0","0","0","0","taxi sign","0","4683","1","White_Screen.jpg","10","156","Sign_Taxi.jpg","10"
"091219","11:47:41","16","16","5.0.14.0","2","164","trial1","naming","0","0","0","0","ember","0","4852","1","White_Screen.jpg","9","192","AmberWithMosquito.jpg","9"
"091219","11:47:41","16","16","5.0.14.0","2","165","trial1","naming","0","0","0","0","chairs","0","4199","1","White_Screen.jpg","8","199","Chairs_Stacked.jpg","8"
"091219","11:47:41","16","16","5.0.14.0","2","166","trial1","naming","0","0","0","0","mouse trap","0","4933","1","White_Screen.jpg","8","105","Mousetrap.jpg","8"
"091219","11:47:41","16","16","5.0.14.0","2","167","trial1","naming","0","0","0","0","black dog","0","4915","1","White_Screen.jpg","8","135","Dog_CockerSpaniel.jpg","8"
