"date","time","group","subject","build","blocknum","trialnum","blockcode","trialcode","pretrialpause","posttrialpause","trialduration","trialtimeout","response","correct","latency","stimulusnumber1","stimulusitem1","stimulusonset1","stimulusnumber2","stimulusitem2","stimulusonset2"
"022420","12:41:22","43","43","5.0.14.0","2","1","trial1","naming","0","0","0","0","wreath","0","6699","1","White_Screen.jpg","29","187","Wreath.jpg","29"
"022420","12:41:22","43","43","5.0.14.0","2","2","trial1","naming","0","0","0","0","blocks","0","6419","1","White_Screen.jpg","9","165","Toy_Wooden rings.jpg","9"
"022420","12:41:22","43","43","5.0.14.0","2","3","trial1","naming","0","0","0","0","flashlight","0","6503","1","White_Screen.jpg","9","174","Flashlight.jpg","9"
"022420","12:41:22","43","43","5.0.14.0","2","4","trial1","naming","0","0","0","0","statue","0","5605","1","White_Screen.jpg","9","151","Sphinx.jpg","9"
"022420","12:41:22","43","43","5.0.14.0","2","5","trial1","naming","0","0","0","0","chinese checkers","0","6858","1","White_Screen.jpg","9","162","Boardgame_ChineseCheckers.jpg","9"
"022420","12:41:22","43","43","5.0.14.0","2","6","trial1","naming","0","0","0","0","earing","0","5776","1","White_Screen.jpg","9","138","Earring_Hoop.jpg","9"
"022420","12:41:22","43","43","5.0.14.0","2","7","trial1","naming","0","0","0","0","jug","0","5175","1","White_Screen.jpg","10","82","Jug_GallonWhite.jpg","10"
"022420","12:41:22","43","43","5.0.14.0","2","8","trial1","naming","0","0","0","0","radio","0","6216","1","White_Screen.jpg","10","117","Clock_Radioalarm.jpg","10"
"022420","12:41:22","43","43","5.0.14.0","2","9","trial1","naming","0","0","0","0","umbrella","0","4099","1","White_Screen.jpg","10","79","Umbrella_Retractable.jpg","10"
"022420","12:41:22","43","43","5.0.14.0","2","10","trial1","naming","0","0","0","0","purse","0","5400","1","White_Screen.jpg","10","126","Makeup_Bag.jpg","10"
"022420","12:41:22","43","43","5.0.14.0","2","11","trial1","naming","0","0","0","0","coffin","0","3892","1","White_Screen.jpg","9","62","CasketOpen.jpg","9"
"022420","12:41:22","43","43","5.0.14.0","2","12","trial1","naming","0","0","0","0","tiger","0","4416","1","White_Screen.jpg","9","195","TigerWhite.jpg","9"
"022420","12:41:22","43","43","5.0.14.0","2","13","trial1","naming","0","0","0","0","shoe","0","3541","1","White_Screen.jpg","8","34","Shoe_Highheel.jpg","8"
"022420","12:41:22","43","43","5.0.14.0","2","14","trial1","naming","0","0","0","0","block","0","6440","1","White_Screen.jpg","9","40","Box_WoodCrate.jpg","9"
"022420","12:41:22","43","43","5.0.14.0","2","15","trial1","naming","0","0","0","0","deodorant","0","5889","1","White_Screen.jpg","10","167","Deodorant.jpg","10"
"022420","12:41:22","43","43","5.0.14.0","2","16","trial1","naming","0","0","0","0","gold","0","3283","1","White_Screen.jpg","9","156","GoldNugget.jpg","9"
"022420","12:41:22","43","43","5.0.14.0","2","17","trial1","naming","0","0","0","0","sprayer","0","7112","1","White_Screen.jpg","9","173","PumpBreast.jpg","9"
"022420","12:41:22","43","43","5.0.14.0","2","18","trial1","naming","0","0","0","0","machine","0","8234","1","White_Screen.jpg","8","13","Centrifuge.jpg","8"
"022420","12:41:22","43","43","5.0.14.0","2","19","trial1","naming","0","0","0","0","gum","0","3549","1","White_Screen.jpg","10","178","ChewingGum.jpg","10"
"022420","12:41:22","43","43","5.0.14.0","2","20","trial1","naming","0","0","0","0","jack in the box","0","4449","1","White_Screen.jpg","11","60","Toy_JackInTheBox.jpg","11"
"022420","12:41:22","43","43","5.0.14.0","2","21","trial1","naming","0","0","0","0","tie","0","2701","1","White_Screen.jpg","22","103","Tie.jpg","22"
"022420","12:41:22","43","43","5.0.14.0","2","22","trial1","naming","0","0","0","0","rack","0","2946","1","White_Screen.jpg","10","5","GrillRack.jpg","10"
"022420","12:41:22","43","43","5.0.14.0","2","23","trial1","naming","0","0","0","0","table hockey","0","8366","1","White_Screen.jpg","8","17","Gametable_AirHockey.jpg","8"
"022420","12:41:22","43","43","5.0.14.0","2","24","trial1","naming","0","0","0","0","puzzle","0","7120","1","White_Screen.jpg","8","97","Puzzle_Animal.jpg","8"
"022420","12:41:22","43","43","5.0.14.0","2","25","trial1","naming","0","0","0","0","boat","0","3954","1","White_Screen.jpg","9","179","Boat_Sail.jpg","9"
"022420","12:41:22","43","43","5.0.14.0","2","26","trial1","naming","0","0","0","0","kebobs","0","7808","1","White_Screen.jpg","9","172","Kebab_Meat.jpg","9"
"022420","12:41:22","43","43","5.0.14.0","2","27","trial1","naming","0","0","0","0","stamp","0","3719","1","White_Screen.jpg","9","8","Stamp.jpg","9"
"022420","12:41:22","43","43","5.0.14.0","2","28","trial1","naming","0","0","0","0","pot","0","7827","1","White_Screen.jpg","11","43","WateringCan_Antique.jpg","11"
"022420","12:41:22","43","43","5.0.14.0","2","29","trial1","naming","0","0","0","0","pin","0","7056","1","White_Screen.jpg","7","20","Clothespin_Red.jpg","7"
"022420","12:41:22","43","43","5.0.14.0","2","30","trial1","naming","0","0","0","0","nail polish","0","5446","1","White_Screen.jpg","10","133","NailPolish.jpg","10"
"022420","12:41:22","43","43","5.0.14.0","2","31","trial1","naming","0","0","0","0","bucket","0","3757","1","White_Screen.jpg","8","9","Bucket_Rusty.jpg","8"
"022420","12:41:22","43","43","5.0.14.0","2","32","trial1","naming","0","0","0","0","gloves","0","3211","1","White_Screen.jpg","9","68","Gloves_WhiteKnit.jpg","9"
"022420","12:41:22","43","43","5.0.14.0","2","33","trial1","naming","0","0","0","0","dumbell","0","3541","1","White_Screen.jpg","10","58","Weights_Dumbells.jpg","10"
"022420","12:41:22","43","43","5.0.14.0","2","34","trial1","naming","0","0","0","0","bowl","0","3158","1","White_Screen.jpg","10","10","ContactLens.jpg","10"
"022420","12:41:22","43","43","5.0.14.0","2","35","trial1","naming","0","0","0","0","pills","0","4855","1","White_Screen.jpg","14","91","PillBottle_Closed.jpg","14"
"022420","12:41:22","43","43","5.0.14.0","2","36","trial1","naming","0","0","0","0","dreamcatcher","0","6246","1","White_Screen.jpg","8","47","Dreamcatcher.jpg","8"
"022420","12:41:22","43","43","5.0.14.0","2","37","trial1","naming","0","0","0","0","tape","0","4032","1","White_Screen.jpg","9","155","PoliceTape.jpg","9"
"022420","12:41:22","43","43","5.0.14.0","2","38","trial1","naming","0","0","0","0","motor chair","0","7292","1","White_Screen.jpg","8","7","MobilityScooter.jpg","8"
"022420","12:41:22","43","43","5.0.14.0","2","39","trial1","naming","0","0","0","0","asparagus","0","3955","1","White_Screen.jpg","9","105","Asparagus.jpg","9"
"022420","12:41:22","43","43","5.0.14.0","2","40","trial1","naming","0","0","0","0","cable","0","5192","1","White_Screen.jpg","9","121","VGAport.jpg","9"
"022420","12:41:22","43","43","5.0.14.0","2","41","trial1","naming","0","0","0","0","jar","0","3202","1","White_Screen.jpg","10","61","MilkJug.jpg","10"
"022420","12:41:22","43","43","5.0.14.0","2","42","trial1","naming","0","0","0","0","cup","0","4480","1","White_Screen.jpg","10","15","Cup_Bathroom.jpg","10"
"022420","12:41:22","43","43","5.0.14.0","2","43","trial1","naming","0","0","0","0","nail file","0","3634","1","White_Screen.jpg","9","119","NailFiles.jpg","9"
"022420","12:41:22","43","43","5.0.14.0","2","44","trial1","naming","0","0","0","0","mascara","0","5195","1","White_Screen.jpg","9","160","Makeup_Mascara.jpg","9"
"022420","12:41:22","43","43","5.0.14.0","2","45","trial1","naming","0","0","0","0","bag","0","3786","1","White_Screen.jpg","7","186","Bag_PaperWithFlour.jpg","7"
"022420","12:41:22","43","43","5.0.14.0","2","46","trial1","naming","0","0","0","0","dress","0","2695","1","White_Screen.jpg","9","118","Dress_Blue.jpg","9"
"022420","12:41:22","43","43","5.0.14.0","2","47","trial1","naming","0","0","0","0","antelope","0","8030","1","White_Screen.jpg","11","184","Nyala.jpg","11"
"022420","12:41:22","43","43","5.0.14.0","2","48","trial1","naming","0","0","0","0","stool","0","3140","1","White_Screen.jpg","8","66","Stool_Wood.jpg","8"
"022420","12:41:22","43","43","5.0.14.0","2","49","trial1","naming","0","0","0","0","goat","0","6170","1","White_Screen.jpg","9","6","Goat.jpg","9"
"022420","12:41:22","43","43","5.0.14.0","2","50","trial1","naming","0","0","0","0","hay","0","2909","1","White_Screen.jpg","11","25","Hay.jpg","11"
"022420","12:41:22","43","43","5.0.14.0","2","52","trial1","naming","0","0","0","0","denim jacket","0","6359","1","White_Screen.jpg","8","144","Jacket_Jean.jpg","8"
"022420","12:41:22","43","43","5.0.14.0","2","53","trial1","naming","0","0","0","0","street cleaner","0","9327","1","White_Screen.jpg","10","148","StreetSweeper.jpg","10"
"022420","12:41:22","43","43","5.0.14.0","2","54","trial1","naming","0","0","0","0","paddle","0","3070","1","White_Screen.jpg","10","88","Paddle_PingPong.jpg","10"
"022420","12:41:22","43","43","5.0.14.0","2","55","trial1","naming","0","0","0","0","faucet","0","3893","1","White_Screen.jpg","10","100","Faucet.jpg","10"
"022420","12:41:22","43","43","5.0.14.0","2","56","trial1","naming","0","0","0","0","clam","0","5146","1","White_Screen.jpg","13","181","Clam.jpg","13"
"022420","12:41:22","43","43","5.0.14.0","2","57","trial1","naming","0","0","0","0","cabinet","0","9093","1","White_Screen.jpg","9","158","Cabinet_Office.jpg","9"
"022420","12:41:22","43","43","5.0.14.0","2","58","trial1","naming","0","0","0","0","ship","0","4339","1","White_Screen.jpg","10","102","Boat_Ferry.jpg","10"
"022420","12:41:22","43","43","5.0.14.0","2","59","trial1","naming","0","0","0","0","telephone","0","3951","1","White_Screen.jpg","10","1","Telephone_DialAntique.jpg","10"
"022420","12:41:22","43","43","5.0.14.0","2","60","trial1","naming","0","0","0","0","badge","0","3377","1","White_Screen.jpg","9","152","BadgeSpecialAgent.jpg","9"
"022420","12:41:22","43","43","5.0.14.0","2","61","trial1","naming","0","0","0","0","dresser","0","3716","1","White_Screen.jpg","9","108","Dresser.jpg","9"
"022420","12:41:22","43","43","5.0.14.0","2","62","trial1","naming","0","0","0","0","pillow","0","3469","1","White_Screen.jpg","9","177","Yarmulke.jpg","9"
"022420","12:41:22","43","43","5.0.14.0","2","63","trial1","naming","0","0","0","0","saw","0","2351","1","White_Screen.jpg","9","161","Saw.jpg","9"
"022420","12:41:22","43","43","5.0.14.0","2","64","trial1","naming","0","0","0","0","gate\","0","2841","1","White_Screen.jpg","9","77","GatedEntrance.jpg","9"
"022420","12:41:22","43","43","5.0.14.0","2","65","trial1","naming","0","0","0","0","","0","10000","1","White_Screen.jpg","10","18","Baster.jpg","10"
"022420","12:41:22","43","43","5.0.14.0","2","66","trial1","naming","0","0","0","0","rooster","0","5256","1","White_Screen.jpg","11","84","Bird_Hen.jpg","11"
"022420","12:41:22","43","43","5.0.14.0","2","67","trial1","naming","0","0","0","0","sleigh","0","4866","1","White_Screen.jpg","9","140","Sled.jpg","9"
"022420","12:41:22","43","43","5.0.14.0","2","68","trial1","naming","0","0","0","0","oven","0","3363","1","White_Screen.jpg","9","52","Oven.jpg","9"
"022420","12:41:22","43","43","5.0.14.0","2","69","trial1","naming","0","0","0","0","canteen","0","4921","1","White_Screen.jpg","8","46","Canteen.jpg","8"
"022420","12:41:22","43","43","5.0.14.0","2","70","trial1","naming","0","0","0","0","cake","0","2367","1","White_Screen.jpg","9","11","Cake_Birthday.jpg","9"
"022420","12:41:22","43","43","5.0.14.0","2","71","trial1","naming","0","0","0","0","scooter","0","3472","1","White_Screen.jpg","10","69","Hoverboard.jpg","10"
"022420","12:41:22","43","43","5.0.14.0","2","72","trial1","naming","0","0","0","0","knee brace","0","4269","1","White_Screen.jpg","9","89","Brace_Leg.jpg","9"
"022420","12:41:22","43","43","5.0.14.0","2","73","trial1","naming","0","0","0","0","holder","0","5094","1","White_Screen.jpg","9","65","PenHolder.jpg","9"
"022420","12:41:22","43","43","5.0.14.0","2","74","trial1","naming","0","0","0","0","box","0","2751","1","White_Screen.jpg","11","93","Box_Floral.jpg","11"
"022420","12:41:22","43","43","5.0.14.0","2","75","trial1","naming","0","0","0","0","mask","0","3509","1","White_Screen.jpg","9","28","Mask_CPR.jpg","9"
"022420","12:41:22","43","43","5.0.14.0","2","76","trial1","naming","0","0","0","0","clippers","0","4498","1","White_Screen.jpg","10","106","HairClipper.jpg","10"
"022420","12:41:22","43","43","5.0.14.0","2","77","trial1","naming","0","0","0","0","shoelace","0","3316","1","White_Screen.jpg","7","21","ShoeLace_Flat.jpg","7"
"022420","12:41:22","43","43","5.0.14.0","2","78","trial1","naming","0","0","0","0","hair piece","0","6065","1","White_Screen.jpg","9","141","HairClip.jpg","9"
"022420","12:41:22","43","43","5.0.14.0","2","79","trial1","naming","0","0","0","0","bagpipe","0","7868","1","White_Screen.jpg","7","146","Bagpipes.jpg","7"
"022420","12:41:22","43","43","5.0.14.0","2","80","trial1","naming","0","0","0","0","shredder","0","3971","1","White_Screen.jpg","9","197","PaperShredder.jpg","9"
"022420","12:41:22","43","43","5.0.14.0","2","81","trial1","naming","0","0","0","0","toy boat","0","6335","1","White_Screen.jpg","9","71","Toy_Boat.jpg","9"
"022420","12:41:22","43","43","5.0.14.0","2","82","trial1","naming","0","0","0","0","domino","0","3226","1","White_Screen.jpg","10","73","Domino.jpg","10"
"022420","12:41:22","43","43","5.0.14.0","2","83","trial1","naming","0","0","0","0","hard hat","0","4315","1","White_Screen.jpg","9","51","Helmet_Construction.jpg","9"
"022420","12:41:22","43","43","5.0.14.0","2","84","trial1","naming","0","0","0","0","metal","0","7613","1","White_Screen.jpg","9","33","Hammer_Reflex.jpg","9"
"022420","12:41:22","43","43","5.0.14.0","2","85","trial1","naming","0","0","0","0","bell","0","3046","1","White_Screen.jpg","8","164","ButterDish.jpg","8"
"022420","12:41:22","43","43","5.0.14.0","2","86","trial1","naming","0","0","0","0","sword","0","2888","1","White_Screen.jpg","10","30","Sword.jpg","10"
"022420","12:41:22","43","43","5.0.14.0","2","87","trial1","naming","0","0","0","0","strainer","0","3166","1","White_Screen.jpg","9","39","Colander.jpg","9"
"022420","12:41:22","43","43","5.0.14.0","2","88","trial1","naming","0","0","0","0","fire hydrant","0","5034","1","White_Screen.jpg","10","72","FireHydrant.jpg","10"
"022420","12:41:22","43","43","5.0.14.0","2","89","trial1","naming","0","0","0","0","roller coaster","0","4587","1","White_Screen.jpg","10","134","RollerCoaster.jpg","10"
"022420","12:41:22","43","43","5.0.14.0","2","90","trial1","naming","0","0","0","0","pretzel","0","3634","1","White_Screen.jpg","10","101","Pretzel_Knot.jpg","10"
"022420","12:41:22","43","43","5.0.14.0","2","91","trial1","naming","0","0","0","0","wine","0","4161","1","White_Screen.jpg","9","16","Jug_Wicker.jpg","9"
"022420","12:41:22","43","43","5.0.14.0","2","92","trial1","naming","0","0","0","0","cigar clipper","0","7200","1","White_Screen.jpg","11","96","CigarCutter.jpg","11"
"022420","12:41:22","43","43","5.0.14.0","2","93","trial1","naming","0","0","0","0","spine","0","3409","1","White_Screen.jpg","9","109","SpinalCord.jpg","9"
"022420","12:41:22","43","43","5.0.14.0","2","94","trial1","naming","0","0","0","0","caterpillar","0","3814","1","White_Screen.jpg","11","42","Caterpillar.jpg","11"
"022420","12:41:22","43","43","5.0.14.0","2","95","trial1","naming","0","0","0","0","shorts","0","2782","1","White_Screen.jpg","9","80","Shorts_Plaid.jpg","9"
"022420","12:41:22","43","43","5.0.14.0","2","96","trial1","naming","0","0","0","0","light switch","0","4783","1","White_Screen.jpg","7","130","Switch_LightWhite.jpg","7"
"022420","12:41:22","43","43","5.0.14.0","2","97","trial1","naming","0","0","0","0","lock","0","3798","1","White_Screen.jpg","10","70","Lock_Key.jpg","10"
"022420","12:41:22","43","43","5.0.14.0","2","98","trial1","naming","0","0","0","0","paint bucket","0","4129","1","White_Screen.jpg","8","194","PaintCan.jpg","8"
"022420","12:41:22","43","43","5.0.14.0","2","99","trial1","naming","0","0","0","0","wood","0","6070","1","White_Screen.jpg","9","131","Mat_Bamboo.jpg","9"
"022420","12:41:22","43","43","5.0.14.0","2","100","trial1","naming","0","0","0","0","gameboy","0","3812","1","White_Screen.jpg","9","159","Gameboy.jpg","9"
"022420","12:41:22","43","43","5.0.14.0","2","101","trial1","naming","0","0","0","0","washer","0","5460","1","White_Screen.jpg","8","48","WashingMachine.jpg","8"
"022420","12:41:22","43","43","5.0.14.0","2","103","trial1","naming","0","0","0","0","hockey stick","0","4289","1","White_Screen.jpg","7","193","Stick_IceHockey.jpg","7"
"022420","12:41:22","43","43","5.0.14.0","2","104","trial1","naming","0","0","0","0","top","0","2666","1","White_Screen.jpg","9","199","Toy_Top.jpg","9"
"022420","12:41:22","43","43","5.0.14.0","2","105","trial1","naming","0","0","0","0","jumper cables","0","4416","1","White_Screen.jpg","8","81","Cable_JumpStart.jpg","8"
"022420","12:41:22","43","43","5.0.14.0","2","106","trial1","naming","0","0","0","0","number","0","9192","1","White_Screen.jpg","8","78","Magnet_Three.jpg","8"
"022420","12:41:22","43","43","5.0.14.0","2","107","trial1","naming","0","0","0","0","dragonfly","0","4000","1","White_Screen.jpg","9","94","Dragonfly.jpg","9"
"022420","12:41:22","43","43","5.0.14.0","2","108","trial1","naming","0","0","0","0","paddle","0","3534","1","White_Screen.jpg","10","12","Paddle_Beach.jpg","10"
"022420","12:41:22","43","43","5.0.14.0","2","109","trial1","naming","0","0","0","0","water fountain","0","3586","1","White_Screen.jpg","9","153","DrinkingFountain.jpg","9"
"022420","12:41:22","43","43","5.0.14.0","2","110","trial1","naming","0","0","0","0","burner","0","3694","1","White_Screen.jpg","11","147","Stove_Camping.jpg","11"
"022420","12:41:22","43","43","5.0.14.0","2","111","trial1","naming","0","0","0","0","doll","0","2502","1","White_Screen.jpg","7","35","Doll_Rag.jpg","7"
"022420","12:41:22","43","43","5.0.14.0","2","112","trial1","naming","0","0","0","0","heater","0","4914","1","White_Screen.jpg","9","2","WaterHeater.jpg","9"
"022420","12:41:22","43","43","5.0.14.0","2","113","trial1","naming","0","0","0","0","turkey","0","3910","1","White_Screen.jpg","8","87","TurkeyDinner.jpg","8"
"022420","12:41:22","43","43","5.0.14.0","2","114","trial1","naming","0","0","0","0","brush","0","2739","1","White_Screen.jpg","10","145","Brush_BathBack.jpg","10"
"022420","12:41:22","43","43","5.0.14.0","2","115","trial1","naming","0","0","0","0","fruit","0","3789","1","White_Screen.jpg","10","64","PassionFruit.jpg","10"
"022420","12:41:22","43","43","5.0.14.0","2","116","trial1","naming","0","0","0","0","floss","0","3084","1","White_Screen.jpg","9","136","DentalFloss.jpg","9"
"022420","12:41:22","43","43","5.0.14.0","2","117","trial1","naming","0","0","0","0","watermelon","0","3351","1","White_Screen.jpg","9","31","WatermelonSlice.jpg","9"
"022420","12:41:22","43","43","5.0.14.0","2","118","trial1","naming","0","0","0","0","file holder","0","7285","1","White_Screen.jpg","10","191","Table_Magazine.jpg","10"
"022420","12:41:22","43","43","5.0.14.0","2","119","trial1","naming","0","0","0","0","shower cap","0","5715","1","White_Screen.jpg","9","114","ShowerCap.jpg","9"
"022420","12:41:22","43","43","5.0.14.0","2","120","trial1","naming","0","0","0","0","knight","0","4366","1","White_Screen.jpg","9","95","ChessPiece_Knight.jpg","9"
"022420","12:41:22","43","43","5.0.14.0","2","121","trial1","naming","0","0","0","0","folder","0","4580","1","White_Screen.jpg","8","135","FileDivider.jpg","8"
"022420","12:41:22","43","43","5.0.14.0","2","122","trial1","naming","0","0","0","0","blank","0","3904","1","White_Screen.jpg","10","137","White_Screen.jpg","10"
"022420","12:41:22","43","43","5.0.14.0","2","123","trial1","naming","0","0","0","0","coral","0","5934","1","White_Screen.jpg","9","166","Coral.jpg","9"
"022420","12:41:22","43","43","5.0.14.0","2","124","trial1","naming","0","0","0","0","animal","0","5634","1","White_Screen.jpg","9","50","HorseshoeCrab.jpg","9"
"022420","12:41:22","43","43","5.0.14.0","2","125","trial1","naming","0","0","0","0","","0","10000","1","White_Screen.jpg","10","53","Crowbar.jpg","10"
"022420","12:41:22","43","43","5.0.14.0","2","126","trial1","naming","0","0","0","0","screw","0","3950","1","White_Screen.jpg","9","83","Screw.jpg","9"
"022420","12:41:22","43","43","5.0.14.0","2","127","trial1","naming","0","0","0","0","dress","0","3053","1","White_Screen.jpg","11","113","Dress_Party.jpg","11"
"022420","12:41:22","43","43","5.0.14.0","2","128","trial1","naming","0","0","0","0","helmet","0","3302","1","White_Screen.jpg","9","123","Helmet_Knight.jpg","9"
"022420","12:41:22","43","43","5.0.14.0","2","129","trial1","naming","0","0","0","0","basket","0","2963","1","White_Screen.jpg","11","124","Basket_Straw.jpg","11"
"022420","12:41:22","43","43","5.0.14.0","2","130","trial1","naming","0","0","0","0","barometer","0","6259","1","White_Screen.jpg","9","59","Barometer.jpg","9"
"022420","12:41:22","43","43","5.0.14.0","2","131","trial1","naming","0","0","0","0","paint holder","0","6547","1","White_Screen.jpg","10","116","PaintRollTray.jpg","10"
"022420","12:41:22","43","43","5.0.14.0","2","132","trial1","naming","0","0","0","0","toy car","0","3873","1","White_Screen.jpg","7","3","Toy_TrailerAirport.jpg","7"
"022420","12:41:22","43","43","5.0.14.0","2","133","trial1","naming","0","0","0","0","cigars","0","3206","1","White_Screen.jpg","9","171","CigarCase.jpg","9"
"022420","12:41:22","43","43","5.0.14.0","2","134","trial1","naming","0","0","0","0","boquet","0","4399","1","White_Screen.jpg","12","63","Flowers_DryBouquet.jpg","12"
"022420","12:41:22","43","43","5.0.14.0","2","135","trial1","naming","0","0","0","0","cane","0","2753","1","White_Screen.jpg","9","129","Cane_Metal.jpg","9"
"022420","12:41:22","43","43","5.0.14.0","2","136","trial1","naming","0","0","0","0","macaroni","0","3611","1","White_Screen.jpg","9","143","Pasta_Macaroni.jpg","9"
"022420","12:41:22","43","43","5.0.14.0","2","137","trial1","naming","0","0","0","0","glass","0","8520","1","White_Screen.jpg","10","169","Glass_Ball.jpg","10"
"022420","12:41:22","43","43","5.0.14.0","2","138","trial1","naming","0","0","0","0","blush","0","4575","1","White_Screen.jpg","10","54","Brush_Shaving.jpg","10"
"022420","12:41:22","43","43","5.0.14.0","2","139","trial1","naming","0","0","0","0","tool","0","4886","1","White_Screen.jpg","9","86","Mirror_Dental.jpg","9"
"022420","12:41:22","43","43","5.0.14.0","2","140","trial1","naming","0","0","0","0","book","0","3260","1","White_Screen.jpg","9","45","Book_Leather.jpg","9"
"022420","12:41:22","43","43","5.0.14.0","2","141","trial1","naming","0","0","0","0","kebab","0","4098","1","White_Screen.jpg","10","168","Kebab_Vegetables.jpg","10"
"022420","12:41:22","43","43","5.0.14.0","2","142","trial1","naming","0","0","0","0","clock","0","4138","1","White_Screen.jpg","9","32","Clock_Grandfather.jpg","9"
"022420","12:41:22","43","43","5.0.14.0","2","143","trial1","naming","0","0","0","0","violin","0","4552","1","White_Screen.jpg","8","55","DoubleBass.jpg","8"
"022420","12:41:22","43","43","5.0.14.0","2","144","trial1","naming","0","0","0","0","burner","0","4378","1","White_Screen.jpg","9","98","Stove_Propane.jpg","9"
"022420","12:41:22","43","43","5.0.14.0","2","145","trial1","naming","0","0","0","0","candle holder","0","4057","1","White_Screen.jpg","11","23","Candleholder_Tall.jpg","11"
"022420","12:41:22","43","43","5.0.14.0","2","146","trial1","naming","0","0","0","0","doghouse","0","3310","1","White_Screen.jpg","10","107","DogHouse.jpg","10"
"022420","12:41:22","43","43","5.0.14.0","2","147","trial1","naming","0","0","0","0","toolkit","0","3682","1","White_Screen.jpg","8","85","Toolbox_Old.jpg","8"
"022420","12:41:22","43","43","5.0.14.0","2","148","trial1","naming","0","0","0","0","toy tank","0","4242","1","White_Screen.jpg","7","67","Toy_Tank.jpg","7"
"022420","12:41:22","43","43","5.0.14.0","2","149","trial1","naming","0","0","0","0","mailbox","0","5162","1","White_Screen.jpg","10","110","Mailbox_Antique.jpg","10"
"022420","12:41:22","43","43","5.0.14.0","2","150","trial1","naming","0","0","0","0","tray","0","3110","1","White_Screen.jpg","8","57","Tray_Wooden.jpg","8"
"022420","12:41:22","43","43","5.0.14.0","2","151","trial1","naming","0","0","0","0","toy motorcycle","0","6165","1","White_Screen.jpg","10","176","Toy_Motorcycle.jpg","10"
"022420","12:41:22","43","43","5.0.14.0","2","152","trial1","naming","0","0","0","0","stack of papers","0","4558","1","White_Screen.jpg","9","75","PaperStack.jpg","9"
"022420","12:41:22","43","43","5.0.14.0","2","154","trial1","naming","0","0","0","0","box","0","2795","1","White_Screen.jpg","8","122","Box_Present.jpg","8"
"022420","12:41:22","43","43","5.0.14.0","2","155","trial1","naming","0","0","0","0","2 of spades","0","6138","1","White_Screen.jpg","8","120","Card_TwoSpade.jpg","8"
"022420","12:41:22","43","43","5.0.14.0","2","156","trial1","naming","0","0","0","0","keyboard button","0","6269","1","White_Screen.jpg","11","127","ComputerKeyboard_F1.jpg","11"
"022420","12:41:22","43","43","5.0.14.0","2","157","trial1","naming","0","0","0","0","scroll","0","3380","1","White_Screen.jpg","12","90","Scroll.jpg","12"
"022420","12:41:22","43","43","5.0.14.0","2","158","trial1","naming","0","0","0","0","stands","0","3185","1","White_Screen.jpg","9","76","Bleachers.jpg","9"
"022420","12:41:22","43","43","5.0.14.0","2","159","trial1","naming","0","0","0","0","christmas tree","0","5801","1","White_Screen.jpg","9","38","Tree_ChristmasMini.jpg","9"
"022420","12:41:22","43","43","5.0.14.0","2","160","trial1","naming","0","0","0","0","ign","0","2812","1","White_Screen.jpg","9","170","Sign_TrafficArrow.jpg","9"
"022420","12:41:22","43","43","5.0.14.0","2","161","trial1","naming","0","0","0","0","toy truck","0","5729","1","White_Screen.jpg","9","180","Toy_Firetruck.jpg","9"
"022420","12:41:22","43","43","5.0.14.0","2","162","trial1","naming","0","0","0","0","paper bag","0","4497","1","White_Screen.jpg","7","56","Bag_Gift.jpg","7"
"022420","12:41:22","43","43","5.0.14.0","2","163","trial1","naming","0","0","0","0","cutter","0","4761","1","White_Screen.jpg","10","139","Scalpel.jpg","10"
"022420","12:41:22","43","43","5.0.14.0","2","164","trial1","naming","0","0","0","0","tools","0","3129","1","White_Screen.jpg","9","128","Tray_Medical.jpg","9"
"022420","12:41:22","43","43","5.0.14.0","2","165","trial1","naming","0","0","0","0","box opener","0","3895","1","White_Screen.jpg","11","132","Boxcutter.jpg","11"
"022420","12:41:22","43","43","5.0.14.0","2","166","trial1","naming","0","0","0","0","toy","0","2800","1","White_Screen.jpg","8","49","Toy_Ladybug.jpg","8"
"022420","12:41:22","43","43","5.0.14.0","2","167","trial1","naming","0","0","0","0","object","0","5635","1","White_Screen.jpg","8","41","Toy_ModelMolecule.jpg","8"
"022420","12:41:22","43","43","5.0.14.0","2","168","trial1","naming","0","0","0","0","mop","0","2815","1","White_Screen.jpg","10","29","Mop.jpg","10"
"022420","12:41:22","43","43","5.0.14.0","2","169","trial1","naming","0","0","0","0","dish cabinet","0","7230","1","White_Screen.jpg","9","36","Cabinet_Display.jpg","9"
"022420","12:41:22","43","43","5.0.14.0","2","170","trial1","naming","0","0","0","0","bowl","0","4359","1","White_Screen.jpg","8","26","Plate_Children.jpg","8"
"022420","12:41:22","43","43","5.0.14.0","2","171","trial1","naming","0","0","0","0","gutter","0","3086","1","White_Screen.jpg","10","112","GutterAndDrainPipe.jpg","10"
"022420","12:41:22","43","43","5.0.14.0","2","172","trial1","naming","0","0","0","0","can opener","0","6920","1","White_Screen.jpg","9","192","CanOpener.jpg","9"
"022420","12:41:22","43","43","5.0.14.0","2","173","trial1","naming","0","0","0","0","space shuttle","0","4789","1","White_Screen.jpg","11","198","SpaceShuttle.jpg","11"
"022420","12:41:22","43","43","5.0.14.0","2","174","trial1","naming","0","0","0","0","car battery","0","5910","1","White_Screen.jpg","9","19","Battery_Car.jpg","9"
"022420","12:41:22","43","43","5.0.14.0","2","175","trial1","naming","0","0","0","0","shell","0","3586","1","White_Screen.jpg","9","157","Seashell_AlternateTellin.jpg","9"
"022420","12:41:22","43","43","5.0.14.0","2","176","trial1","naming","0","0","0","0","baby socks","0","4206","1","White_Screen.jpg","9","74","Socks_Baby.jpg","9"
"022420","12:41:22","43","43","5.0.14.0","2","177","trial1","naming","0","0","0","0","telephone","0","4510","1","White_Screen.jpg","9","163","Phone_Wireless.jpg","9"
"022420","12:41:22","43","43","5.0.14.0","2","178","trial1","naming","0","0","0","0","giraffe","0","3287","1","White_Screen.jpg","11","24","Giraffe.jpg","11"
"022420","12:41:22","43","43","5.0.14.0","2","179","trial1","naming","0","0","0","0","lock","0","7414","1","White_Screen.jpg","9","188","CodeDoorLock.jpg","9"
"022420","12:41:22","43","43","5.0.14.0","2","180","trial1","naming","0","0","0","0","sand castle","0","4320","1","White_Screen.jpg","7","37","Castle_Sand.jpg","7"
"022420","12:41:22","43","43","5.0.14.0","2","181","trial1","naming","0","0","0","0","alarm","0","5511","1","White_Screen.jpg","9","14","AlarmSystem.jpg","9"
"022420","12:41:22","43","43","5.0.14.0","2","182","trial1","naming","0","0","0","0","tea pot","0","6520","1","White_Screen.jpg","8","99","Teapot.jpg","8"
"022420","12:41:22","43","43","5.0.14.0","2","183","trial1","naming","0","0","0","0","shovel","0","4172","1","White_Screen.jpg","10","154","LitterScoop.jpg","10"
"022420","12:41:22","43","43","5.0.14.0","2","184","trial1","naming","0","0","0","0","pasta","0","3571","1","White_Screen.jpg","9","185","Pasta_Fettuccine.jpg","9"
"022420","12:41:22","43","43","5.0.14.0","2","185","trial1","naming","0","0","0","0","license plate","0","5695","1","White_Screen.jpg","12","190","LicensePlate.jpg","12"
"022420","12:41:22","43","43","5.0.14.0","2","186","trial1","naming","0","0","0","0","brush","0","3008","1","White_Screen.jpg","8","44","Brush_Cleaning.jpg","8"
"022420","12:41:22","43","43","5.0.14.0","2","187","trial1","naming","0","0","0","0","pens","0","3580","1","White_Screen.jpg","9","149","PenStand.jpg","9"
"022420","12:41:22","43","43","5.0.14.0","2","188","trial1","naming","0","0","0","0","crutches","0","6345","1","White_Screen.jpg","8","182","Crutches.jpg","8"
"022420","12:41:22","43","43","5.0.14.0","2","189","trial1","naming","0","0","0","0","gas mask","0","3091","1","White_Screen.jpg","10","189","Mask_Gas.jpg","10"
"022420","12:41:22","43","43","5.0.14.0","2","190","trial1","naming","0","0","0","0","truck","0","6563","1","White_Screen.jpg","11","4","Tractor_Yellow.jpg","11"
"022420","12:41:22","43","43","5.0.14.0","2","191","trial1","naming","0","0","0","0","bin","0","3236","1","White_Screen.jpg","8","115","Chest_Toys.jpg","8"
"022420","12:41:22","43","43","5.0.14.0","2","192","trial1","naming","0","0","0","0","slipper","0","2789","1","White_Screen.jpg","9","175","Slippers.jpg","9"
"022420","12:41:22","43","43","5.0.14.0","2","193","trial1","naming","0","0","0","0","drum sticks","0","5215","1","White_Screen.jpg","9","142","Stick_Drum.jpg","9"
"022420","12:41:22","43","43","5.0.14.0","2","194","trial1","naming","0","0","0","0","basketball","0","3767","1","White_Screen.jpg","8","104","Ball_Basketball.jpg","8"
"022420","12:41:22","43","43","5.0.14.0","2","195","trial1","naming","0","0","0","0","orange","0","3900","1","White_Screen.jpg","15","200","Fruit_Orange.jpg","15"
"022420","12:41:22","43","43","5.0.14.0","2","196","trial1","naming","0","0","0","0","ribbon","0","3619","1","White_Screen.jpg","9","111","RibbonSpool.jpg","9"
"022420","12:41:22","43","43","5.0.14.0","2","197","trial1","naming","0","0","0","0","baby bed","0","5079","1","White_Screen.jpg","9","150","Crib_Standard.jpg","9"
"022420","12:41:22","43","43","5.0.14.0","2","198","trial1","naming","0","0","0","0","soap holder","0","9184","1","White_Screen.jpg","8","27","SoapDish.jpg","8"
"022420","12:41:22","43","43","5.0.14.0","2","199","trial1","naming","0","0","0","0","dinosaur","0","3218","1","White_Screen.jpg","9","125","Toy_DinosaurBrontosaurus.jpg","9"
"022420","12:41:22","43","43","5.0.14.0","2","200","trial1","naming","0","0","0","0","shovel","0","6839","1","White_Screen.jpg","9","92","Spatula.jpg","9"
"022420","12:41:22","43","43","5.0.14.0","2","201","trial1","naming","0","0","0","0","panda","0","4345","1","White_Screen.jpg","10","22","Panda.jpg","10"
"022420","12:41:22","43","43","5.0.14.0","2","202","trial1","naming","0","0","0","0","bow and arrow","0","4109","1","White_Screen.jpg","13","196","Archery_ArrowsBows.jpg","13"
"022420","12:41:22","43","43","5.0.14.0","2","203","trial1","naming","0","0","0","0","toy desk","0","4051","1","White_Screen.jpg","9","183","Toy_DollOffice.jpg","9"
"022420","12:41:22","43","43","5.0.14.0","3","1","demographics_block","gender","0","0","0","0","male","1","12048","0","0","0","0","0","0"
"022420","12:41:22","43","43","5.0.14.0","3","1","demographics_block","age","0","0","0","0","38","1","12048","0","0","0","0","0","0"
"022420","12:41:22","43","43","5.0.14.0","3","1","demographics_block","education","0","0","0","0","14","1","12048","0","0","0","0","0","0"
"022420","12:41:22","43","43","5.0.14.0","3","2","demographics_block","left_right_handed","0","0","0","0","Right","1","5283","0","0","0","0","0","0"
"022420","12:41:22","43","43","5.0.14.0","3","2","demographics_block","raceoption1","0","0","0","0","0","1","5283","0","0","0","0","0","0"
"022420","12:41:22","43","43","5.0.14.0","3","2","demographics_block","raceoption2","0","0","0","0","","1","5283","0","0","0","0","0","0"
"022420","12:41:22","43","43","5.0.14.0","3","2","demographics_block","raceoption3","0","0","0","0","","1","5283","0","0","0","0","0","0"
"022420","12:41:22","43","43","5.0.14.0","3","2","demographics_block","raceoption4","0","0","0","0","","1","5283","0","0","0","0","0","0"
"022420","12:41:22","43","43","5.0.14.0","3","2","demographics_block","raceoption5","0","0","0","0","","1","5283","0","0","0","0","0","0"
"022420","12:41:22","43","43","5.0.14.0","3","2","demographics_block","raceoption6","0","0","0","0","","1","5283","0","0","0","0","0","0"
"022420","12:41:22","43","43","5.0.14.0","3","2","demographics_block","raceoption7","0","0","0","0","","1","5283","0","0","0","0","0","0"
"022420","12:41:22","43","43","5.0.14.0","3","2","demographics_block","raceoption8","0","0","0","0","","1","5283","0","0","0","0","0","0"
"022420","12:41:22","43","43","5.0.14.0","3","2","demographics_block","raceoption9","0","0","0","0","","1","5283","0","0","0","0","0","0"
"022420","12:41:22","43","43","5.0.14.0","3","2","demographics_block","raceother","0","0","0","0","","1","5283","0","0","0","0","0","0"
"022420","12:41:22","43","43","5.0.14.0","3","2","demographics_block","raceother","0","0","0","0","","1","5283","0","0","0","0","0","0"
"022420","12:41:22","43","43","5.0.14.0","3","2","demographics_block","english_language","0","0","0","0","Yes","1","5283","0","0","0","0","0","0"
"022420","12:41:22","43","43","5.0.14.0","3","2","demographics_block","english_languageother","0","0","0","0","","1","5283","0","0","0","0","0","0"
"022420","12:41:22","43","43","5.0.14.0","3","3","demographics_block","eyesight","0","0","0","0","No","1","3412","0","0","0","0","0","0"
"022420","12:41:22","43","43","5.0.14.0","3","3","demographics_block","colorblind","0","0","0","0","No","1","3412","0","0","0","0","0","0"
"022420","12:41:22","43","43","5.0.14.0","4","1","worker_id_block","worker_id_textbox","0","0","0","0","A2YGOORS5N9RW8","1","4830","0","0","0","0","0","0"
"022420","15:44:59","45","45","5.0.14.0","2","1","trial1","naming","0","0","0","0","gutter","0","5897","1","White_Screen.jpg","44","112","GutterAndDrainPipe.jpg","44"
"022420","15:44:59","45","45","5.0.14.0","2","2","trial1","naming","0","0","0","0","bleach bottle","0","7620","1","White_Screen.jpg","3","82","Jug_GallonWhite.jpg","3"
"022420","15:44:59","45","45","5.0.14.0","2","3","trial1","naming","0","0","0","0","Enter Name","0","60","1","White_Screen.jpg","5","7","MobilityScooter.jpg","5"
"022420","15:44:59","45","45","5.0.14.0","2","4","trial1","naming","0","0","0","0","giraffe ","0","6413","1","White_Screen.jpg","7","24","Giraffe.jpg","7"
"022420","15:44:59","45","45","5.0.14.0","2","5","trial1","naming","0","0","0","0","knee brace","0","4407","1","White_Screen.jpg","4","89","Brace_Leg.jpg","4"
"022420","15:44:59","45","45","5.0.14.0","2","6","trial1","naming","0","0","0","0","tool box","0","3413","1","White_Screen.jpg","4","85","Toolbox_Old.jpg","4"
"022420","15:44:59","45","45","5.0.14.0","2","7","trial1","naming","0","0","0","0","knight helmet","0","9825","1","White_Screen.jpg","4","123","Helmet_Knight.jpg","4"
"022420","15:44:59","45","45","5.0.14.0","2","8","trial1","naming","0","0","0","0","dental tool","0","3863","1","White_Screen.jpg","3","86","Mirror_Dental.jpg","3"
"022420","15:44:59","45","45","5.0.14.0","2","9","trial1","naming","0","0","0","0","prescription bottle ","0","10000","1","White_Screen.jpg","3","91","PillBottle_Closed.jpg","3"
"022420","15:44:59","45","45","5.0.14.0","2","10","trial1","naming","0","0","0","0","Enter Name","0","132","1","White_Screen.jpg","6","170","Sign_TrafficArrow.jpg","6"
"022420","15:44:59","45","45","5.0.14.0","2","11","trial1","naming","0","0","0","0","chinese checkers","0","7191","1","White_Screen.jpg","4","162","Boardgame_ChineseCheckers.jpg","4"
"022420","15:44:59","45","45","5.0.14.0","2","12","trial1","naming","0","0","0","0","f1 button","0","6961","1","White_Screen.jpg","4","127","ComputerKeyboard_F1.jpg","4"
"022420","15:44:59","45","45","5.0.14.0","2","13","trial1","naming","0","0","0","0","toy car","0","6448","1","White_Screen.jpg","3","3","Toy_TrailerAirport.jpg","3"
"022420","15:44:59","45","45","5.0.14.0","2","14","trial1","naming","0","0","0","0","toy fire truck","0","6011","1","White_Screen.jpg","4","180","Toy_Firetruck.jpg","4"
"022420","15:44:59","45","45","5.0.14.0","2","15","trial1","naming","0","0","0","0","wine decanter ","0","6452","1","White_Screen.jpg","4","16","Jug_Wicker.jpg","4"
"022420","15:44:59","45","45","5.0.14.0","2","16","trial1","naming","0","0","0","0","dream catcher ","0","4316","1","White_Screen.jpg","4","47","Dreamcatcher.jpg","4"
"022420","15:44:59","45","45","5.0.14.0","2","17","trial1","naming","0","0","0","0","water fountain","0","4646","1","White_Screen.jpg","2","153","DrinkingFountain.jpg","2"
"022420","15:44:59","45","45","5.0.14.0","2","18","trial1","naming","0","0","0","0","roller coaster","0","4090","1","White_Screen.jpg","4","134","RollerCoaster.jpg","4"
"022420","15:44:59","45","45","5.0.14.0","2","19","trial1","naming","0","0","0","0","jumper cables","0","4320","1","White_Screen.jpg","4","81","Cable_JumpStart.jpg","4"
"022420","15:44:59","45","45","5.0.14.0","2","20","trial1","naming","0","0","0","0","crib","0","3255","1","White_Screen.jpg","4","150","Crib_Standard.jpg","4"
"022420","15:44:59","45","45","5.0.14.0","2","21","trial1","naming","0","0","0","0","oven","0","4061","1","White_Screen.jpg","8","52","Oven.jpg","8"
"022420","15:44:59","45","45","5.0.14.0","2","22","trial1","naming","0","0","0","0","cane","0","2497","1","White_Screen.jpg","3","129","Cane_Metal.jpg","3"
"022420","15:44:59","45","45","5.0.14.0","2","23","trial1","naming","0","0","0","0","jigsaw puzzle","0","9919","1","White_Screen.jpg","4","97","Puzzle_Animal.jpg","4"
"022420","15:44:59","45","45","5.0.14.0","2","24","trial1","naming","0","0","0","0","strainer","0","6298","1","White_Screen.jpg","7","27","SoapDish.jpg","7"
"022420","15:44:59","45","45","5.0.14.0","2","25","trial1","naming","0","0","0","0","gameboy","0","5426","1","White_Screen.jpg","4","159","Gameboy.jpg","4"
"022420","15:44:59","45","45","5.0.14.0","2","26","trial1","naming","0","0","0","0","alarm","0","8951","1","White_Screen.jpg","3","14","AlarmSystem.jpg","3"
"022420","15:44:59","45","45","5.0.14.0","2","27","trial1","naming","0","0","0","0","domino","0","6835","1","White_Screen.jpg","4","73","Domino.jpg","4"
"022420","15:44:59","45","45","5.0.14.0","2","28","trial1","naming","0","0","0","0","police badge","0","4955","1","White_Screen.jpg","4","152","BadgeSpecialAgent.jpg","4"
"022420","15:44:59","45","45","5.0.14.0","2","29","trial1","naming","0","0","0","0","hay","0","4082","1","White_Screen.jpg","7","25","Hay.jpg","7"
"022420","15:44:59","45","45","5.0.14.0","2","30","trial1","naming","0","0","0","0","bleachers","0","6220","1","White_Screen.jpg","3","76","Bleachers.jpg","3"
"022420","15:44:59","45","45","5.0.14.0","2","31","trial1","naming","0","0","0","0","turkey baster","0","6733","1","White_Screen.jpg","2","18","Baster.jpg","2"
"022420","15:44:59","45","45","5.0.14.0","2","32","trial1","naming","0","0","0","0","crate","0","3166","1","White_Screen.jpg","4","40","Box_WoodCrate.jpg","4"
"022420","15:44:59","45","45","5.0.14.0","2","33","trial1","naming","0","0","0","0","goat","0","3066","1","White_Screen.jpg","3","6","Goat.jpg","3"
"022420","15:44:59","45","45","5.0.14.0","2","34","trial1","naming","0","0","0","0","orange","0","3281","1","White_Screen.jpg","3","200","Fruit_Orange.jpg","3"
"022420","15:44:59","45","45","5.0.14.0","2","35","trial1","naming","0","0","0","0","dental floss","0","3923","1","White_Screen.jpg","4","136","DentalFloss.jpg","4"
"022420","15:44:59","45","45","5.0.14.0","2","36","trial1","naming","0","0","0","0","ramekin","0","5050","1","White_Screen.jpg","4","164","ButterDish.jpg","4"
"022420","15:44:59","45","45","5.0.14.0","2","37","trial1","naming","0","0","0","0","umbrella","0","3472","1","White_Screen.jpg","3","79","Umbrella_Retractable.jpg","3"
"022420","15:44:59","45","45","5.0.14.0","2","38","trial1","naming","0","0","0","0","blood spin","0","10000","1","White_Screen.jpg","4","13","Centrifuge.jpg","4"
"022420","15:44:59","45","45","5.0.14.0","2","39","trial1","naming","0","0","0","0","license plate","0","4700","1","White_Screen.jpg","6","190","LicensePlate.jpg","6"
"022420","15:44:59","45","45","5.0.14.0","2","40","trial1","naming","0","0","0","0","screw","0","2624","1","White_Screen.jpg","4","83","Screw.jpg","4"
"022420","15:44:59","45","45","5.0.14.0","2","41","trial1","naming","0","0","0","0","faucet","0","4377","1","White_Screen.jpg","4","100","Faucet.jpg","4"
"022420","15:44:59","45","45","5.0.14.0","2","42","trial1","naming","0","0","0","0","clipper","0","4969","1","White_Screen.jpg","3","106","HairClipper.jpg","3"
"022420","15:44:59","45","45","5.0.14.0","2","43","trial1","naming","0","0","0","0","flashlight","0","3816","1","White_Screen.jpg","4","174","Flashlight.jpg","4"
"022420","15:44:59","45","45","5.0.14.0","2","44","trial1","naming","0","0","0","0","propane stove","0","8738","1","White_Screen.jpg","3","147","Stove_Camping.jpg","3"
"022420","15:44:59","45","45","5.0.14.0","2","45","trial1","naming","0","0","0","0","watermelon","0","6962","1","White_Screen.jpg","3","31","WatermelonSlice.jpg","3"
"022420","15:44:59","45","45","5.0.14.0","2","46","trial1","naming","0","0","0","0","chicken","0","2351","1","White_Screen.jpg","3","84","Bird_Hen.jpg","3"
"022420","15:44:59","45","45","5.0.14.0","2","47","trial1","naming","0","0","0","0","envelope","0","3468","1","White_Screen.jpg","4","135","FileDivider.jpg","4"
"022420","15:44:59","45","45","5.0.14.0","2","48","trial1","naming","0","0","0","0","toy desk","0","3807","1","White_Screen.jpg","9","183","Toy_DollOffice.jpg","9"
"022420","15:44:59","45","45","5.0.14.0","2","49","trial1","naming","0","0","0","0","gloves","0","2974","1","White_Screen.jpg","5","68","Gloves_WhiteKnit.jpg","5"
"022420","15:44:59","45","45","5.0.14.0","2","50","trial1","naming","0","0","0","0","hdmi cord","0","4333","1","White_Screen.jpg","4","121","VGAport.jpg","4"
"022420","15:44:59","45","45","5.0.14.0","2","52","trial1","naming","0","0","0","0","cup","0","2578","1","White_Screen.jpg","6","15","Cup_Bathroom.jpg","6"
"022420","15:44:59","45","45","5.0.14.0","2","53","trial1","naming","0","0","0","0","seashell","0","3110","1","White_Screen.jpg","6","157","Seashell_AlternateTellin.jpg","6"
"022420","15:44:59","45","45","5.0.14.0","2","54","trial1","naming","0","0","0","0","coral","0","3862","1","White_Screen.jpg","3","166","Coral.jpg","3"
"022420","15:44:59","45","45","5.0.14.0","2","55","trial1","naming","0","0","0","0","shaving brush","0","4693","1","White_Screen.jpg","6","54","Brush_Shaving.jpg","6"
"022420","15:44:59","45","45","5.0.14.0","2","56","trial1","naming","0","0","0","0","cake","0","2627","1","White_Screen.jpg","4","11","Cake_Birthday.jpg","4"
"022420","15:44:59","45","45","5.0.14.0","2","57","trial1","naming","0","0","0","0","sphynx","0","4300","1","White_Screen.jpg","8","151","Sphinx.jpg","8"
"022420","15:44:59","45","45","5.0.14.0","2","58","trial1","naming","0","0","0","0","gate","0","2676","1","White_Screen.jpg","4","77","GatedEntrance.jpg","4"
"022420","15:44:59","45","45","5.0.14.0","2","59","trial1","naming","0","0","0","0","tea cup","0","6752","1","White_Screen.jpg","4","99","Teapot.jpg","4"
"022420","15:44:59","45","45","5.0.14.0","2","60","trial1","naming","0","0","0","0","ladybug","0","4716","1","White_Screen.jpg","3","49","Toy_Ladybug.jpg","3"
"022420","15:44:59","45","45","5.0.14.0","2","61","trial1","naming","0","0","0","0","nail file","0","4465","1","White_Screen.jpg","3","119","NailFiles.jpg","3"
"022420","15:44:59","45","45","5.0.14.0","2","62","trial1","naming","0","0","0","0","slipper","0","3122","1","White_Screen.jpg","2","175","Slippers.jpg","2"
"022420","15:44:59","45","45","5.0.14.0","2","63","trial1","naming","0","0","0","0","toy motorcycle","0","4704","1","White_Screen.jpg","4","176","Toy_Motorcycle.jpg","4"
"022420","15:44:59","45","45","5.0.14.0","2","64","trial1","naming","0","0","0","0","ship","0","4884","1","White_Screen.jpg","4","102","Boat_Ferry.jpg","4"
"022420","15:44:59","45","45","5.0.14.0","2","65","trial1","naming","0","0","0","0","grandfather clock","0","4306","1","White_Screen.jpg","8","32","Clock_Grandfather.jpg","8"
"022420","15:44:59","45","45","5.0.14.0","2","66","trial1","naming","0","0","0","0","bow and arrow","0","4897","1","White_Screen.jpg","4","196","Archery_ArrowsBows.jpg","4"
"022420","15:44:59","45","45","5.0.14.0","2","67","trial1","naming","0","0","0","0","denim jacket","0","4240","1","White_Screen.jpg","3","144","Jacket_Jean.jpg","3"
"022420","15:44:59","45","45","5.0.14.0","2","68","trial1","naming","0","0","0","0","milk jug","0","5382","1","White_Screen.jpg","4","61","MilkJug.jpg","4"
"022420","15:44:59","45","45","5.0.14.0","2","69","trial1","naming","0","0","0","0","sled","0","2655","1","White_Screen.jpg","4","140","Sled.jpg","4"
"022420","15:44:59","45","45","5.0.14.0","2","70","trial1","naming","0","0","0","0","baby bowl","0","4566","1","White_Screen.jpg","6","26","Plate_Children.jpg","6"
"022420","15:44:59","45","45","5.0.14.0","2","71","trial1","naming","0","0","0","0","shoelace","0","4265","1","White_Screen.jpg","4","21","ShoeLace_Flat.jpg","4"
"022420","15:44:59","45","45","5.0.14.0","2","72","trial1","naming","0","0","0","0","candlestick","0","3588","1","White_Screen.jpg","6","23","Candleholder_Tall.jpg","6"
"022420","15:44:59","45","45","5.0.14.0","2","73","trial1","naming","0","0","0","0","clam","0","3430","1","White_Screen.jpg","4","181","Clam.jpg","4"
"022420","15:44:59","45","45","5.0.14.0","2","74","trial1","naming","0","0","0","0","dress","0","2821","1","White_Screen.jpg","3","118","Dress_Blue.jpg","3"
"022420","15:44:59","45","45","5.0.14.0","2","75","trial1","naming","0","0","0","0","toybox","0","5392","1","White_Screen.jpg","4","115","Chest_Toys.jpg","4"
"022420","15:44:59","45","45","5.0.14.0","2","76","trial1","naming","0","0","0","0","air hockey table","0","4386","1","White_Screen.jpg","4","17","Gametable_AirHockey.jpg","4"
"022420","15:44:59","45","45","5.0.14.0","2","77","trial1","naming","0","0","0","0","deer","0","4925","1","White_Screen.jpg","4","184","Nyala.jpg","4"
"022420","15:44:59","45","45","5.0.14.0","2","78","trial1","naming","0","0","0","0","surgery se","0","7421","1","White_Screen.jpg","4","128","Tray_Medical.jpg","4"
"022420","15:44:59","45","45","5.0.14.0","2","79","trial1","naming","0","0","0","0","box cutter","0","4110","1","White_Screen.jpg","4","132","Boxcutter.jpg","4"
"022420","15:44:59","45","45","5.0.14.0","2","80","trial1","naming","0","0","0","0","bouquet ","0","4380","1","White_Screen.jpg","3","63","Flowers_DryBouquet.jpg","3"
"022420","15:44:59","45","45","5.0.14.0","2","81","trial1","naming","0","0","0","0","hoverboard","0","4097","1","White_Screen.jpg","3","69","Hoverboard.jpg","3"
"022420","15:44:59","45","45","5.0.14.0","2","82","trial1","naming","0","0","0","0","mailbox","0","3369","1","White_Screen.jpg","4","110","Mailbox_Antique.jpg","4"
"022420","15:44:59","45","45","5.0.14.0","2","83","trial1","naming","0","0","0","0","crutches","0","2960","1","White_Screen.jpg","4","182","Crutches.jpg","4"
"022420","15:44:59","45","45","5.0.14.0","2","84","trial1","naming","0","0","0","0","gum","0","3225","1","White_Screen.jpg","4","178","ChewingGum.jpg","4"
"022420","15:44:59","45","45","5.0.14.0","2","85","trial1","naming","0","0","0","0","turkey","0","4551","1","White_Screen.jpg","3","87","TurkeyDinner.jpg","3"
"022420","15:44:59","45","45","5.0.14.0","2","86","trial1","naming","0","0","0","0","gasmask","0","3925","1","White_Screen.jpg","3","189","Mask_Gas.jpg","3"
"022420","15:44:59","45","45","5.0.14.0","2","87","trial1","naming","0","0","0","0","broom","0","5353","1","White_Screen.jpg","4","29","Mop.jpg","4"
"022420","15:44:59","45","45","5.0.14.0","2","88","trial1","naming","0","0","0","0","cigars","0","3716","1","White_Screen.jpg","3","171","CigarCase.jpg","3"
"022420","15:44:59","45","45","5.0.14.0","2","89","trial1","naming","0","0","0","0","hot water heater","0","4890","1","White_Screen.jpg","3","2","WaterHeater.jpg","3"
"022420","15:44:59","45","45","5.0.14.0","2","90","trial1","naming","0","0","0","0","christmas tree","0","5166","1","White_Screen.jpg","4","38","Tree_ChristmasMini.jpg","4"
"022420","15:44:59","45","45","5.0.14.0","2","91","trial1","naming","0","0","0","0","macaroni","0","4928","1","White_Screen.jpg","4","143","Pasta_Macaroni.jpg","4"
"022420","15:44:59","45","45","5.0.14.0","2","92","trial1","naming","0","0","0","0","poop scoop","0","4935","1","White_Screen.jpg","4","154","LitterScoop.jpg","4"
"022420","15:44:59","45","45","5.0.14.0","2","93","trial1","naming","0","0","0","0","hammer","0","3546","1","White_Screen.jpg","5","33","Hammer_Reflex.jpg","5"
"022420","15:44:59","45","45","5.0.14.0","2","94","trial1","naming","0","0","0","0","cooling rack","0","4256","1","White_Screen.jpg","3","5","GrillRack.jpg","3"
"022420","15:44:59","45","45","5.0.14.0","2","95","trial1","naming","0","0","0","0","paper","0","3581","1","White_Screen.jpg","3","75","PaperStack.jpg","3"
"022420","15:44:59","45","45","5.0.14.0","2","96","trial1","naming","0","0","0","0","pretzel","0","3543","1","White_Screen.jpg","3","101","Pretzel_Knot.jpg","3"
"022420","15:44:59","45","45","5.0.14.0","2","97","trial1","naming","0","0","0","0","tie","0","3028","1","White_Screen.jpg","4","103","Tie.jpg","4"
"022420","15:44:59","45","45","5.0.14.0","2","98","trial1","naming","0","0","0","0","kabob","0","3883","1","White_Screen.jpg","3","172","Kebab_Meat.jpg","3"
"022420","15:44:59","45","45","5.0.14.0","2","99","trial1","naming","0","0","0","0","paint roller","0","3920","1","White_Screen.jpg","3","116","PaintRollTray.jpg","3"
"022420","15:44:59","45","45","5.0.14.0","2","100","trial1","naming","0","0","0","0","asparagus","0","7757","1","White_Screen.jpg","4","105","Asparagus.jpg","4"
"022420","15:44:59","45","45","5.0.14.0","2","101","trial1","naming","0","0","0","0","flour","0","2700","1","White_Screen.jpg","4","186","Bag_PaperWithFlour.jpg","4"
"022420","15:44:59","45","45","5.0.14.0","2","103","trial1","naming","0","0","0","0","basket","0","2658","1","White_Screen.jpg","3","124","Basket_Straw.jpg","3"
"022420","15:44:59","45","45","5.0.14.0","2","104","trial1","naming","0","0","0","0","top","0","3317","1","White_Screen.jpg","4","199","Toy_Top.jpg","4"
"022420","15:44:59","45","45","5.0.14.0","2","105","trial1","naming","0","0","0","0","gift bag","0","3373","1","White_Screen.jpg","2","56","Bag_Gift.jpg","2"
"022420","15:44:59","45","45","5.0.14.0","2","106","trial1","naming","0","0","0","0","lock","0","4117","1","White_Screen.jpg","4","188","CodeDoorLock.jpg","4"
"022420","15:44:59","45","45","5.0.14.0","2","107","trial1","naming","0","0","0","0","show","0","2841","1","White_Screen.jpg","7","34","Shoe_Highheel.jpg","7"
"022420","15:44:59","45","45","5.0.14.0","2","108","trial1","naming","0","0","0","0","stamp","0","3016","1","White_Screen.jpg","6","8","Stamp.jpg","6"
"022420","15:44:59","45","45","5.0.14.0","2","109","trial1","naming","0","0","0","0","tiger","0","2503","1","White_Screen.jpg","3","195","TigerWhite.jpg","3"
"022420","15:44:59","45","45","5.0.14.0","2","110","trial1","naming","0","0","0","0","brush","0","3177","1","White_Screen.jpg","3","145","Brush_BathBack.jpg","3"
"022420","15:44:59","45","45","5.0.14.0","2","111","trial1","naming","0","0","0","0","sailboat","0","3599","1","White_Screen.jpg","4","179","Boat_Sail.jpg","4"
"022420","15:44:59","45","45","5.0.14.0","2","112","trial1","naming","0","0","0","0","jack in the box","0","4392","1","White_Screen.jpg","3","60","Toy_JackInTheBox.jpg","3"
"022420","15:44:59","45","45","5.0.14.0","2","113","trial1","naming","0","0","0","0","car battery","0","3671","1","White_Screen.jpg","4","19","Battery_Car.jpg","4"
"022420","15:44:59","45","45","5.0.14.0","2","114","trial1","naming","0","0","0","0","tub","0","6254","1","White_Screen.jpg","4","9","Bucket_Rusty.jpg","4"
"022420","15:44:59","45","45","5.0.14.0","2","115","trial1","naming","0","0","0","0","massager","0","4498","1","White_Screen.jpg","6","78","Magnet_Three.jpg","6"
"022420","15:44:59","45","45","5.0.14.0","2","116","trial1","naming","0","0","0","0","dinosaur ","0","6304","1","White_Screen.jpg","9","125","Toy_DinosaurBrontosaurus.jpg","9"
"022420","15:44:59","45","45","5.0.14.0","2","117","trial1","naming","0","0","0","0","tractor","0","4342","1","White_Screen.jpg","5","4","Tractor_Yellow.jpg","5"
"022420","15:44:59","45","45","5.0.14.0","2","118","trial1","naming","0","0","0","0","dresser","0","2868","1","White_Screen.jpg","5","108","Dresser.jpg","5"
"022420","15:44:59","45","45","5.0.14.0","2","119","trial1","naming","0","0","0","0","dress","0","2968","1","White_Screen.jpg","4","113","Dress_Party.jpg","4"
"022420","15:44:59","45","45","5.0.14.0","2","120","trial1","naming","0","0","0","0","dragonfly","0","3922","1","White_Screen.jpg","4","94","Dragonfly.jpg","4"
"022420","15:44:59","45","45","5.0.14.0","2","121","trial1","naming","0","0","0","0","toy","0","3611","1","White_Screen.jpg","4","41","Toy_ModelMolecule.jpg","4"
"022420","15:44:59","45","45","5.0.14.0","2","122","trial1","naming","0","0","0","0","lock","0","2780","1","White_Screen.jpg","4","70","Lock_Key.jpg","4"
"022420","15:44:59","45","45","5.0.14.0","2","123","trial1","naming","0","0","0","0","cigar cutter","0","4710","1","White_Screen.jpg","3","96","CigarCutter.jpg","3"
"022420","15:44:59","45","45","5.0.14.0","2","124","trial1","naming","0","0","0","0","washer","0","2511","1","White_Screen.jpg","5","48","WashingMachine.jpg","5"
"022420","15:44:59","45","45","5.0.14.0","2","125","trial1","naming","0","0","0","0","kabob","0","4060","1","White_Screen.jpg","3","168","Kebab_Vegetables.jpg","3"
"022420","15:44:59","45","45","5.0.14.0","2","126","trial1","naming","0","0","0","0","journal","0","5105","1","White_Screen.jpg","4","45","Book_Leather.jpg","4"
"022420","15:44:59","45","45","5.0.14.0","2","127","trial1","naming","0","0","0","0","breast pump","0","6167","1","White_Screen.jpg","3","173","PumpBreast.jpg","3"
"022420","15:44:59","45","45","5.0.14.0","2","128","trial1","naming","0","0","0","0","gas mask","0","7030","1","White_Screen.jpg","4","28","Mask_CPR.jpg","4"
"022420","15:44:59","45","45","5.0.14.0","2","129","trial1","naming","0","0","0","0","stool","0","2909","1","White_Screen.jpg","6","66","Stool_Wood.jpg","6"
"022420","15:44:59","45","45","5.0.14.0","2","130","trial1","naming","0","0","0","0","wreath","0","2890","1","White_Screen.jpg","7","187","Wreath.jpg","7"
"022420","15:44:59","45","45","5.0.14.0","2","131","trial1","naming","0","0","0","0","shower cap","0","3690","1","White_Screen.jpg","4","114","ShowerCap.jpg","4"
"022420","15:44:59","45","45","5.0.14.0","2","132","trial1","naming","0","0","0","0","sandcastle","0","4962","1","White_Screen.jpg","5","37","Castle_Sand.jpg","5"
"022420","15:44:59","45","45","5.0.14.0","2","133","trial1","naming","0","0","0","0","dog house","0","3059","1","White_Screen.jpg","4","107","DogHouse.jpg","4"
"022420","15:44:59","45","45","5.0.14.0","2","134","trial1","naming","0","0","0","0","crow bar","0","2860","1","White_Screen.jpg","4","53","Crowbar.jpg","4"
"022420","15:44:59","45","45","5.0.14.0","2","135","trial1","naming","0","0","0","0","propane stove","0","6179","1","White_Screen.jpg","4","98","Stove_Propane.jpg","4"
"022420","15:44:59","45","45","5.0.14.0","2","136","trial1","naming","0","0","0","0","watering can","0","4509","1","White_Screen.jpg","3","43","WateringCan_Antique.jpg","3"
"022420","15:44:59","45","45","5.0.14.0","2","137","trial1","naming","0","0","0","0","scalpel","0","4630","1","White_Screen.jpg","6","139","Scalpel.jpg","6"
"022420","15:44:59","45","45","5.0.14.0","2","138","trial1","naming","0","0","0","0","earring","0","2818","1","White_Screen.jpg","2","138","Earring_Hoop.jpg","2"
"022420","15:44:59","45","45","5.0.14.0","2","139","trial1","naming","0","0","0","0","caterpillar ","0","5682","1","White_Screen.jpg","3","42","Caterpillar.jpg","3"
"022420","15:44:59","45","45","5.0.14.0","2","140","trial1","naming","0","0","0","0","casket","0","3842","1","White_Screen.jpg","3","62","CasketOpen.jpg","3"
"022420","15:44:59","45","45","5.0.14.0","2","141","trial1","naming","0","0","0","0","doll","0","2895","1","White_Screen.jpg","6","35","Doll_Rag.jpg","6"
"022420","15:44:59","45","45","5.0.14.0","2","142","trial1","naming","0","0","0","0","space shuttle","0","4336","1","White_Screen.jpg","4","198","SpaceShuttle.jpg","4"
"022420","15:44:59","45","45","5.0.14.0","2","143","trial1","naming","0","0","0","0","basketball","0","3189","1","White_Screen.jpg","4","104","Ball_Basketball.jpg","4"
"022420","15:44:59","45","45","5.0.14.0","2","144","trial1","naming","0","0","0","0","toy","0","3213","1","White_Screen.jpg","4","165","Toy_Wooden rings.jpg","4"
"022420","15:44:59","45","45","5.0.14.0","2","145","trial1","naming","0","0","0","0","office oganizer ","0","6372","1","White_Screen.jpg","6","65","PenHolder.jpg","6"
"022420","15:44:59","45","45","5.0.14.0","2","146","trial1","naming","0","0","0","0","dumbel","0","4717","1","White_Screen.jpg","4","58","Weights_Dumbells.jpg","4"
"022420","15:44:59","45","45","5.0.14.0","2","147","trial1","naming","0","0","0","0","hand bag","0","3454","1","White_Screen.jpg","7","126","Makeup_Bag.jpg","7"
"022420","15:44:59","45","45","5.0.14.0","2","148","trial1","naming","0","0","0","0","ring box","0","3415","1","White_Screen.jpg","4","93","Box_Floral.jpg","4"
"022420","15:44:59","45","45","5.0.14.0","2","149","trial1","naming","0","0","0","0","tank","0","2339","1","White_Screen.jpg","4","67","Toy_Tank.jpg","4"
"022420","15:44:59","45","45","5.0.14.0","2","150","trial1","naming","0","0","0","0","pasta","0","3376","1","White_Screen.jpg","3","185","Pasta_Fettuccine.jpg","3"
"022420","15:44:59","45","45","5.0.14.0","2","151","trial1","naming","0","0","0","0","fire hydrent ","0","4423","1","White_Screen.jpg","3","72","FireHydrant.jpg","3"
"022420","15:44:59","45","45","5.0.14.0","2","152","trial1","naming","0","0","0","0","zamboni","0","4661","1","White_Screen.jpg","4","148","StreetSweeper.jpg","4"
"022420","15:44:59","45","45","5.0.14.0","2","154","trial1","naming","0","0","0","0","bagpipe","0","2606","1","White_Screen.jpg","4","146","Bagpipes.jpg","4"
"022420","15:44:59","45","45","5.0.14.0","2","155","trial1","naming","0","0","0","0","nothing picture","0","10000","1","White_Screen.jpg","4","137","White_Screen.jpg","4"
"022420","15:44:59","45","45","5.0.14.0","2","156","trial1","naming","0","0","0","0","gift","0","4425","1","White_Screen.jpg","4","122","Box_Present.jpg","4"
"022420","15:44:59","45","45","5.0.14.0","2","157","trial1","naming","0","0","0","0","paddle","0","3027","1","White_Screen.jpg","4","12","Paddle_Beach.jpg","4"
"022420","15:44:59","45","45","5.0.14.0","2","158","trial1","naming","0","0","0","0","ribbon","0","7047","1","White_Screen.jpg","4","111","RibbonSpool.jpg","4"
"022420","15:44:59","45","45","5.0.14.0","2","159","trial1","naming","0","0","0","0","paper shredder","0","4058","1","White_Screen.jpg","8","197","PaperShredder.jpg","8"
"022420","15:44:59","45","45","5.0.14.0","2","160","trial1","naming","0","0","0","0","saw","0","2588","1","White_Screen.jpg","4","161","Saw.jpg","4"
"022420","15:44:59","45","45","5.0.14.0","2","161","trial1","naming","0","0","0","0","ascara","0","7860","1","White_Screen.jpg","4","160","Makeup_Mascara.jpg","4"
"022420","15:44:59","45","45","5.0.14.0","2","162","trial1","naming","0","0","0","0","bean bag","0","8083","1","White_Screen.jpg","3","177","Yarmulke.jpg","3"
"022420","15:44:59","45","45","5.0.14.0","2","163","trial1","naming","0","0","0","0","mat","0","3850","1","White_Screen.jpg","4","131","Mat_Bamboo.jpg","4"
"022420","15:44:59","45","45","5.0.14.0","2","164","trial1","naming","0","0","0","0","speaker","0","5717","1","White_Screen.jpg","8","117","Clock_Radioalarm.jpg","8"
"022420","15:44:59","45","45","5.0.14.0","2","165","trial1","naming","0","0","0","0","rock","0","3359","1","White_Screen.jpg","4","156","GoldNugget.jpg","4"
"022420","15:44:59","45","45","5.0.14.0","2","166","trial1","naming","0","0","0","0","barometer","0","5511","1","White_Screen.jpg","3","59","Barometer.jpg","3"
"022420","15:44:59","45","45","5.0.14.0","2","167","trial1","naming","0","0","0","0","cask","0","4124","1","White_Screen.jpg","3","57","Tray_Wooden.jpg","3"
"022420","15:44:59","45","45","5.0.14.0","2","168","trial1","naming","0","0","0","0","walkee talkee","0","4614","1","White_Screen.jpg","4","163","Phone_Wireless.jpg","4"
"022420","15:44:59","45","45","5.0.14.0","2","169","trial1","naming","0","0","0","0","vertabrea","0","4707","1","White_Screen.jpg","8","109","SpinalCord.jpg","8"
"022420","15:44:59","45","45","5.0.14.0","2","170","trial1","naming","0","0","0","0","hockey stick","0","3981","1","White_Screen.jpg","4","193","Stick_IceHockey.jpg","4"
"022420","15:44:59","45","45","5.0.14.0","2","171","trial1","naming","0","0","0","0","ash tray","0","4104","1","White_Screen.jpg","4","10","ContactLens.jpg","4"
"022420","15:44:59","45","45","5.0.14.0","2","172","trial1","naming","0","0","0","0","curio cabinet","0","4952","1","White_Screen.jpg","3","36","Cabinet_Display.jpg","3"
"022420","15:44:59","45","45","5.0.14.0","2","173","trial1","naming","0","0","0","0","paddle","0","4177","1","White_Screen.jpg","4","92","Spatula.jpg","4"
"022420","15:44:59","45","45","5.0.14.0","2","174","trial1","naming","0","0","0","0","sword","0","3115","1","White_Screen.jpg","4","30","Sword.jpg","4"
"022420","15:44:59","45","45","5.0.14.0","2","175","trial1","naming","0","0","0","0","scroll","0","2869","1","White_Screen.jpg","3","90","Scroll.jpg","3"
"022420","15:44:59","45","45","5.0.14.0","2","176","trial1","naming","0","0","0","0","canteen","0","2941","1","White_Screen.jpg","6","46","Canteen.jpg","6"
"022420","15:44:59","45","45","5.0.14.0","2","177","trial1","naming","0","0","0","0","cabinet ","0","4430","1","White_Screen.jpg","4","158","Cabinet_Office.jpg","4"
"022420","15:44:59","45","45","5.0.14.0","2","178","trial1","naming","0","0","0","0","hair clip","0","3340","1","White_Screen.jpg","3","141","HairClip.jpg","3"
"022420","15:44:59","45","45","5.0.14.0","2","179","trial1","naming","0","0","0","0","shorts","0","2795","1","White_Screen.jpg","6","80","Shorts_Plaid.jpg","6"
"022420","15:44:59","45","45","5.0.14.0","2","180","trial1","naming","0","0","0","0","knight","0","3563","1","White_Screen.jpg","4","95","ChessPiece_Knight.jpg","4"
"022420","15:44:59","45","45","5.0.14.0","2","181","trial1","naming","0","0","0","0","cello","0","2981","1","White_Screen.jpg","6","55","DoubleBass.jpg","6"
"022420","15:44:59","45","45","5.0.14.0","2","182","trial1","naming","0","0","0","0","brush","0","5129","1","White_Screen.jpg","4","44","Brush_Cleaning.jpg","4"
"022420","15:44:59","45","45","5.0.14.0","2","183","trial1","naming","0","0","0","0","playing card","0","4062","1","White_Screen.jpg","4","120","Card_TwoSpade.jpg","4"
"022420","15:44:59","45","45","5.0.14.0","2","184","trial1","naming","0","0","0","0","strainer","0","3236","1","White_Screen.jpg","4","39","Colander.jpg","4"
"022420","15:44:59","45","45","5.0.14.0","2","185","trial1","naming","0","0","0","0","lip gloss","0","4482","1","White_Screen.jpg","7","133","NailPolish.jpg","7"
"022420","15:44:59","45","45","5.0.14.0","2","186","trial1","naming","0","0","0","0","boa","0","2523","1","White_Screen.jpg","4","71","Toy_Boat.jpg","4"
"022420","15:44:59","45","45","5.0.14.0","2","187","trial1","naming","0","0","0","0","clothespin","0","4227","1","White_Screen.jpg","4","20","Clothespin_Red.jpg","4"
"022420","15:44:59","45","45","5.0.14.0","2","188","trial1","naming","0","0","0","0","drum sticks","0","3469","1","White_Screen.jpg","3","142","Stick_Drum.jpg","3"
"022420","15:44:59","45","45","5.0.14.0","2","189","trial1","naming","0","0","0","0","booties","0","2922","1","White_Screen.jpg","4","74","Socks_Baby.jpg","4"
"022420","15:44:59","45","45","5.0.14.0","2","190","trial1","naming","0","0","0","0","pen set","0","4075","1","White_Screen.jpg","4","149","PenStand.jpg","4"
"022420","15:44:59","45","45","5.0.14.0","2","191","trial1","naming","0","0","0","0","marble","0","3504","1","White_Screen.jpg","4","169","Glass_Ball.jpg","4"
"022420","15:44:59","45","45","5.0.14.0","2","192","trial1","naming","0","0","0","0","can opener","0","3792","1","White_Screen.jpg","6","192","CanOpener.jpg","6"
"022420","15:44:59","45","45","5.0.14.0","2","193","trial1","naming","0","0","0","0","deodorant","0","5288","1","White_Screen.jpg","4","167","Deodorant.jpg","4"
"022420","15:44:59","45","45","5.0.14.0","2","194","trial1","naming","0","0","0","0","hard hat","0","3322","1","White_Screen.jpg","4","51","Helmet_Construction.jpg","4"
"022420","15:44:59","45","45","5.0.14.0","2","195","trial1","naming","0","0","0","0","telephone","0","3693","1","White_Screen.jpg","5","1","Telephone_DialAntique.jpg","5"
"022420","15:44:59","45","45","5.0.14.0","2","196","trial1","naming","0","0","0","0","sting ray","0","3552","1","White_Screen.jpg","4","50","HorseshoeCrab.jpg","4"
"022420","15:44:59","45","45","5.0.14.0","2","197","trial1","naming","0","0","0","0","police tape","0","3801","1","White_Screen.jpg","4","155","PoliceTape.jpg","4"
"022420","15:44:59","45","45","5.0.14.0","2","198","trial1","naming","0","0","0","0","pait can","0","3147","1","White_Screen.jpg","4","194","PaintCan.jpg","4"
"022420","15:44:59","45","45","5.0.14.0","2","199","trial1","naming","0","0","0","0","ping pong paddle","0","5223","1","White_Screen.jpg","4","88","Paddle_PingPong.jpg","4"
"022420","15:44:59","45","45","5.0.14.0","2","200","trial1","naming","0","0","0","0","fruit","0","2987","1","White_Screen.jpg","6","64","PassionFruit.jpg","6"
"022420","15:44:59","45","45","5.0.14.0","2","201","trial1","naming","0","0","0","0","panda","0","2741","1","White_Screen.jpg","4","22","Panda.jpg","4"
"022420","15:44:59","45","45","5.0.14.0","2","202","trial1","naming","0","0","0","0","display holder","0","8151","1","White_Screen.jpg","3","191","Table_Magazine.jpg","3"
"022420","15:44:59","45","45","5.0.14.0","2","203","trial1","naming","0","0","0","0","light switch","0","4010","1","White_Screen.jpg","6","130","Switch_LightWhite.jpg","6"
"022420","15:44:59","45","45","5.0.14.0","3","1","demographics_block","gender","0","0","0","0","male","1","19292","0","0","0","0","0","0"
"022420","15:44:59","45","45","5.0.14.0","3","1","demographics_block","age","0","0","0","0","26","1","19292","0","0","0","0","0","0"
"022420","15:44:59","45","45","5.0.14.0","3","1","demographics_block","education","0","0","0","0","16","1","19292","0","0","0","0","0","0"
"022420","15:44:59","45","45","5.0.14.0","3","2","demographics_block","left_right_handed","0","0","0","0","Right","1","7089","0","0","0","0","0","0"
"022420","15:44:59","45","45","5.0.14.0","3","2","demographics_block","raceoption1","0","0","0","0","0","1","7089","0","0","0","0","0","0"
"022420","15:44:59","45","45","5.0.14.0","3","2","demographics_block","raceoption2","0","0","0","0","","1","7089","0","0","0","0","0","0"
"022420","15:44:59","45","45","5.0.14.0","3","2","demographics_block","raceoption3","0","0","0","0","","1","7089","0","0","0","0","0","0"
"022420","15:44:59","45","45","5.0.14.0","3","2","demographics_block","raceoption4","0","0","0","0","","1","7089","0","0","0","0","0","0"
"022420","15:44:59","45","45","5.0.14.0","3","2","demographics_block","raceoption5","0","0","0","0","","1","7089","0","0","0","0","0","0"
"022420","15:44:59","45","45","5.0.14.0","3","2","demographics_block","raceoption6","0","0","0","0","","1","7089","0","0","0","0","0","0"
"022420","15:44:59","45","45","5.0.14.0","3","2","demographics_block","raceoption7","0","0","0","0","","1","7089","0","0","0","0","0","0"
"022420","15:44:59","45","45","5.0.14.0","3","2","demographics_block","raceoption8","0","0","0","0","","1","7089","0","0","0","0","0","0"
"022420","15:44:59","45","45","5.0.14.0","3","2","demographics_block","raceoption9","0","0","0","0","","1","7089","0","0","0","0","0","0"
"022420","15:44:59","45","45","5.0.14.0","3","2","demographics_block","raceother","0","0","0","0","","1","7089","0","0","0","0","0","0"
"022420","15:44:59","45","45","5.0.14.0","3","2","demographics_block","raceother","0","0","0","0","","1","7089","0","0","0","0","0","0"
"022420","15:44:59","45","45","5.0.14.0","3","2","demographics_block","english_language","0","0","0","0","Yes","1","7089","0","0","0","0","0","0"
"022420","15:44:59","45","45","5.0.14.0","3","2","demographics_block","english_languageother","0","0","0","0","","1","7089","0","0","0","0","0","0"
"022420","15:44:59","45","45","5.0.14.0","3","3","demographics_block","eyesight","0","0","0","0","Yes","1","3696","0","0","0","0","0","0"
"022420","15:44:59","45","45","5.0.14.0","3","3","demographics_block","colorblind","0","0","0","0","No","1","3696","0","0","0","0","0","0"
"022420","15:44:59","45","45","5.0.14.0","4","1","worker_id_block","worker_id_textbox","0","0","0","0","A2IZAD6SRVCPRY","1","14333","0","0","0","0","0","0"
"022420","14:58:04","48","48","5.0.14.0","2","1","trial1","naming","0","0","0","0","GAME BOY","0","8693","1","White_Screen.jpg","136","159","Gameboy.jpg","136"
"022420","14:58:04","48","48","5.0.14.0","2","2","trial1","naming","0","0","0","0","OX","0","8195","1","White_Screen.jpg","15","184","Nyala.jpg","15"
"022420","14:58:04","48","48","5.0.14.0","2","3","trial1","naming","0","0","0","0","TEA POT","0","4568","1","White_Screen.jpg","13","99","Teapot.jpg","13"
"022420","14:58:04","48","48","5.0.14.0","2","4","trial1","naming","0","0","0","0","DOG HOUSE","0","4269","1","White_Screen.jpg","14","107","DogHouse.jpg","14"
"022420","14:58:04","48","48","5.0.14.0","2","5","trial1","naming","0","0","0","0","BASTER","0","5317","1","White_Screen.jpg","15","18","Baster.jpg","15"
"022420","14:58:04","48","48","5.0.14.0","2","6","trial1","naming","0","0","0","0","SWORD","0","4857","1","White_Screen.jpg","12","30","Sword.jpg","12"
"022420","14:58:04","48","48","5.0.14.0","2","7","trial1","naming","0","0","0","0","F1 KEY","0","4008","1","White_Screen.jpg","12","127","ComputerKeyboard_F1.jpg","12"
"022420","14:58:04","48","48","5.0.14.0","2","8","trial1","naming","0","0","0","0","ROTARY TELEPHONE","0","8224","1","White_Screen.jpg","12","1","Telephone_DialAntique.jpg","12"
"022420","14:58:04","48","48","5.0.14.0","2","9","trial1","naming","0","0","0","0","PADLOCK","0","5209","1","White_Screen.jpg","13","70","Lock_Key.jpg","13"
"022420","14:58:04","48","48","5.0.14.0","2","10","trial1","naming","0","0","0","0","MONITOR CABLE","0","10000","1","White_Screen.jpg","13","121","VGAport.jpg","13"
"022420","14:58:04","48","48","5.0.14.0","2","11","trial1","naming","0","0","0","0","Enter Name","0","139","1","White_Screen.jpg","15","120","Card_TwoSpade.jpg","15"
"022420","14:58:04","48","48","5.0.14.0","2","12","trial1","naming","0","0","0","0","CAN OPENER","0","6093","1","White_Screen.jpg","14","192","CanOpener.jpg","14"
"022420","14:58:04","48","48","5.0.14.0","2","13","trial1","naming","0","0","0","0","CORAL","0","3718","1","White_Screen.jpg","16","166","Coral.jpg","16"
"022420","14:58:04","48","48","5.0.14.0","2","14","trial1","naming","0","0","0","0","Enter Name","0","10000","1","White_Screen.jpg","14","128","Tray_Medical.jpg","14"
"022420","14:58:04","48","48","5.0.14.0","2","15","trial1","naming","0","0","0","0","ORANGE","0","5095","1","White_Screen.jpg","13","200","Fruit_Orange.jpg","13"
"022420","14:58:04","48","48","5.0.14.0","2","16","trial1","naming","0","0","0","0","DRUM STICKS","0","3329","1","White_Screen.jpg","16","142","Stick_Drum.jpg","16"
"022420","14:58:04","48","48","5.0.14.0","2","17","trial1","naming","0","0","0","0","SAW","0","2862","1","White_Screen.jpg","15","161","Saw.jpg","15"
"022420","14:58:04","48","48","5.0.14.0","2","18","trial1","naming","0","0","0","0","OXYGEN MASK","0","7619","1","White_Screen.jpg","17","28","Mask_CPR.jpg","17"
"022420","14:58:04","48","48","5.0.14.0","2","19","trial1","naming","0","0","0","0","STREET SWEEPER","0","4460","1","White_Screen.jpg","12","148","StreetSweeper.jpg","12"
"022420","14:58:04","48","48","5.0.14.0","2","20","trial1","naming","0","0","0","0","CELL PHONE","0","4980","1","White_Screen.jpg","16","163","Phone_Wireless.jpg","16"
"022420","14:58:04","48","48","5.0.14.0","2","21","trial1","naming","0","0","0","0","RAZOR BLADE","0","6838","1","White_Screen.jpg","15","132","Boxcutter.jpg","15"
"022420","14:58:04","48","48","5.0.14.0","2","22","trial1","naming","0","0","0","0","PRETZEL","0","5260","1","White_Screen.jpg","12","101","Pretzel_Knot.jpg","12"
"022420","14:58:04","48","48","5.0.14.0","2","23","trial1","naming","0","0","0","0","DOLL","0","4451","1","White_Screen.jpg","11","35","Doll_Rag.jpg","11"
"022420","14:58:04","48","48","5.0.14.0","2","24","trial1","naming","0","0","0","0","ROOSTER","0","3629","1","White_Screen.jpg","14","84","Bird_Hen.jpg","14"
"022420","14:58:04","48","48","5.0.14.0","2","25","trial1","naming","0","0","0","0","BABY SOCKS","0","4828","1","White_Screen.jpg","21","74","Socks_Baby.jpg","21"
"022420","14:58:04","48","48","5.0.14.0","2","26","trial1","naming","0","0","0","0","PARTY DRESS","0","5888","1","White_Screen.jpg","15","113","Dress_Party.jpg","15"
"022420","14:58:04","48","48","5.0.14.0","2","27","trial1","naming","0","0","0","0","TIGER","0","4373","1","White_Screen.jpg","14","195","TigerWhite.jpg","14"
"022420","14:58:04","48","48","5.0.14.0","2","28","trial1","naming","0","0","0","0","STOOL","0","3084","1","White_Screen.jpg","15","66","Stool_Wood.jpg","15"
"022420","14:58:04","48","48","5.0.14.0","2","29","trial1","naming","0","0","0","0","SPACE SHUTTLE","0","3730","1","White_Screen.jpg","13","198","SpaceShuttle.jpg","13"
"022420","14:58:04","48","48","5.0.14.0","2","30","trial1","naming","0","0","0","0","PILLS","0","5412","1","White_Screen.jpg","16","91","PillBottle_Closed.jpg","16"
"022420","14:58:04","48","48","5.0.14.0","2","31","trial1","naming","0","0","0","0","SCOOTER","0","7608","1","White_Screen.jpg","16","7","MobilityScooter.jpg","16"
"022420","14:58:04","48","48","5.0.14.0","2","32","trial1","naming","0","0","0","0","SHOWER BRUSH","0","4774","1","White_Screen.jpg","13","145","Brush_BathBack.jpg","13"
"022420","14:58:04","48","48","5.0.14.0","2","33","trial1","naming","0","0","0","0","KNIGHT","0","3995","1","White_Screen.jpg","12","95","ChessPiece_Knight.jpg","12"
"022420","14:58:04","48","48","5.0.14.0","2","34","trial1","naming","0","0","0","0","SKEWER","0","6090","1","White_Screen.jpg","14","168","Kebab_Vegetables.jpg","14"
"022420","14:58:04","48","48","5.0.14.0","2","35","trial1","naming","0","0","0","0","PAINT CAN","0","4310","1","White_Screen.jpg","14","194","PaintCan.jpg","14"
"022420","14:58:04","48","48","5.0.14.0","2","36","trial1","naming","0","0","0","0","CANE","0","2989","1","White_Screen.jpg","16","129","Cane_Metal.jpg","16"
"022420","14:58:04","48","48","5.0.14.0","2","37","trial1","naming","0","0","0","0","INHALER","0","8608","1","White_Screen.jpg","14","173","PumpBreast.jpg","14"
"022420","14:58:04","48","48","5.0.14.0","2","38","trial1","naming","0","0","0","0","HOCKEY STICK","0","3404","1","White_Screen.jpg","13","193","Stick_IceHockey.jpg","13"
"022420","14:58:04","48","48","5.0.14.0","2","39","trial1","naming","0","0","0","0","PAPERS","0","3945","1","White_Screen.jpg","12","75","PaperStack.jpg","12"
"022420","14:58:04","48","48","5.0.14.0","2","40","trial1","naming","0","0","0","0","MAKEUP BAG","0","4612","1","White_Screen.jpg","13","126","Makeup_Bag.jpg","13"
"022420","14:58:04","48","48","5.0.14.0","2","41","trial1","naming","0","0","0","0","TRAY","0","3456","1","White_Screen.jpg","15","57","Tray_Wooden.jpg","15"
"022420","14:58:04","48","48","5.0.14.0","2","42","trial1","naming","0","0","0","0","JUMPER CABLES","0","3992","1","White_Screen.jpg","12","81","Cable_JumpStart.jpg","12"
"022420","14:58:04","48","48","5.0.14.0","2","43","trial1","naming","0","0","0","0","FILE FOLDER","0","7637","1","White_Screen.jpg","13","135","FileDivider.jpg","13"
"022420","14:58:04","48","48","5.0.14.0","2","44","trial1","naming","0","0","0","0","CANDLESTICK","0","3699","1","White_Screen.jpg","16","23","Candleholder_Tall.jpg","16"
"022420","14:58:04","48","48","5.0.14.0","2","45","trial1","naming","0","0","0","0","CANTENE","0","9615","1","White_Screen.jpg","14","46","Canteen.jpg","14"
"022420","14:58:04","48","48","5.0.14.0","2","46","trial1","naming","0","0","0","0","TIE","0","2659","1","White_Screen.jpg","15","103","Tie.jpg","15"
"022420","14:58:04","48","48","5.0.14.0","2","47","trial1","naming","0","0","0","0","PRINTER","0","8311","1","White_Screen.jpg","11","13","Centrifuge.jpg","11"
"022420","14:58:04","48","48","5.0.14.0","2","48","trial1","naming","0","0","0","0","HIGH HEEL SHOE","0","6765","1","White_Screen.jpg","13","34","Shoe_Highheel.jpg","13"
"022420","14:58:04","48","48","5.0.14.0","2","49","trial1","naming","0","0","0","0","PRESENT","0","4197","1","White_Screen.jpg","17","122","Box_Present.jpg","17"
"022420","14:58:04","48","48","5.0.14.0","2","50","trial1","naming","0","0","0","0","FAUCET","0","6118","1","White_Screen.jpg","15","100","Faucet.jpg","15"
"022420","14:58:04","48","48","5.0.14.0","2","52","trial1","naming","0","0","0","0","FLASHLIGHT","0","4966","1","White_Screen.jpg","15","174","Flashlight.jpg","15"
"022420","14:58:04","48","48","5.0.14.0","2","53","trial1","naming","0","0","0","0","CHINESE CHECKERS","0","9670","1","White_Screen.jpg","20","162","Boardgame_ChineseCheckers.jpg","20"
"022420","14:58:04","48","48","5.0.14.0","2","54","trial1","naming","0","0","0","0","SHAVING BRUSH","0","10000","1","White_Screen.jpg","15","54","Brush_Shaving.jpg","15"
"022420","14:58:04","48","48","5.0.14.0","2","55","trial1","naming","0","0","0","0","Enter Name","0","278","1","White_Screen.jpg","15","134","RollerCoaster.jpg","15"
"022420","14:58:04","48","48","5.0.14.0","2","56","trial1","naming","0","0","0","0","NAIL FILES","0","7949","1","White_Screen.jpg","13","119","NailFiles.jpg","13"
"022420","14:58:04","48","48","5.0.14.0","2","57","trial1","naming","0","0","0","0","WREATH","0","3478","1","White_Screen.jpg","20","187","Wreath.jpg","20"
"022420","14:58:04","48","48","5.0.14.0","2","58","trial1","naming","0","0","0","0","DRESSER","0","3770","1","White_Screen.jpg","12","108","Dresser.jpg","12"
"022420","14:58:04","48","48","5.0.14.0","2","59","trial1","naming","0","0","0","0","PAINT ROLLER","0","8336","1","White_Screen.jpg","15","116","PaintRollTray.jpg","15"
"022420","14:58:04","48","48","5.0.14.0","2","60","trial1","naming","0","0","0","0","ENVELOPE ORGANIZE","0","7384","1","White_Screen.jpg","14","191","Table_Magazine.jpg","14"
"022420","14:58:04","48","48","5.0.14.0","2","61","trial1","naming","0","0","0","0","HAIR CLIP","0","5618","1","White_Screen.jpg","15","141","HairClip.jpg","15"
"022420","14:58:04","48","48","5.0.14.0","2","62","trial1","naming","0","0","0","0","GIRAFFE","0","3288","1","White_Screen.jpg","14","24","Giraffe.jpg","14"
"022420","14:58:04","48","48","5.0.14.0","2","63","trial1","naming","0","0","0","0","DOMINO","0","3839","1","White_Screen.jpg","14","73","Domino.jpg","14"
"022420","14:58:04","48","48","5.0.14.0","2","64","trial1","naming","0","0","0","0","SCREW","0","2997","1","White_Screen.jpg","16","83","Screw.jpg","16"
"022420","14:58:04","48","48","5.0.14.0","2","65","trial1","naming","0","0","0","0","BUNSON BURNER","0","7827","1","White_Screen.jpg","15","98","Stove_Propane.jpg","15"
"022420","14:58:04","48","48","5.0.14.0","2","66","trial1","naming","0","0","0","0","ATOM MODEL","0","4269","1","White_Screen.jpg","15","41","Toy_ModelMolecule.jpg","15"
"022420","14:58:04","48","48","5.0.14.0","2","67","trial1","naming","0","0","0","0","CASKET","0","3585","1","White_Screen.jpg","16","62","CasketOpen.jpg","16"
"022420","14:58:04","48","48","5.0.14.0","2","68","trial1","naming","0","0","0","0","PING PONG PADDLE","0","6008","1","White_Screen.jpg","15","88","Paddle_PingPong.jpg","15"
"022420","14:58:04","48","48","5.0.14.0","2","69","trial1","naming","0","0","0","0","POOL FLOAT","0","9832","1","White_Screen.jpg","13","78","Magnet_Three.jpg","13"
"022420","14:58:04","48","48","5.0.14.0","2","70","trial1","naming","0","0","0","0","PANDA","0","2424","1","White_Screen.jpg","15","22","Panda.jpg","15"
"022420","14:58:04","48","48","5.0.14.0","2","71","trial1","naming","0","0","0","0","SAILBOAT","0","2980","1","White_Screen.jpg","12","179","Boat_Sail.jpg","12"
"022420","14:58:04","48","48","5.0.14.0","2","72","trial1","naming","0","0","0","0","CAR BATTERY","0","4578","1","White_Screen.jpg","15","19","Battery_Car.jpg","15"
"022420","14:58:04","48","48","5.0.14.0","2","73","trial1","naming","0","0","0","0","Enter Name","0","10000","1","White_Screen.jpg","15","36","Cabinet_Display.jpg","15"
"022420","14:58:04","48","48","5.0.14.0","2","74","trial1","naming","0","0","0","0","RIGHT TURN ARROW","0","4680","1","White_Screen.jpg","14","170","Sign_TrafficArrow.jpg","14"
"022420","14:58:04","48","48","5.0.14.0","2","75","trial1","naming","0","0","0","0","MANGO","0","3919","1","White_Screen.jpg","15","64","PassionFruit.jpg","15"
"022420","14:58:04","48","48","5.0.14.0","2","76","trial1","naming","0","0","0","0","CRIB","0","4017","1","White_Screen.jpg","14","150","Crib_Standard.jpg","14"
"022420","14:58:04","48","48","5.0.14.0","2","77","trial1","naming","0","0","0","0","PAIL","0","3040","1","White_Screen.jpg","21","9","Bucket_Rusty.jpg","21"
"022420","14:58:04","48","48","5.0.14.0","2","78","trial1","naming","0","0","0","0","GLOVES","0","7104","1","White_Screen.jpg","12","68","Gloves_WhiteKnit.jpg","12"
"022420","14:58:04","48","48","5.0.14.0","2","79","trial1","naming","0","0","0","0","GAS MASK","0","4593","1","White_Screen.jpg","13","189","Mask_Gas.jpg","13"
"022420","14:58:04","48","48","5.0.14.0","2","80","trial1","naming","0","0","0","0","WEIGHT","0","4221","1","White_Screen.jpg","13","58","Weights_Dumbells.jpg","13"
"022420","14:58:04","48","48","5.0.14.0","2","81","trial1","naming","0","0","0","0","JEEP AND TRAILER","0","8473","1","White_Screen.jpg","12","3","Toy_TrailerAirport.jpg","12"
"022420","14:58:04","48","48","5.0.14.0","2","82","trial1","naming","0","0","0","0","BASKETBALL","0","3817","1","White_Screen.jpg","12","104","Ball_Basketball.jpg","12"
"022420","14:58:04","48","48","5.0.14.0","2","83","trial1","naming","0","0","0","0","SHOELACE","0","3474","1","White_Screen.jpg","23","21","ShoeLace_Flat.jpg","23"
"022420","14:58:04","48","48","5.0.14.0","2","84","trial1","naming","0","0","0","0","CIGARS","0","3578","1","White_Screen.jpg","16","171","CigarCase.jpg","16"
"022420","14:58:04","48","48","5.0.14.0","2","85","trial1","naming","0","0","0","0","CABINET","0","3632","1","White_Screen.jpg","17","158","Cabinet_Office.jpg","17"
"022420","14:58:04","48","48","5.0.14.0","2","86","trial1","naming","0","0","0","0","JOURNAL","0","4318","1","White_Screen.jpg","15","45","Book_Leather.jpg","15"
"022420","14:58:04","48","48","5.0.14.0","2","87","trial1","naming","0","0","0","0","CRATE","0","2904","1","White_Screen.jpg","16","40","Box_WoodCrate.jpg","16"
"022420","14:58:04","48","48","5.0.14.0","2","88","trial1","naming","0","0","0","0","CALCULATOR","0","4109","1","White_Screen.jpg","12","14","AlarmSystem.jpg","12"
"022420","14:58:04","48","48","5.0.14.0","2","89","trial1","naming","0","0","0","0","RACK","0","3507","1","White_Screen.jpg","14","5","GrillRack.jpg","14"
"022420","14:58:04","48","48","5.0.14.0","2","90","trial1","naming","0","0","0","0","SLED","0","3847","1","White_Screen.jpg","12","140","Sled.jpg","12"
"022420","14:58:04","48","48","5.0.14.0","2","91","trial1","naming","0","0","0","0","BEEF SKEWER","0","7260","1","White_Screen.jpg","16","172","Kebab_Meat.jpg","16"
"022420","14:58:04","48","48","5.0.14.0","2","92","trial1","naming","0","0","0","0","BASKET","0","3539","1","White_Screen.jpg","16","124","Basket_Straw.jpg","16"
"022420","14:58:04","48","48","5.0.14.0","2","93","trial1","naming","0","0","0","0","MAILBOX","0","3799","1","White_Screen.jpg","14","110","Mailbox_Antique.jpg","14"
"022420","14:58:04","48","48","5.0.14.0","2","94","trial1","naming","0","0","0","0","CLOTHESPIN","0","4279","1","White_Screen.jpg","16","20","Clothespin_Red.jpg","16"
"022420","14:58:04","48","48","5.0.14.0","2","95","trial1","naming","0","0","0","0","PASTA","0","3217","1","White_Screen.jpg","17","185","Pasta_Fettuccine.jpg","17"
"022420","14:58:04","48","48","5.0.14.0","2","96","trial1","naming","0","0","0","0","BOARD SHORTS","0","4306","1","White_Screen.jpg","17","80","Shorts_Plaid.jpg","17"
"022420","14:58:04","48","48","5.0.14.0","2","97","trial1","naming","0","0","0","0","PROPANE BURNER","0","7717","1","White_Screen.jpg","13","147","Stove_Camping.jpg","13"
"022420","14:58:04","48","48","5.0.14.0","2","98","trial1","naming","0","0","0","0","CORSAGE","0","6948","1","White_Screen.jpg","13","63","Flowers_DryBouquet.jpg","13"
"022420","14:58:04","48","48","5.0.14.0","2","99","trial1","naming","0","0","0","0","REFLEX CHECKER","0","7976","1","White_Screen.jpg","17","33","Hammer_Reflex.jpg","17"
"022420","14:58:04","48","48","5.0.14.0","2","100","trial1","naming","0","0","0","0","HOT WATER FURA","0","10000","1","White_Screen.jpg","16","2","WaterHeater.jpg","16"
"022420","14:58:04","48","48","5.0.14.0","2","101","trial1","naming","0","0","0","0","DRESS","0","4148","1","White_Screen.jpg","15","118","Dress_Blue.jpg","15"
"022420","14:58:04","48","48","5.0.14.0","2","103","trial1","naming","0","0","0","0","HAIR COVER","0","6382","1","White_Screen.jpg","16","114","ShowerCap.jpg","16"
"022420","14:58:04","48","48","5.0.14.0","2","104","trial1","naming","0","0","0","0","COLANDER","0","6291","1","White_Screen.jpg","14","39","Colander.jpg","14"
"022420","14:58:04","48","48","5.0.14.0","2","105","trial1","naming","0","0","0","0","BIRTHDAY CAKE","0","4024","1","White_Screen.jpg","15","11","Cake_Birthday.jpg","15"
"022420","14:58:04","48","48","5.0.14.0","2","106","trial1","naming","0","0","0","0","DENTAL MIRROR","0","5262","1","White_Screen.jpg","15","86","Mirror_Dental.jpg","15"
"022420","14:58:04","48","48","5.0.14.0","2","107","trial1","naming","0","0","0","0","PILLOW","0","4023","1","White_Screen.jpg","15","177","Yarmulke.jpg","15"
"022420","14:58:04","48","48","5.0.14.0","2","108","trial1","naming","0","0","0","0","WATERING CAN","0","4610","1","White_Screen.jpg","17","43","WateringCan_Antique.jpg","17"
"022420","14:58:04","48","48","5.0.14.0","2","109","trial1","naming","0","0","0","0","JACK IN THE BOX","0","7172","1","White_Screen.jpg","14","60","Toy_JackInTheBox.jpg","14"
"022420","14:58:04","48","48","5.0.14.0","2","110","trial1","naming","0","0","0","0","EARRING","0","4295","1","White_Screen.jpg","11","138","Earring_Hoop.jpg","11"
"022420","14:58:04","48","48","5.0.14.0","2","111","trial1","naming","0","0","0","0","SPHINX","0","3832","1","White_Screen.jpg","15","151","Sphinx.jpg","15"
"022420","14:58:04","48","48","5.0.14.0","2","112","trial1","naming","0","0","0","0","BEACH SHOVEL","0","5423","1","White_Screen.jpg","17","154","LitterScoop.jpg","17"
"022420","14:58:04","48","48","5.0.14.0","2","113","trial1","naming","0","0","0","0","FERRY","0","8802","1","White_Screen.jpg","14","102","Boat_Ferry.jpg","14"
"022420","14:58:04","48","48","5.0.14.0","2","114","trial1","naming","0","0","0","0","POLICE BADGE","0","5233","1","White_Screen.jpg","12","152","BadgeSpecialAgent.jpg","12"
"022420","14:58:04","48","48","5.0.14.0","2","115","trial1","naming","0","0","0","0","BABY PLATE","0","7582","1","White_Screen.jpg","17","26","Plate_Children.jpg","17"
"022420","14:58:04","48","48","5.0.14.0","2","116","trial1","naming","0","0","0","0","WHITE SPHERE","0","6134","1","White_Screen.jpg","14","169","Glass_Ball.jpg","14"
"022420","14:58:04","48","48","5.0.14.0","2","117","trial1","naming","0","0","0","0","CHRISTMAS TREE","0","6636","1","White_Screen.jpg","13","38","Tree_ChristmasMini.jpg","13"
"022420","14:58:04","48","48","5.0.14.0","2","118","trial1","naming","0","0","0","0","HARD HAT","0","4693","1","White_Screen.jpg","14","51","Helmet_Construction.jpg","14"
"022420","14:58:04","48","48","5.0.14.0","2","119","trial1","naming","0","0","0","0","TOY BOX","0","4666","1","White_Screen.jpg","15","115","Chest_Toys.jpg","15"
"022420","14:58:04","48","48","5.0.14.0","2","120","trial1","naming","0","0","0","0","BAROMETER","0","4945","1","White_Screen.jpg","14","59","Barometer.jpg","14"
"022420","14:58:04","48","48","5.0.14.0","2","121","trial1","naming","0","0","0","0","ELECTRIC RAZOR","0","4853","1","White_Screen.jpg","14","106","HairClipper.jpg","14"
"022420","14:58:04","48","48","5.0.14.0","2","122","trial1","naming","0","0","0","0","SOAP DISH","0","5726","1","White_Screen.jpg","12","27","SoapDish.jpg","12"
"022420","14:58:04","48","48","5.0.14.0","2","123","trial1","naming","0","0","0","0","TOY BOAT","0","4677","1","White_Screen.jpg","14","71","Toy_Boat.jpg","14"
"022420","14:58:04","48","48","5.0.14.0","2","124","trial1","naming","0","0","0","0","TANK","0","3950","1","White_Screen.jpg","15","67","Toy_Tank.jpg","15"
"022420","14:58:04","48","48","5.0.14.0","2","125","trial1","naming","0","0","0","0","SPINNING TOP","0","5231","1","White_Screen.jpg","16","199","Toy_Top.jpg","16"
"022420","14:58:04","48","48","5.0.14.0","2","126","trial1","naming","0","0","0","0","COUNTING RINGS","0","8610","1","White_Screen.jpg","13","165","Toy_Wooden rings.jpg","13"
"022420","14:58:04","48","48","5.0.14.0","2","127","trial1","naming","0","0","0","0","TURKEY","0","2886","1","White_Screen.jpg","19","87","TurkeyDinner.jpg","19"
"022420","14:58:04","48","48","5.0.14.0","2","128","trial1","naming","0","0","0","0","TOOL BOX","0","3805","1","White_Screen.jpg","12","85","Toolbox_Old.jpg","12"
"022420","14:58:04","48","48","5.0.14.0","2","129","trial1","naming","0","0","0","0","AIR HOCKEY","0","3790","1","White_Screen.jpg","13","17","Gametable_AirHockey.jpg","13"
"022420","14:58:04","48","48","5.0.14.0","2","130","trial1","naming","0","0","0","0","CROW BAR","0","5963","1","White_Screen.jpg","14","53","Crowbar.jpg","14"
"022420","14:58:04","48","48","5.0.14.0","2","131","trial1","naming","0","0","0","0","PUZZLE","0","5755","1","White_Screen.jpg","13","97","Puzzle_Animal.jpg","13"
"022420","14:58:04","48","48","5.0.14.0","2","132","trial1","naming","0","0","0","0","BLANK","0","6782","1","White_Screen.jpg","18","137","White_Screen.jpg","18"
"022420","14:58:04","48","48","5.0.14.0","2","133","trial1","naming","0","0","0","0","WATERMELON","0","4546","1","White_Screen.jpg","15","31","WatermelonSlice.jpg","15"
"022420","14:58:04","48","48","5.0.14.0","2","134","trial1","naming","0","0","0","0","SCROLL","0","3995","1","White_Screen.jpg","21","90","Scroll.jpg","21"
"022420","14:58:04","48","48","5.0.14.0","2","135","trial1","naming","0","0","0","0","COVERED DISH","0","7054","1","White_Screen.jpg","13","164","ButterDish.jpg","13"
"022420","14:58:04","48","48","5.0.14.0","2","136","trial1","naming","0","0","0","0","WINE BASKET","0","8417","1","White_Screen.jpg","12","16","Jug_Wicker.jpg","12"
"022420","14:58:04","48","48","5.0.14.0","2","137","trial1","naming","0","0","0","0","LADYBUG CANDY","0","5128","1","White_Screen.jpg","21","49","Toy_Ladybug.jpg","21"
"022420","14:58:04","48","48","5.0.14.0","2","138","trial1","naming","0","0","0","0","RED TRUCK","0","6331","1","White_Screen.jpg","12","180","Toy_Firetruck.jpg","12"
"022420","14:58:04","48","48","5.0.14.0","2","139","trial1","naming","0","0","0","0","BOWS AND ARROS","0","4399","1","White_Screen.jpg","15","196","Archery_ArrowsBows.jpg","15"
"022420","14:58:04","48","48","5.0.14.0","2","140","trial1","naming","0","0","0","0","PENS","0","4338","1","White_Screen.jpg","15","149","PenStand.jpg","15"
"022420","14:58:04","48","48","5.0.14.0","2","141","trial1","naming","0","0","0","0","UMBRELLA","0","3732","1","White_Screen.jpg","14","79","Umbrella_Retractable.jpg","14"
"022420","14:58:04","48","48","5.0.14.0","2","142","trial1","naming","0","0","0","0","PLACE MAT","0","4909","1","White_Screen.jpg","16","131","Mat_Bamboo.jpg","16"
"022420","14:58:04","48","48","5.0.14.0","2","143","trial1","naming","0","0","0","0","GRANDFATHER CLOC","0","5654","1","White_Screen.jpg","12","32","Clock_Grandfather.jpg","12"
"022420","14:58:04","48","48","5.0.14.0","2","144","trial1","naming","0","0","0","0","FIRE HY","0","10000","1","White_Screen.jpg","12","72","FireHydrant.jpg","12"
"022420","14:58:04","48","48","5.0.14.0","2","145","trial1","naming","0","0","0","0","EYELINER","0","6138","1","White_Screen.jpg","17","160","Makeup_Mascara.jpg","17"
"022420","14:58:04","48","48","5.0.14.0","2","146","trial1","naming","0","0","0","0","BAGPIPES","0","5128","1","White_Screen.jpg","12","146","Bagpipes.jpg","12"
"022420","14:58:04","48","48","5.0.14.0","2","147","trial1","naming","0","0","0","0","SAND CASTLE","0","4144","1","White_Screen.jpg","13","37","Castle_Sand.jpg","13"
"022420","14:58:04","48","48","5.0.14.0","2","148","trial1","naming","0","0","0","0","MOP","0","5093","1","White_Screen.jpg","15","29","Mop.jpg","15"
"022420","14:58:04","48","48","5.0.14.0","2","149","trial1","naming","0","0","0","0","CELLO","0","5246","1","White_Screen.jpg","15","55","DoubleBass.jpg","15"
"022420","14:58:04","48","48","5.0.14.0","2","150","trial1","naming","0","0","0","0","POT","0","7010","1","White_Screen.jpg","15","61","MilkJug.jpg","15"
"022420","14:58:04","48","48","5.0.14.0","2","151","trial1","naming","0","0","0","0","TRACTOR","0","3611","1","White_Screen.jpg","12","4","Tractor_Yellow.jpg","12"
"022420","14:58:04","48","48","5.0.14.0","2","152","trial1","naming","0","0","0","0","BOX","0","2864","1","White_Screen.jpg","13","93","Box_Floral.jpg","13"
"022420","14:58:04","48","48","5.0.14.0","2","154","trial1","naming","0","0","0","0","CIGAR CUTTER","0","5511","1","White_Screen.jpg","13","96","CigarCutter.jpg","13"
"022420","14:58:04","48","48","5.0.14.0","2","155","trial1","naming","0","0","0","0","HAYSTACK","0","3565","1","White_Screen.jpg","11","25","Hay.jpg","11"
"022420","14:58:04","48","48","5.0.14.0","2","156","trial1","naming","0","0","0","0","CRUTCHES","0","3387","1","White_Screen.jpg","17","182","Crutches.jpg","17"
"022420","14:58:04","48","48","5.0.14.0","2","157","trial1","naming","0","0","0","0","BAG OF SAND","0","6025","1","White_Screen.jpg","12","186","Bag_PaperWithFlour.jpg","12"
"022420","14:58:04","48","48","5.0.14.0","2","158","trial1","naming","0","0","0","0","KEY LOCK","0","7466","1","White_Screen.jpg","12","188","CodeDoorLock.jpg","12"
"022420","14:58:04","48","48","5.0.14.0","2","159","trial1","naming","0","0","0","0","GOAT","0","3730","1","White_Screen.jpg","16","6","Goat.jpg","16"
"022420","14:58:04","48","48","5.0.14.0","2","160","trial1","naming","0","0","0","0","PENCIL HOLDER","0","4684","1","White_Screen.jpg","15","65","PenHolder.jpg","15"
"022420","14:58:04","48","48","5.0.14.0","2","161","trial1","naming","0","0","0","0","OVEN","0","2904","1","White_Screen.jpg","15","52","Oven.jpg","15"
"022420","14:58:04","48","48","5.0.14.0","2","162","trial1","naming","0","0","0","0","BAG","0","3404","1","White_Screen.jpg","16","56","Bag_Gift.jpg","16"
"022420","14:58:04","48","48","5.0.14.0","2","163","trial1","naming","0","0","0","0","WASHER","0","5391","1","White_Screen.jpg","12","48","WashingMachine.jpg","12"
"022420","14:58:04","48","48","5.0.14.0","2","164","trial1","naming","0","0","0","0","LIGHT SWITCH","0","4651","1","White_Screen.jpg","12","130","Switch_LightWhite.jpg","12"
"022420","14:58:04","48","48","5.0.14.0","2","165","trial1","naming","0","0","0","0","LICENSE PLATE","0","5575","1","White_Screen.jpg","16","190","LicensePlate.jpg","16"
"022420","14:58:04","48","48","5.0.14.0","2","166","trial1","naming","0","0","0","0","CLAM","0","4207","1","White_Screen.jpg","12","181","Clam.jpg","12"
"022420","14:58:04","48","48","5.0.14.0","2","167","trial1","naming","0","0","0","0","MOTORCYCLE","0","6029","1","White_Screen.jpg","16","176","Toy_Motorcycle.jpg","16"
"022420","14:58:04","48","48","5.0.14.0","2","168","trial1","naming","0","0","0","0","DENTAL FLOSS","0","4472","1","White_Screen.jpg","16","136","DentalFloss.jpg","16"
"022420","14:58:04","48","48","5.0.14.0","2","169","trial1","naming","0","0","0","0","ALARM CLOCK","0","5578","1","White_Screen.jpg","12","117","Clock_Radioalarm.jpg","12"
"022420","14:58:04","48","48","5.0.14.0","2","170","trial1","naming","0","0","0","0","DENIM JACKET","0","5729","1","White_Screen.jpg","12","144","Jacket_Jean.jpg","12"
"022420","14:58:04","48","48","5.0.14.0","2","171","trial1","naming","0","0","0","0","KNEE BRACE","0","5447","1","White_Screen.jpg","12","89","Brace_Leg.jpg","12"
"022420","14:58:04","48","48","5.0.14.0","2","172","trial1","naming","0","0","0","0","","0","10000","1","White_Screen.jpg","14","69","Hoverboard.jpg","14"
"022420","14:58:04","48","48","5.0.14.0","2","173","trial1","naming","0","0","0","0","VERTEBRAE","0","5279","1","White_Screen.jpg","14","109","SpinalCord.jpg","14"
"022420","14:58:04","48","48","5.0.14.0","2","174","trial1","naming","0","0","0","0","ROCK","0","4272","1","White_Screen.jpg","16","156","GoldNugget.jpg","16"
"022420","14:58:04","48","48","5.0.14.0","2","175","trial1","naming","0","0","0","0","DINOSAUR","0","4297","1","White_Screen.jpg","12","125","Toy_DinosaurBrontosaurus.jpg","12"
"022420","14:58:04","48","48","5.0.14.0","2","176","trial1","naming","0","0","0","0","BOWL","0","3914","1","White_Screen.jpg","12","10","ContactLens.jpg","12"
"022420","14:58:04","48","48","5.0.14.0","2","177","trial1","naming","0","0","0","0","WORK SPACE","0","7311","1","White_Screen.jpg","16","183","Toy_DollOffice.jpg","16"
"022420","14:58:04","48","48","5.0.14.0","2","178","trial1","naming","0","0","0","0","SLIPPER","0","3969","1","White_Screen.jpg","16","175","Slippers.jpg","16"
"022420","14:58:04","48","48","5.0.14.0","2","179","trial1","naming","0","0","0","0","STICK GUM","0","4233","1","White_Screen.jpg","15","178","ChewingGum.jpg","15"
"022420","14:58:04","48","48","5.0.14.0","2","180","trial1","naming","0","0","0","0","STAMP","0","2968","1","White_Screen.jpg","14","8","Stamp.jpg","14"
