"date","time","group","subject","build","blocknum","trialnum","blockcode","trialcode","pretrialpause","posttrialpause","trialduration","trialtimeout","response","correct","latency","stimulusnumber1","stimulusitem1","stimulusonset1","stimulusnumber2","stimulusitem2","stimulusonset2"
"091219","17:27:03","15","15","5.0.14.0","2","1","trial1","naming","0","0","0","0","wand","0","8973","1","White_Screen.jpg","39","193","Cane_Wooden.jpg","39"
"091219","17:27:03","15","15","5.0.14.0","2","2","trial1","naming","0","0","0","0","totem pole","0","5668","1","White_Screen.jpg","8","89","TotemPole.jpg","8"
"091219","17:27:03","15","15","5.0.14.0","2","3","trial1","naming","0","0","0","0","leash","0","4585","1","White_Screen.jpg","9","150","DogLeash.jpg","9"
"091219","17:27:03","15","15","5.0.14.0","2","4","trial1","naming","0","0","0","0","drawers","0","8050","1","White_Screen.jpg","8","115","Dresser_1.jpg","8"
"091219","17:27:03","15","15","5.0.14.0","2","5","trial1","naming","0","0","0","0","bin","0","6070","1","White_Screen.jpg","7","65","Garbage_Can.jpg","7"
"091219","17:27:03","15","15","5.0.14.0","2","6","trial1","naming","0","0","0","0","nut cracker","0","5876","1","White_Screen.jpg","7","22","Oneholepunch.jpg","7"
"091219","17:27:03","15","15","5.0.14.0","2","7","trial1","naming","0","0","0","0","bread","0","4063","1","White_Screen.jpg","7","51","Toast.jpg","7"
"091219","17:27:03","15","15","5.0.14.0","2","8","trial1","naming","0","0","0","0","satellite","0","6601","1","White_Screen.jpg","8","148","TelescopeSpacecraft.jpg","8"
"091219","17:27:03","15","15","5.0.14.0","2","9","trial1","naming","0","0","0","0","vhs cassette","0","4921","1","White_Screen.jpg","8","13","Cassette_Video.jpg","8"
"091219","17:27:03","15","15","5.0.14.0","2","10","trial1","naming","0","0","0","0","tooth paste","0","5091","1","White_Screen.jpg","7","68","ToothPaste.jpg","7"
"091219","17:27:03","15","15","5.0.14.0","2","11","trial1","naming","0","0","0","0","Punch and judy","0","8500","1","White_Screen.jpg","7","71","PuppetTheatre_WhiteGold.jpg","7"
"091219","17:27:03","15","15","5.0.14.0","2","12","trial1","naming","0","0","0","0","cottage","0","4966","1","White_Screen.jpg","8","164","House_Rural.jpg","8"
"091219","17:27:03","15","15","5.0.14.0","2","13","trial1","naming","0","0","0","0","crystal","0","3754","1","White_Screen.jpg","8","24","Quartz.jpg","8"
"091219","17:27:03","15","15","5.0.14.0","2","14","trial1","naming","0","0","0","0","mop and bucket","0","6058","1","White_Screen.jpg","7","169","Cart_Janitor.jpg","7"
"091219","17:27:03","15","15","5.0.14.0","2","15","trial1","naming","0","0","0","0","generator","0","4855","1","White_Screen.jpg","7","107","Generator.jpg","7"
"091219","17:27:03","15","15","5.0.14.0","2","16","trial1","naming","0","0","0","0","helicopter","0","3894","1","White_Screen.jpg","7","185","Helicopter.jpg","7"
"091219","17:27:03","15","15","5.0.14.0","2","17","trial1","naming","0","0","0","0","pizza cutter","0","4139","1","White_Screen.jpg","7","17","PizzaCutter.jpg","7"
"091219","17:27:03","15","15","5.0.14.0","2","18","trial1","naming","0","0","0","0","toy","0","2966","1","White_Screen.jpg","7","41","Toy_Tractor_1.jpg","7"
"091219","17:27:03","15","15","5.0.14.0","2","19","trial1","naming","0","0","0","0","pita bread","0","6654","1","White_Screen.jpg","9","66","Bread_Pita.jpg","9"
"091219","17:27:03","15","15","5.0.14.0","2","20","trial1","naming","0","0","0","0","twigs","0","3554","1","White_Screen.jpg","7","111","Branch.jpg","7"
"091219","17:27:03","15","15","5.0.14.0","2","21","trial1","naming","0","0","0","0","rice cooker","0","4530","1","White_Screen.jpg","10","143","Machine_Bread.jpg","10"
"091219","17:27:03","15","15","5.0.14.0","2","22","trial1","naming","0","0","0","0","blood pressure","0","7609","1","White_Screen.jpg","8","43","BloodpPresureCuff.jpg","8"
"091219","17:27:03","15","15","5.0.14.0","2","23","trial1","naming","0","0","0","0","camera","0","3228","1","White_Screen.jpg","7","21","Camera_ProfessionalFilm.jpg","7"
"091219","17:27:03","15","15","5.0.14.0","2","24","trial1","naming","0","0","0","0","broom","0","5035","1","White_Screen.jpg","8","80","Broom_Short.jpg","8"
"091219","17:27:03","15","15","5.0.14.0","2","25","trial1","naming","0","0","0","0","duster","0","2694","1","White_Screen.jpg","8","35","DusterFeather.jpg","8"
"091219","17:27:03","15","15","5.0.14.0","2","26","trial1","naming","0","0","0","0","oil","0","2619","1","White_Screen.jpg","8","29","Bottle_Oil.jpg","8"
"091219","17:27:03","15","15","5.0.14.0","2","27","trial1","naming","0","0","0","0","glue","0","6468","1","White_Screen.jpg","9","46","Tube_Glue.jpg","9"
"091219","17:27:03","15","15","5.0.14.0","2","28","trial1","naming","0","0","0","0","bow tie","0","2978","1","White_Screen.jpg","7","28","Bowtie.jpg","7"
"091219","17:27:03","15","15","5.0.14.0","2","29","trial1","naming","0","0","0","0","wedding cake","0","4098","1","White_Screen.jpg","7","101","Cake_Wedding.jpg","7"
"091219","17:27:03","15","15","5.0.14.0","2","30","trial1","naming","0","0","0","0","cork","0","4386","1","White_Screen.jpg","8","121","Cork.jpg","8"
"091219","17:27:03","15","15","5.0.14.0","2","31","trial1","naming","0","0","0","0","","0","10000","1","White_Screen.jpg","7","166","Arch_Triomphe.jpg","7"
"091219","17:27:03","15","15","5.0.14.0","2","32","trial1","naming","0","0","0","0","water holder","0","9424","1","White_Screen.jpg","10","180","ShakerShekere.jpg","10"
"091219","17:27:03","15","15","5.0.14.0","2","33","trial1","naming","0","0","0","0","mr potato head","0","4698","1","White_Screen.jpg","7","59","Toy_MrPotatoHeadjpg.jpg","7"
"091219","17:27:03","15","15","5.0.14.0","2","34","trial1","naming","0","0","0","0","adapter","0","4460","1","White_Screen.jpg","9","94","ConnectorPlug.jpg","9"
"091219","17:27:03","15","15","5.0.14.0","2","35","trial1","naming","0","0","0","0","binder","0","3708","1","White_Screen.jpg","8","100","Binder.jpg","8"
"091219","17:27:03","15","15","5.0.14.0","2","36","trial1","naming","0","0","0","0","wooden spoon","0","3504","1","White_Screen.jpg","7","38","Spoon_WoodenLight.jpg","7"
"091219","17:27:03","15","15","5.0.14.0","2","37","trial1","naming","0","0","0","0","motorbike","0","3159","1","White_Screen.jpg","7","90","Motorcycle.jpg","7"
"091219","17:27:03","15","15","5.0.14.0","2","38","trial1","naming","0","0","0","0","disc hold","0","4130","1","White_Screen.jpg","7","103","CDstack.jpg","7"
"091219","17:27:03","15","15","5.0.14.0","2","39","trial1","naming","0","0","0","0","sheep","0","3793","1","White_Screen.jpg","8","27","Sheep.jpg","8"
"091219","17:27:03","15","15","5.0.14.0","2","40","trial1","naming","0","0","0","0","origami","0","5417","1","White_Screen.jpg","7","183","Origami_Ox.jpg","7"
"091219","17:27:03","15","15","5.0.14.0","2","41","trial1","naming","0","0","0","0","oar","0","2650","1","White_Screen.jpg","8","16","Paddle_Canoe.jpg","8"
"091219","17:27:03","15","15","5.0.14.0","2","42","trial1","naming","0","0","0","0","stump","0","3067","1","White_Screen.jpg","7","14","TreeStump.jpg","7"
"091219","17:27:03","15","15","5.0.14.0","2","43","trial1","naming","0","0","0","0","reindeer","0","3550","1","White_Screen.jpg","8","130","Caribou.jpg","8"
"091219","17:27:03","15","15","5.0.14.0","2","44","trial1","naming","0","0","0","0","leaf","0","2369","1","White_Screen.jpg","8","108","Leaf_Yellow.jpg","8"
"091219","17:27:03","15","15","5.0.14.0","2","45","trial1","naming","0","0","0","0","exercise bike","0","4124","1","White_Screen.jpg","7","40","Exercise_Bike.jpg","7"
"091219","17:27:03","15","15","5.0.14.0","2","46","trial1","naming","0","0","0","0","bib","0","3102","1","White_Screen.jpg","7","126","Bib.jpg","7"
"091219","17:27:03","15","15","5.0.14.0","2","47","trial1","naming","0","0","0","0","ear testing tool","0","7153","1","White_Screen.jpg","7","96","EyeExamDevice.jpg","7"
"091219","17:27:03","15","15","5.0.14.0","2","48","trial1","naming","0","0","0","0","cone","0","2644","1","White_Screen.jpg","7","197","IceCreamCone.jpg","7"
"091219","17:27:03","15","15","5.0.14.0","2","49","trial1","naming","0","0","0","0","bbq","0","2651","1","White_Screen.jpg","7","18","Barbecue_Gas.jpg","7"
"091219","17:27:03","15","15","5.0.14.0","2","50","trial1","naming","0","0","0","0","bird","0","2627","1","White_Screen.jpg","8","156","Bird_Tern.jpg","8"
"091219","17:27:03","15","15","5.0.14.0","2","52","trial1","naming","0","0","0","0","hat","0","2874","1","White_Screen.jpg","6","198","Hat_Feather.jpg","6"
"091219","17:27:03","15","15","5.0.14.0","2","53","trial1","naming","0","0","0","0","hockey equipment","0","5885","1","White_Screen.jpg","7","74","Hockey_Equipment.jpg","7"
"091219","17:27:03","15","15","5.0.14.0","2","54","trial1","naming","0","0","0","0","buddha","0","2650","1","White_Screen.jpg","7","159","Statue_Buddha.jpg","7"
"091219","17:27:03","15","15","5.0.14.0","2","55","trial1","naming","0","0","0","0","gas valve","0","7501","1","White_Screen.jpg","8","32","Gauge.jpg","8"
"091219","17:27:03","15","15","5.0.14.0","2","56","trial1","naming","0","0","0","0","stepping exercise","0","9205","1","White_Screen.jpg","7","76","Stepper.jpg","7"
"091219","17:27:03","15","15","5.0.14.0","2","57","trial1","naming","0","0","0","0","masquerade","0","5125","1","White_Screen.jpg","7","133","Mask_VenetianLongNose.jpg","7"
"091219","17:27:03","15","15","5.0.14.0","2","58","trial1","naming","0","0","0","0","chinese lantern","0","4533","1","White_Screen.jpg","7","12","Lantern_Chinese.jpg","7"
"091219","17:27:03","15","15","5.0.14.0","2","59","trial1","naming","0","0","0","0","bench","0","2509","1","White_Screen.jpg","9","109","Bench_Park.jpg","9"
"091219","17:27:03","15","15","5.0.14.0","2","60","trial1","naming","0","0","0","0","tutankamun","0","6642","1","White_Screen.jpg","7","88","PharoahReplica.jpg","7"
"091219","17:27:03","15","15","5.0.14.0","2","61","trial1","naming","0","0","0","0","register","0","3447","1","White_Screen.jpg","7","67","CashRegister_Modern.jpg","7"
"091219","17:27:03","15","15","5.0.14.0","2","62","trial1","naming","0","0","0","0","whisk","0","2610","1","White_Screen.jpg","8","55","HandMixer.jpg","8"
"091219","17:27:03","15","15","5.0.14.0","2","63","trial1","naming","0","0","0","0","dish glove","0","4090","1","White_Screen.jpg","7","182","Glove_Rubber.jpg","7"
"091219","17:27:03","15","15","5.0.14.0","2","64","trial1","naming","0","0","0","0","jeans","0","2535","1","White_Screen.jpg","7","42","Pants_Jeans.jpg","7"
"091219","17:27:03","15","15","5.0.14.0","2","65","trial1","naming","0","0","0","0","bark","0","4060","1","White_Screen.jpg","7","48","Bark.jpg","7"
"091219","17:27:03","15","15","5.0.14.0","2","66","trial1","naming","0","0","0","0","trailer","0","3125","1","White_Screen.jpg","10","15","BoxTrailer.jpg","10"
"091219","17:27:03","15","15","5.0.14.0","2","67","trial1","naming","0","0","0","0","flute","0","2610","1","White_Screen.jpg","9","57","Flute_Wooden.jpg","9"
"091219","17:27:03","15","15","5.0.14.0","2","68","trial1","naming","0","0","0","0","gears","0","3099","1","White_Screen.jpg","8","85","BicycleChain.jpg","8"
"091219","17:27:03","15","15","5.0.14.0","2","69","trial1","naming","0","0","0","0","trolley","0","2839","1","White_Screen.jpg","8","63","ShoppingCart.jpg","8"
"091219","17:27:03","15","15","5.0.14.0","2","70","trial1","naming","0","0","0","0","tennis ball","0","3378","1","White_Screen.jpg","7","37","Ball_Tennis.jpg","7"
"091219","17:27:03","15","15","5.0.14.0","2","71","trial1","naming","0","0","0","0","stationary holder","0","5345","1","White_Screen.jpg","8","30","Stationary.jpg","8"
"091219","17:27:03","15","15","5.0.14.0","2","72","trial1","naming","0","0","0","0","zimmer","0","2811","1","White_Screen.jpg","7","125","Walker_Silver.jpg","7"
"091219","17:27:03","15","15","5.0.14.0","2","73","trial1","naming","0","0","0","0","truck","0","4600","1","White_Screen.jpg","8","114","Truck_Box.jpg","8"
"091219","17:27:03","15","15","5.0.14.0","2","74","trial1","naming","0","0","0","0","baseball glove","0","3772","1","White_Screen.jpg","7","173","Glove_Baseball.jpg","7"
"091219","17:27:03","15","15","5.0.14.0","2","75","trial1","naming","0","0","0","0","taco","0","2343","1","White_Screen.jpg","8","177","Taco.jpg","8"
"091219","17:27:03","15","15","5.0.14.0","2","76","trial1","naming","0","0","0","0","","0","10000","1","White_Screen.jpg","7","31","Tag_Identifier.jpg","7"
"091219","17:27:03","15","15","5.0.14.0","2","77","trial1","naming","0","0","0","0","chemicals","0","5026","1","White_Screen.jpg","8","134","Beaker.jpg","8"
"091219","17:27:03","15","15","5.0.14.0","2","78","trial1","naming","0","0","0","0","dictionary","0","8451","1","White_Screen.jpg","7","106","Book_Paper.jpg","7"
"091219","17:27:03","15","15","5.0.14.0","2","79","trial1","naming","0","0","0","0","chicken toy","0","3134","1","White_Screen.jpg","8","189","Toy_Chicken.jpg","8"
"091219","17:27:03","15","15","5.0.14.0","2","80","trial1","naming","0","0","0","0","flip flops","0","3791","1","White_Screen.jpg","7","195","FlipFlop_PairBlue.jpg","7"
"091219","17:27:03","15","15","5.0.14.0","2","81","trial1","naming","0","0","0","0","makeup","0","6436","1","White_Screen.jpg","7","23","Box_Vials.jpg","7"
"091219","17:27:03","15","15","5.0.14.0","2","82","trial1","naming","0","0","0","0","screw","0","2381","1","White_Screen.jpg","7","149","Bolt.jpg","7"
"091219","17:27:03","15","15","5.0.14.0","2","83","trial1","naming","0","0","0","0","bike lock","0","3187","1","White_Screen.jpg","8","174","Lock_Bike.jpg","8"
"091219","17:27:03","15","15","5.0.14.0","2","84","trial1","naming","0","0","0","0","jetski","0","2639","1","White_Screen.jpg","7","58","Jetski.jpg","7"
"091219","17:27:03","15","15","5.0.14.0","2","85","trial1","naming","0","0","0","0","sugar","0","2556","1","White_Screen.jpg","7","135","Bowl_Sugar.jpg","7"
"091219","17:27:03","15","15","5.0.14.0","2","86","trial1","naming","0","0","0","0","shorts","0","2591","1","White_Screen.jpg","7","10","Shorts_Sports.jpg","7"
"091219","17:27:03","15","15","5.0.14.0","2","87","trial1","naming","0","0","0","0","drillbit","0","3470","1","White_Screen.jpg","7","60","DrillBit.jpg","7"
"091219","17:27:03","15","15","5.0.14.0","2","88","trial1","naming","0","0","0","0","server","0","4162","1","White_Screen.jpg","7","64","TelephoneSwitchboard.jpg","7"
"091219","17:27:03","15","15","5.0.14.0","2","89","trial1","naming","0","0","0","0","toolbox","0","3427","1","White_Screen.jpg","7","82","Toolbox_RedOpen.jpg","7"
"091219","17:27:03","15","15","5.0.14.0","2","90","trial1","naming","0","0","0","0","grapefruit","0","3271","1","White_Screen.jpg","7","154","OrangeBlood.jpg","7"
"091219","17:27:03","15","15","5.0.14.0","2","91","trial1","naming","0","0","0","0","overmit","0","3379","1","White_Screen.jpg","7","190","Mitt_Oven.jpg","7"
"091219","17:27:03","15","15","5.0.14.0","2","92","trial1","naming","0","0","0","0","bowling ball","0","6832","1","White_Screen.jpg","8","49","Ball_Bowling.jpg","8"
"091219","17:27:03","15","15","5.0.14.0","2","93","trial1","naming","0","0","0","0","baby cot","0","6568","1","White_Screen.jpg","8","146","Playard.jpg","8"
"091219","17:27:03","15","15","5.0.14.0","2","94","trial1","naming","0","0","0","0","wooden tub","0","4477","1","White_Screen.jpg","7","170","Bucket_WoodenLight.jpg","7"
"091219","17:27:03","15","15","5.0.14.0","2","95","trial1","naming","0","0","0","0","juice dispens","0","10000","1","White_Screen.jpg","7","44","Pitcher.jpg","7"
"091219","17:27:03","15","15","5.0.14.0","2","96","trial1","naming","0","0","0","0","toy car","0","3863","1","White_Screen.jpg","11","127","Toy_Car.jpg","11"
"091219","17:27:03","15","15","5.0.14.0","2","97","trial1","naming","0","0","0","0","shelves","0","4577","1","White_Screen.jpg","8","171","BookShelf.jpg","8"
"091219","17:27:03","15","15","5.0.14.0","2","98","trial1","naming","0","0","0","0","handcuffs","0","3578","1","White_Screen.jpg","7","120","Handcuffs.jpg","7"
"091219","17:27:03","15","15","5.0.14.0","2","99","trial1","naming","0","0","0","0","wine","0","2957","1","White_Screen.jpg","8","91","Crate_Wine.jpg","8"
"091219","17:27:03","15","15","5.0.14.0","2","100","trial1","naming","0","0","0","0","slowcooker","0","4858","1","White_Screen.jpg","8","186","Pot_Crock.jpg","8"
"091219","17:27:03","15","15","5.0.14.0","2","101","trial1","naming","0","0","0","0","ape","0","3603","1","White_Screen.jpg","7","53","Chimpanzee.jpg","7"
"091219","17:27:03","15","15","5.0.14.0","2","103","trial1","naming","0","0","0","0","barn","0","3493","1","White_Screen.jpg","7","155","House_Stone.jpg","7"
"091219","17:27:03","15","15","5.0.14.0","2","104","trial1","naming","0","0","0","0","chinchilla","0","5233","1","White_Screen.jpg","7","79","Chinchilla.jpg","7"
"091219","17:27:03","15","15","5.0.14.0","2","105","trial1","naming","0","0","0","0","pencil case","0","4332","1","White_Screen.jpg","8","75","PencilCase.jpg","8"
"091219","17:27:03","15","15","5.0.14.0","2","106","trial1","naming","0","0","0","0","wire","0","3213","1","White_Screen.jpg","8","116","SolderingWire.jpg","8"
"091219","17:27:03","15","15","5.0.14.0","2","107","trial1","naming","0","0","0","0","blush brush","0","4536","1","White_Screen.jpg","8","95","Brush_Makeup.jpg","8"
"091219","17:27:03","15","15","5.0.14.0","2","108","trial1","naming","0","0","0","0","scissors","0","3029","1","White_Screen.jpg","7","52","Scissors.jpg","7"
"091219","17:27:03","15","15","5.0.14.0","2","109","trial1","naming","0","0","0","0","test tube holder","0","4179","1","White_Screen.jpg","7","25","TestTube_MultipleAndRack.jpg","7"
"091219","17:27:03","15","15","5.0.14.0","2","110","trial1","naming","0","0","0","0","hamster cage","0","4702","1","White_Screen.jpg","10","39","Cage_Hamster.jpg","10"
"091219","17:27:03","15","15","5.0.14.0","2","111","trial1","naming","0","0","0","0","door","0","2711","1","White_Screen.jpg","7","123","Door_Green.jpg","7"
"091219","17:27:03","15","15","5.0.14.0","2","112","trial1","naming","0","0","0","0","sofa","0","3999","1","White_Screen.jpg","7","168","Loveseat.jpg","7"
"091219","17:27:03","15","15","5.0.14.0","2","113","trial1","naming","0","0","0","0","perfume","0","3998","1","White_Screen.jpg","8","87","Perfume.jpg","8"
"091219","17:27:03","15","15","5.0.14.0","2","114","trial1","naming","0","0","0","0","lantern","0","3300","1","White_Screen.jpg","8","61","Lantern_Tea.jpg","8"
"091219","17:27:03","15","15","5.0.14.0","2","115","trial1","naming","0","0","0","0","helmet","0","2787","1","White_Screen.jpg","8","145","Helmet_Motorcycle.jpg","8"
"091219","17:27:03","15","15","5.0.14.0","2","116","trial1","naming","0","0","0","0","hammer","0","2704","1","White_Screen.jpg","7","1","Hammer.jpg","7"
"091219","17:27:03","15","15","5.0.14.0","2","117","trial1","naming","0","0","0","0","chariot","0","5026","1","White_Screen.jpg","8","72","ChariotGold.jpg","8"
"091219","17:27:03","15","15","5.0.14.0","2","118","trial1","naming","0","0","0","0","baby bottle","0","3765","1","White_Screen.jpg","7","194","Bottle_Baby.jpg","7"
"091219","17:27:03","15","15","5.0.14.0","2","119","trial1","naming","0","0","0","0","cracker","0","2860","1","White_Screen.jpg","8","172","Cracker_Saltine.jpg","8"
"091219","17:27:03","15","15","5.0.14.0","2","120","trial1","naming","0","0","0","0","camera lens","0","3989","1","White_Screen.jpg","10","45","Lens_Camera.jpg","10"
"091219","17:27:03","15","15","5.0.14.0","2","121","trial1","naming","0","0","0","0","tool","0","4171","1","White_Screen.jpg","7","199","LeatherPuncherTool.jpg","7"
"091219","17:27:03","15","15","5.0.14.0","2","122","trial1","naming","0","0","0","0","bell","0","2326","1","White_Screen.jpg","7","26","Bell_Hand.jpg","7"
"091219","17:27:03","15","15","5.0.14.0","2","123","trial1","naming","0","0","0","0","dish cloth","0","3602","1","White_Screen.jpg","7","34","Towel.jpg","7"
"091219","17:27:03","15","15","5.0.14.0","2","124","trial1","naming","0","0","0","0","projector blind","0","6081","1","White_Screen.jpg","7","192","ProjectorScreen.jpg","7"
"091219","17:27:03","15","15","5.0.14.0","2","125","trial1","naming","0","0","0","0","warning sign","0","4479","1","White_Screen.jpg","8","105","Sign_Construction.jpg","8"
"091219","17:27:03","15","15","5.0.14.0","2","126","trial1","naming","0","0","0","0","drink","0","3053","1","White_Screen.jpg","8","20","Drink_Cocktail.jpg","8"
"091219","17:27:03","15","15","5.0.14.0","2","127","trial1","naming","0","0","0","0","rake","0","2112","1","White_Screen.jpg","7","19","Rake_Long.jpg","7"
"091219","17:27:03","15","15","5.0.14.0","2","128","trial1","naming","0","0","0","0","bongo","0","4492","1","White_Screen.jpg","10","7","Drum_Brazilan.jpg","10"
"091219","17:27:03","15","15","5.0.14.0","2","129","trial1","naming","0","0","0","0","waffles","0","2716","1","White_Screen.jpg","7","142","Waffle.jpg","7"
"091219","17:27:03","15","15","5.0.14.0","2","130","trial1","naming","0","0","0","0","stickman","0","3268","1","White_Screen.jpg","8","132","PersonWooden.jpg","8"
"091219","17:27:03","15","15","5.0.14.0","2","131","trial1","naming","0","0","0","0","dinner table","0","9120","1","White_Screen.jpg","7","167","Autocreeper.jpg","7"
"091219","17:27:03","15","15","5.0.14.0","2","132","trial1","naming","0","0","0","0","pea pod","0","3764","1","White_Screen.jpg","7","160","Snowpea.jpg","7"
"091219","17:27:03","15","15","5.0.14.0","2","133","trial1","naming","0","0","0","0","cloth","0","2324","1","White_Screen.jpg","8","36","Rag.jpg","8"
"091219","17:27:03","15","15","5.0.14.0","2","134","trial1","naming","0","0","0","0","leaves","0","3936","1","White_Screen.jpg","8","3","ChiliFlakes.jpg","8"
"091219","17:27:03","15","15","5.0.14.0","2","135","trial1","naming","0","0","0","0","wallet","0","3380","1","White_Screen.jpg","7","11","Wallet_ClosedBrown.jpg","7"
"091219","17:27:03","15","15","5.0.14.0","2","136","trial1","naming","0","0","0","0","radio","0","3459","1","White_Screen.jpg","8","9","Radio_Modern.jpg","8"
"091219","17:27:03","15","15","5.0.14.0","2","137","trial1","naming","0","0","0","0","rope","0","2314","1","White_Screen.jpg","7","179","Rope_Manila.jpg","7"
"091219","17:27:03","15","15","5.0.14.0","2","138","trial1","naming","0","0","0","0","grenade","0","2754","1","White_Screen.jpg","8","187","Grenade.jpg","8"
"091219","17:27:03","15","15","5.0.14.0","2","139","trial1","naming","0","0","0","0","chainlink fence","0","6072","1","White_Screen.jpg","7","129","Fence_ChainLink.jpg","7"
"091219","17:27:03","15","15","5.0.14.0","2","140","trial1","naming","0","0","0","0","ladybug","0","2781","1","White_Screen.jpg","7","163","Ladybug.jpg","7"
"091219","17:27:03","15","15","5.0.14.0","2","141","trial1","naming","0","0","0","0","briefcase","0","4680","1","White_Screen.jpg","8","165","Briefcase_Silver.jpg","8"
"091219","17:27:03","15","15","5.0.14.0","2","142","trial1","naming","0","0","0","0","oil dispenser","0","4613","1","White_Screen.jpg","8","62","Can_OilSpout.jpg","8"
"091219","17:27:03","15","15","5.0.14.0","2","143","trial1","naming","0","0","0","0","chime","0","3517","1","White_Screen.jpg","11","92","Triangle.jpg","11"
"091219","17:27:03","15","15","5.0.14.0","2","144","trial1","naming","0","0","0","0","fire alarm","0","4385","1","White_Screen.jpg","7","124","FireAlarm.jpg","7"
"091219","17:27:03","15","15","5.0.14.0","2","145","trial1","naming","0","0","0","0","bbq","0","2823","1","White_Screen.jpg","9","128","Barbecue_Charcoal.jpg","9"
"091219","17:27:03","15","15","5.0.14.0","2","146","trial1","naming","0","0","0","0","ink well","0","3794","1","White_Screen.jpg","7","178","Candleholder_LampShaped.jpg","7"
"091219","17:27:03","15","15","5.0.14.0","2","147","trial1","naming","0","0","0","0","gloves","0","3681","1","White_Screen.jpg","7","70","Gloves_Bicycle.jpg","7"
"091219","17:27:03","15","15","5.0.14.0","2","148","trial1","naming","0","0","0","0","coat holder","0","4647","1","White_Screen.jpg","8","112","Coatrack.jpg","8"
"091219","17:27:03","15","15","5.0.14.0","2","149","trial1","naming","0","0","0","0","car seat","0","3672","1","White_Screen.jpg","8","54","Chair_Car.jpg","8"
"091219","17:27:03","15","15","5.0.14.0","2","150","trial1","naming","0","0","0","0","dolly","0","3725","1","White_Screen.jpg","7","99","Dolly.jpg","7"
"091219","17:27:03","15","15","5.0.14.0","2","151","trial1","naming","0","0","0","0","knee","0","2498","1","White_Screen.jpg","7","181","Knee.jpg","7"
"091219","17:27:03","15","15","5.0.14.0","2","152","trial1","naming","0","0","0","0","gear","0","4878","1","White_Screen.jpg","8","102","BicycleGear.jpg","8"
"091219","17:27:03","15","15","5.0.14.0","2","154","trial1","naming","0","0","0","0","loom","0","5929","1","White_Screen.jpg","7","98","Loofa.jpg","7"
"091219","17:27:03","15","15","5.0.14.0","2","155","trial1","naming","0","0","0","0","oven mit","0","7190","1","White_Screen.jpg","7","81","ClothCoaster.jpg","7"
"091219","17:27:03","15","15","5.0.14.0","2","156","trial1","naming","0","0","0","0","camera film","0","4201","1","White_Screen.jpg","7","131","Film_Roll.jpg","7"
"091219","17:27:03","15","15","5.0.14.0","2","157","trial1","naming","0","0","0","0","jack o lantern","0","5393","1","White_Screen.jpg","7","161","Bucket_Halloween.jpg","7"
"091219","17:27:03","15","15","5.0.14.0","2","158","trial1","naming","0","0","0","0","red apples","0","2972","1","White_Screen.jpg","7","78","Box_Apples.jpg","7"
"091219","17:27:03","15","15","5.0.14.0","2","159","trial1","naming","0","0","0","0","knife","0","2896","1","White_Screen.jpg","7","119","Knife_Hunting.jpg","7"
"091219","17:27:03","15","15","5.0.14.0","2","160","trial1","naming","0","0","0","0","flip flop","0","3436","1","White_Screen.jpg","8","158","FlipFlop_SingleRed.jpg","8"
"091219","17:27:03","15","15","5.0.14.0","2","161","trial1","naming","0","0","0","0","mixer","0","2843","1","White_Screen.jpg","7","77","SoundMixer_Blue.jpg","7"
"091219","17:27:03","15","15","5.0.14.0","2","162","trial1","naming","0","0","0","0","radiator","0","5035","1","White_Screen.jpg","7","56","Heater_ElectricPortable.jpg","7"
"091219","17:27:03","15","15","5.0.14.0","2","163","trial1","naming","0","0","0","0","stamper","0","4588","1","White_Screen.jpg","9","157","Stamper.jpg","9"
"091219","17:27:03","15","15","5.0.14.0","2","164","trial1","naming","0","0","0","0","camcorder","0","4719","1","White_Screen.jpg","7","162","Camera_Video.jpg","7"
"091219","17:27:03","15","15","5.0.14.0","2","165","trial1","naming","0","0","0","0","bag","0","3132","1","White_Screen.jpg","7","188","Bag_String.jpg","7"
"091219","17:27:03","15","15","5.0.14.0","2","166","trial1","naming","0","0","0","0","wheel","0","2393","1","White_Screen.jpg","9","200","BicycleWheel.jpg","9"
"091219","17:27:03","15","15","5.0.14.0","2","167","trial1","naming","0","0","0","0","arm","0","2267","1","White_Screen.jpg","7","137","Arm.jpg","7"
"091219","17:27:03","15","15","5.0.14.0","2","168","trial1","naming","0","0","0","0","train","0","3130","1","White_Screen.jpg","7","196","Locomotive.jpg","7"
"091219","17:27:03","15","15","5.0.14.0","2","169","trial1","naming","0","0","0","0","salt shaker","0","6623","1","White_Screen.jpg","8","83","ToothbrushHolder.jpg","8"
"091219","17:27:03","15","15","5.0.14.0","2","170","trial1","naming","0","0","0","0","new year whistles","0","7459","1","White_Screen.jpg","7","184","Noisemaker_Streamers.jpg","7"
"091219","17:27:03","15","15","5.0.14.0","2","171","trial1","naming","0","0","0","0","peg","0","2275","1","White_Screen.jpg","7","136","Clothespin_Beige.jpg","7"
"091219","17:27:03","15","15","5.0.14.0","2","172","trial1","naming","0","0","0","0","basketball hoop","0","4162","1","White_Screen.jpg","7","152","BasketballHoop.jpg","7"
"091219","17:27:03","15","15","5.0.14.0","2","173","trial1","naming","0","0","0","0","lighthouse","0","3315","1","White_Screen.jpg","7","118","Toy_Lighthouse.jpg","7"
"091219","17:27:03","15","15","5.0.14.0","2","174","trial1","naming","0","0","0","0","wheel","0","2443","1","White_Screen.jpg","8","2","BicycleWheelRusty.jpg","8"
"091219","17:27:03","15","15","5.0.14.0","2","175","trial1","naming","0","0","0","0","bin","0","5579","1","White_Screen.jpg","7","4","Bucket_Ice.jpg","7"
"091219","17:27:03","15","15","5.0.14.0","2","176","trial1","naming","0","0","0","0","chocolate","0","3480","1","White_Screen.jpg","7","86","Toblerone.jpg","7"
"091219","17:27:03","15","15","5.0.14.0","2","177","trial1","naming","0","0","0","0","sewing machine","0","5136","1","White_Screen.jpg","8","50","SewingMachine.jpg","8"
"091219","17:27:03","15","15","5.0.14.0","2","178","trial1","naming","0","0","0","0","defiblirator","0","6137","1","White_Screen.jpg","8","8","Defribrillator.jpg","8"
"091219","17:27:03","15","15","5.0.14.0","2","179","trial1","naming","0","0","0","0","massager","0","4659","1","White_Screen.jpg","7","191","LintRemover.jpg","7"
"091219","17:27:03","15","15","5.0.14.0","2","180","trial1","naming","0","0","0","0","paper cutter","0","5491","1","White_Screen.jpg","7","144","PaperCutter.jpg","7"
"091219","17:27:03","15","15","5.0.14.0","2","181","trial1","naming","0","0","0","0","paddling pool","0","4075","1","White_Screen.jpg","7","84","KiddiePool.jpg","7"
"091219","17:27:03","15","15","5.0.14.0","2","182","trial1","naming","0","0","0","0","jigsaw piece","0","4275","1","White_Screen.jpg","7","69","Puzzle_Piece.jpg","7"
"091219","17:27:03","15","15","5.0.14.0","2","183","trial1","naming","0","0","0","0","spear","0","3327","1","White_Screen.jpg","7","141","ToothPick.jpg","7"
"091219","17:27:03","15","15","5.0.14.0","2","184","trial1","naming","0","0","0","0","golf ball","0","6125","1","White_Screen.jpg","7","104","Ball_Golf.jpg","7"
"091219","17:27:03","15","15","5.0.14.0","2","185","trial1","naming","0","0","0","0","winnie the pooh","0","5079","1","White_Screen.jpg","7","153","Toy_WinnieThePooh.jpg","7"
"091219","17:27:03","15","15","5.0.14.0","2","186","trial1","naming","0","0","0","0","high heel","0","4493","1","White_Screen.jpg","7","113","Shoe_WomenHeals.jpg","7"
"091219","17:27:03","15","15","5.0.14.0","2","187","trial1","naming","0","0","0","0","luggage","0","3542","1","White_Screen.jpg","7","140","Backpack_Suitcase.jpg","7"
"091219","17:27:03","15","15","5.0.14.0","2","188","trial1","naming","0","0","0","0","knee protectors","0","6662","1","White_Screen.jpg","7","33","ShinPads.jpg","7"
"091219","17:27:03","15","15","5.0.14.0","2","189","trial1","naming","0","0","0","0","cheque","0","3264","1","White_Screen.jpg","7","6","Cheque.jpg","7"
"091219","17:27:03","15","15","5.0.14.0","2","190","trial1","naming","0","0","0","0","50 dollars","0","4446","1","White_Screen.jpg","8","122","MoneyBill50.jpg","8"
"091219","17:27:03","15","15","5.0.14.0","2","191","trial1","naming","0","0","0","0","mango","0","4585","1","White_Screen.jpg","8","5","Mango.jpg","8"
"091219","17:27:03","15","15","5.0.14.0","2","192","trial1","naming","0","0","0","0","vanity mirror","0","3946","1","White_Screen.jpg","7","110","Mirror_Makeup.jpg","7"
"091219","17:27:03","15","15","5.0.14.0","2","193","trial1","naming","0","0","0","0","instrument","0","8072","1","White_Screen.jpg","8","93","Instrument_African.jpg","8"
"091219","17:27:03","15","15","5.0.14.0","2","194","trial1","naming","0","0","0","0","bongos","0","2827","1","White_Screen.jpg","7","147","Drum_Bongos.jpg","7"
"091219","17:27:03","15","15","5.0.14.0","2","195","trial1","naming","0","0","0","0","tie clips","0","5081","1","White_Screen.jpg","7","176","Suspenders.jpg","7"
"091219","17:27:03","15","15","5.0.14.0","2","196","trial1","naming","0","0","0","0","gavel","0","3073","1","White_Screen.jpg","8","47","MalletJudge.jpg","8"
"091219","17:27:03","15","15","5.0.14.0","2","197","trial1","naming","0","0","0","0","lilypad","0","3504","1","White_Screen.jpg","7","151","Lilypad.jpg","7"
"091219","17:27:03","15","15","5.0.14.0","2","198","trial1","naming","0","0","0","0","police car","0","3286","1","White_Screen.jpg","9","97","Toy_PoliceCar.jpg","9"
"091219","17:27:03","15","15","5.0.14.0","2","199","trial1","naming","0","0","0","0","button","0","2833","1","White_Screen.jpg","7","138","Button.jpg","7"
"091219","17:27:03","15","15","5.0.14.0","2","200","trial1","naming","0","0","0","0","chocolate bar","0","5551","1","White_Screen.jpg","8","175","ChocolateBar_HalfUnwrapped.jpg","8"
"091219","17:27:03","15","15","5.0.14.0","2","201","trial1","naming","0","0","0","0","rice cooker","0","3636","1","White_Screen.jpg","7","139","RiceCooker.jpg","7"
"091219","17:27:03","15","15","5.0.14.0","2","202","trial1","naming","0","0","0","0","eraser","0","7906","1","White_Screen.jpg","7","117","ChalkboardEraser.jpg","7"
"091219","17:27:03","15","15","5.0.14.0","2","203","trial1","naming","0","0","0","0","basket","0","3672","1","White_Screen.jpg","7","73","Crate_Milk.jpg","7"
"091219","17:27:03","15","15","5.0.14.0","3","1","demographics_block","gender","0","0","0","0","Male","1","24123","0","0","0","0","0","0"
"091219","17:27:03","15","15","5.0.14.0","3","1","demographics_block","age","0","0","0","0","31","1","24123","0","0","0","0","0","0"
"091219","17:27:03","15","15","5.0.14.0","3","1","demographics_block","education","0","0","0","0","University 4years","1","24123","0","0","0","0","0","0"
"091219","17:27:03","15","15","5.0.14.0","3","2","demographics_block","left_right_handed","0","0","0","0","Left","1","5477","0","0","0","0","0","0"
"091219","17:27:03","15","15","5.0.14.0","3","2","demographics_block","raceoption1","0","0","0","0","0","1","5477","0","0","0","0","0","0"
"091219","17:27:03","15","15","5.0.14.0","3","2","demographics_block","raceoption2","0","0","0","0","","1","5477","0","0","0","0","0","0"
"091219","17:27:03","15","15","5.0.14.0","3","2","demographics_block","raceoption3","0","0","0","0","","1","5477","0","0","0","0","0","0"
"091219","17:27:03","15","15","5.0.14.0","3","2","demographics_block","raceoption4","0","0","0","0","","1","5477","0","0","0","0","0","0"
"091219","17:27:03","15","15","5.0.14.0","3","2","demographics_block","raceoption5","0","0","0","0","","1","5477","0","0","0","0","0","0"
"091219","17:27:03","15","15","5.0.14.0","3","2","demographics_block","raceoption6","0","0","0","0","","1","5477","0","0","0","0","0","0"
"091219","17:27:03","15","15","5.0.14.0","3","2","demographics_block","raceoption7","0","0","0","0","","1","5477","0","0","0","0","0","0"
"091219","17:27:03","15","15","5.0.14.0","3","2","demographics_block","raceoption8","0","0","0","0","","1","5477","0","0","0","0","0","0"
"091219","17:27:03","15","15","5.0.14.0","3","2","demographics_block","raceoption9","0","0","0","0","","1","5477","0","0","0","0","0","0"
"091219","17:27:03","15","15","5.0.14.0","3","2","demographics_block","raceother","0","0","0","0","","1","5477","0","0","0","0","0","0"
"091219","17:27:03","15","15","5.0.14.0","3","2","demographics_block","raceother","0","0","0","0","","1","5477","0","0","0","0","0","0"
"091219","17:27:03","15","15","5.0.14.0","3","2","demographics_block","english_language","0","0","0","0","Yes","1","5477","0","0","0","0","0","0"
"091219","17:27:03","15","15","5.0.14.0","3","2","demographics_block","english_languageother","0","0","0","0","","1","5477","0","0","0","0","0","0"
"091219","17:27:03","15","15","5.0.14.0","3","3","demographics_block","eyesight","0","0","0","0","Yes","1","4981","0","0","0","0","0","0"
"091219","17:27:03","15","15","5.0.14.0","3","3","demographics_block","colorblind","0","0","0","0","No","1","4981","0","0","0","0","0","0"
"091219","17:27:03","15","15","5.0.14.0","4","1","worker_id_block","worker_id_textbox","0","0","0","0","A3IGX9S92GTNMI","1","25562","0","0","0","0","0","0"
"091219","12:39:02","18","18","5.0.14.0","2","1","trial1","naming","0","0","0","0","handcuffs","0","3907","1","White_Screen.jpg","17","120","Handcuffs.jpg","17"
"091219","12:39:02","18","18","5.0.14.0","2","2","trial1","naming","0","0","0","0","pitcher","0","4144","1","White_Screen.jpg","4","44","Pitcher.jpg","4"
"091219","12:39:02","18","18","5.0.14.0","2","3","trial1","naming","0","0","0","0","carseatEnter Name","0","3631","1","White_Screen.jpg","3","54","Chair_Car.jpg","3"
"091219","12:39:02","18","18","5.0.14.0","2","4","trial1","naming","0","0","0","0","waffles Enter Name","0","3169","1","White_Screen.jpg","4","142","Waffle.jpg","4"
"091219","12:39:02","18","18","5.0.14.0","2","5","trial1","naming","0","0","0","0","VHS Tape Enter Name","0","5503","1","White_Screen.jpg","4","13","Cassette_Video.jpg","4"
"091219","12:39:02","18","18","5.0.14.0","2","6","trial1","naming","0","0","0","0","Candlestick Holder","0","7070","1","White_Screen.jpg","3","178","Candleholder_LampShaped.jpg","3"
"091219","12:39:02","18","18","5.0.14.0","2","7","trial1","naming","0","0","0","0","Wine Bottle","0","5884","1","White_Screen.jpg","3","91","Crate_Wine.jpg","3"
"091219","12:39:02","18","18","5.0.14.0","2","8","trial1","naming","0","0","0","0","Exercise Bike","0","3361","1","White_Screen.jpg","5","40","Exercise_Bike.jpg","5"
"091219","12:39:02","18","18","5.0.14.0","2","9","trial1","naming","0","0","0","0","don't know","0","7457","1","White_Screen.jpg","4","43","BloodpPresureCuff.jpg","4"
"091219","12:39:02","18","18","5.0.14.0","2","10","trial1","naming","0","0","0","0","don't know","0","6199","1","White_Screen.jpg","4","171","BookShelf.jpg","4"
"091219","12:39:02","18","18","5.0.14.0","2","11","trial1","naming","0","0","0","0","don't know","0","7016","1","White_Screen.jpg","4","184","Noisemaker_Streamers.jpg","4"
"091219","12:39:02","18","18","5.0.14.0","2","12","trial1","naming","0","0","0","0","pot holder","0","3009","1","White_Screen.jpg","4","81","ClothCoaster.jpg","4"
"091219","12:39:02","18","18","5.0.14.0","2","13","trial1","naming","0","0","0","0","tool","0","4718","1","White_Screen.jpg","4","199","LeatherPuncherTool.jpg","4"
"091219","12:39:02","18","18","5.0.14.0","2","14","trial1","naming","0","0","0","0","bread","0","2675","1","White_Screen.jpg","4","51","Toast.jpg","4"
"091219","12:39:02","18","18","5.0.14.0","2","15","trial1","naming","0","0","0","0","lighthouse figure","0","4535","1","White_Screen.jpg","4","118","Toy_Lighthouse.jpg","4"
"091219","12:39:02","18","18","5.0.14.0","2","16","trial1","naming","0","0","0","0","bench","0","1820","1","White_Screen.jpg","4","109","Bench_Park.jpg","4"
"091219","12:39:02","18","18","5.0.14.0","2","17","trial1","naming","0","0","0","0","door","0","2064","1","White_Screen.jpg","5","123","Door_Green.jpg","5"
"091219","12:39:02","18","18","5.0.14.0","2","18","trial1","naming","0","0","0","0","nuts","0","3485","1","White_Screen.jpg","3","3","ChiliFlakes.jpg","3"
"091219","12:39:02","18","18","5.0.14.0","2","19","trial1","naming","0","0","0","0","don't know","0","2540","1","White_Screen.jpg","5","96","EyeExamDevice.jpg","5"
"091219","12:39:02","18","18","5.0.14.0","2","20","trial1","naming","0","0","0","0","bongos","0","2012","1","White_Screen.jpg","4","147","Drum_Bongos.jpg","4"
"091219","12:39:02","18","18","5.0.14.0","2","21","trial1","naming","0","0","0","0","stereo","0","2713","1","White_Screen.jpg","4","9","Radio_Modern.jpg","4"
"091219","12:39:02","18","18","5.0.14.0","2","22","trial1","naming","0","0","0","0","don't know","0","3546","1","White_Screen.jpg","3","46","Tube_Glue.jpg","3"
"091219","12:39:02","18","18","5.0.14.0","2","23","trial1","naming","0","0","0","0","control board","0","3880","1","White_Screen.jpg","4","77","SoundMixer_Blue.jpg","4"
"091219","12:39:02","18","18","5.0.14.0","2","24","trial1","naming","0","0","0","0","tortilla","0","3065","1","White_Screen.jpg","4","66","Bread_Pita.jpg","4"
"091219","12:39:02","18","18","5.0.14.0","2","25","trial1","naming","0","0","0","0","lab set","0","4186","1","White_Screen.jpg","5","25","TestTube_MultipleAndRack.jpg","5"
"091219","12:39:02","18","18","5.0.14.0","2","26","trial1","naming","0","0","0","0","sign","0","2439","1","White_Screen.jpg","4","105","Sign_Construction.jpg","4"
"091219","12:39:02","18","18","5.0.14.0","2","27","trial1","naming","0","0","0","0","pizza cutter","0","2555","1","White_Screen.jpg","3","17","PizzaCutter.jpg","3"
"091219","12:39:02","18","18","5.0.14.0","2","28","trial1","naming","0","0","0","0","arch","0","2529","1","White_Screen.jpg","4","166","Arch_Triomphe.jpg","4"
"091219","12:39:02","18","18","5.0.14.0","2","29","trial1","naming","0","0","0","0","bag","0","2849","1","White_Screen.jpg","4","140","Backpack_Suitcase.jpg","4"
"091219","12:39:02","18","18","5.0.14.0","2","30","trial1","naming","0","0","0","0","cds","0","3115","1","White_Screen.jpg","5","103","CDstack.jpg","5"
"091219","12:39:02","18","18","5.0.14.0","2","31","trial1","naming","0","0","0","0","don't know","0","2892","1","White_Screen.jpg","4","93","Instrument_African.jpg","4"
"091219","12:39:02","18","18","5.0.14.0","2","32","trial1","naming","0","0","0","0","spool of solder","0","9214","1","White_Screen.jpg","3","116","SolderingWire.jpg","3"
"091219","12:39:02","18","18","5.0.14.0","2","33","trial1","naming","0","0","0","0","detergent ","0","6605","1","White_Screen.jpg","4","29","Bottle_Oil.jpg","4"
"091219","12:39:02","18","18","5.0.14.0","2","34","trial1","naming","0","0","0","0","tennis ball","0","3326","1","White_Screen.jpg","4","37","Ball_Tennis.jpg","4"
"091219","12:39:02","18","18","5.0.14.0","2","35","trial1","naming","0","0","0","0","broom","0","2542","1","White_Screen.jpg","4","80","Broom_Short.jpg","4"
"091219","12:39:02","18","18","5.0.14.0","2","36","trial1","naming","0","0","0","0","cork","0","2485","1","White_Screen.jpg","4","121","Cork.jpg","4"
"091219","12:39:02","18","18","5.0.14.0","2","37","trial1","naming","0","0","0","0","truck","0","1663","1","White_Screen.jpg","4","114","Truck_Box.jpg","4"
"091219","12:39:02","18","18","5.0.14.0","2","38","trial1","naming","0","0","0","0","bowtie","0","1546","1","White_Screen.jpg","3","28","Bowtie.jpg","3"
"091219","12:39:02","18","18","5.0.14.0","2","39","trial1","naming","0","0","0","0","helmet","0","1490","1","White_Screen.jpg","3","145","Helmet_Motorcycle.jpg","3"
"091219","12:39:02","18","18","5.0.14.0","2","40","trial1","naming","0","0","0","0","leaf","0","1277","1","White_Screen.jpg","3","108","Leaf_Yellow.jpg","3"
"091219","12:39:02","18","18","5.0.14.0","2","41","trial1","naming","0","0","0","0","toolset","0","2287","1","White_Screen.jpg","4","82","Toolbox_RedOpen.jpg","4"
"091219","12:39:02","18","18","5.0.14.0","2","42","trial1","naming","0","0","0","0","pencil holder","0","3434","1","White_Screen.jpg","3","83","ToothbrushHolder.jpg","3"
"091219","12:39:02","18","18","5.0.14.0","2","43","trial1","naming","0","0","0","0","mask","0","2853","1","White_Screen.jpg","4","133","Mask_VenetianLongNose.jpg","4"
"091219","12:39:02","18","18","5.0.14.0","2","44","trial1","naming","0","0","0","0","button","0","1696","1","White_Screen.jpg","3","138","Button.jpg","3"
"091219","12:39:02","18","18","5.0.14.0","2","45","trial1","naming","0","0","0","0","house","0","1561","1","White_Screen.jpg","4","155","House_Stone.jpg","4"
"091219","12:39:02","18","18","5.0.14.0","2","46","trial1","naming","0","0","0","0","Enter Name","0","9809","1","White_Screen.jpg","4","18","Barbecue_Gas.jpg","4"
"091219","12:39:02","18","18","5.0.14.0","2","47","trial1","naming","0","0","0","0","lens","0","5727","1","White_Screen.jpg","4","45","Lens_Camera.jpg","4"
"091219","12:39:02","18","18","5.0.14.0","2","48","trial1","naming","0","0","0","0","crate","0","2397","1","White_Screen.jpg","3","73","Crate_Milk.jpg","3"
"091219","12:39:02","18","18","5.0.14.0","2","49","trial1","naming","0","0","0","0","grenade","0","1570","1","White_Screen.jpg","4","187","Grenade.jpg","4"
"091219","12:39:02","18","18","5.0.14.0","2","50","trial1","naming","0","0","0","0","shopping cart","0","2657","1","White_Screen.jpg","4","63","ShoppingCart.jpg","4"
"091219","12:39:02","18","18","5.0.14.0","2","52","trial1","naming","0","0","0","0","cologne","0","3103","1","White_Screen.jpg","3","87","Perfume.jpg","3"
"091219","12:39:02","18","18","5.0.14.0","2","53","trial1","naming","0","0","0","0","rubber gloves","0","2295","1","White_Screen.jpg","4","182","Glove_Rubber.jpg","4"
"091219","12:39:02","18","18","5.0.14.0","2","54","trial1","naming","0","0","0","0","","0","6745","1","White_Screen.jpg","4","30","Stationary.jpg","4"
"091219","12:39:02","18","18","5.0.14.0","2","55","trial1","naming","0","0","0","0","Enter Name","0","8229","1","White_Screen.jpg","4","72","ChariotGold.jpg","4"
"091219","12:39:02","18","18","5.0.14.0","2","56","trial1","naming","0","0","0","0","ladybug","0","2853","1","White_Screen.jpg","3","163","Ladybug.jpg","3"
"091219","12:39:02","18","18","5.0.14.0","2","57","trial1","naming","0","0","0","0","wheel","0","2574","1","White_Screen.jpg","4","200","BicycleWheel.jpg","4"
"091219","12:39:02","18","18","5.0.14.0","2","58","trial1","naming","0","0","0","0","basketball hoop","0","5126","1","White_Screen.jpg","3","152","BasketballHoop.jpg","3"
"091219","12:39:02","18","18","5.0.14.0","2","59","trial1","naming","0","0","0","0","fence","0","1683","1","White_Screen.jpg","4","129","Fence_ChainLink.jpg","4"
"091219","12:39:02","18","18","5.0.14.0","2","60","trial1","naming","0","0","0","0","wallet","0","1542","1","White_Screen.jpg","3","11","Wallet_ClosedBrown.jpg","3"
"091219","12:39:02","18","18","5.0.14.0","2","61","trial1","naming","0","0","0","0","lock","0","4215","1","White_Screen.jpg","4","174","Lock_Bike.jpg","4"
"091219","12:39:02","18","18","5.0.14.0","2","62","trial1","naming","0","0","0","0","film","0","2745","1","White_Screen.jpg","4","131","Film_Roll.jpg","4"
"091219","12:39:02","18","18","5.0.14.0","2","63","trial1","naming","0","0","0","0","heater","0","2752","1","White_Screen.jpg","4","56","Heater_ElectricPortable.jpg","4"
"091219","12:39:02","18","18","5.0.14.0","2","64","trial1","naming","0","0","0","0","golf ball","0","2143","1","White_Screen.jpg","4","104","Ball_Golf.jpg","4"
"091219","12:39:02","18","18","5.0.14.0","2","65","trial1","naming","0","0","0","0","hammer","0","1847","1","White_Screen.jpg","4","1","Hammer.jpg","4"
"091219","12:39:02","18","18","5.0.14.0","2","66","trial1","naming","0","0","0","0","puppeteer stage","0","7667","1","White_Screen.jpg","4","71","PuppetTheatre_WhiteGold.jpg","4"
"091219","12:39:02","18","18","5.0.14.0","2","67","trial1","naming","0","0","0","0","don't know","0","4481","1","White_Screen.jpg","4","102","BicycleGear.jpg","4"
"091219","12:39:02","18","18","5.0.14.0","2","68","trial1","naming","0","0","0","0","rake","0","2857","1","White_Screen.jpg","4","19","Rake_Long.jpg","4"
"091219","12:39:02","18","18","5.0.14.0","2","69","trial1","naming","0","0","0","0","Enter Name","0","4172","1","White_Screen.jpg","4","85","BicycleChain.jpg","4"
"091219","12:39:02","18","18","5.0.14.0","2","70","trial1","naming","0","0","0","0","puzzle piece","0","3433","1","White_Screen.jpg","4","69","Puzzle_Piece.jpg","4"
"091219","12:39:02","18","18","5.0.14.0","2","71","trial1","naming","0","0","0","0","oar","0","2443","1","White_Screen.jpg","4","16","Paddle_Canoe.jpg","4"
"091219","12:39:02","18","18","5.0.14.0","2","72","trial1","naming","0","0","0","0","tag","0","1519","1","White_Screen.jpg","4","31","Tag_Identifier.jpg","4"
"091219","12:39:02","18","18","5.0.14.0","2","73","trial1","naming","0","0","0","0","chocolate bar","0","2441","1","White_Screen.jpg","3","175","ChocolateBar_HalfUnwrapped.jpg","3"
"091219","12:39:02","18","18","5.0.14.0","2","74","trial1","naming","0","0","0","0","flip flops","0","3205","1","White_Screen.jpg","3","195","FlipFlop_PairBlue.jpg","3"
"091219","12:39:02","18","18","5.0.14.0","2","75","trial1","naming","0","0","0","0","dolly","0","2049","1","White_Screen.jpg","4","99","Dolly.jpg","4"
"091219","12:39:02","18","18","5.0.14.0","2","76","trial1","naming","0","0","0","0","sandal","0","4237","1","White_Screen.jpg","3","158","FlipFlop_SingleRed.jpg","3"
"091219","12:39:02","18","18","5.0.14.0","2","77","trial1","naming","0","0","0","0","grapefruit","0","3303","1","White_Screen.jpg","3","154","OrangeBlood.jpg","3"
"091219","12:39:02","18","18","5.0.14.0","2","78","trial1","naming","0","0","0","0","no idea","0","4471","1","White_Screen.jpg","4","76","Stepper.jpg","4"
"091219","12:39:02","18","18","5.0.14.0","2","79","trial1","naming","0","0","0","0","decoration","0","4135","1","White_Screen.jpg","4","12","Lantern_Chinese.jpg","4"
"091219","12:39:02","18","18","5.0.14.0","2","80","trial1","naming","0","0","0","0","gavel","0","2479","1","White_Screen.jpg","3","47","MalletJudge.jpg","3"
"091219","12:39:02","18","18","5.0.14.0","2","81","trial1","naming","0","0","0","0","motorcycle","0","2592","1","White_Screen.jpg","3","90","Motorcycle.jpg","3"
"091219","12:39:02","18","18","5.0.14.0","2","82","trial1","naming","0","0","0","0","taco","0","1310","1","White_Screen.jpg","3","177","Taco.jpg","3"
"091219","12:39:02","18","18","5.0.14.0","2","83","trial1","naming","0","0","0","0","lanturn","0","4704","1","White_Screen.jpg","4","61","Lantern_Tea.jpg","4"
"091219","12:39:02","18","18","5.0.14.0","2","84","trial1","naming","0","0","0","0","towel","0","2607","1","White_Screen.jpg","3","36","Rag.jpg","3"
"091219","12:39:02","18","18","5.0.14.0","2","85","trial1","naming","0","0","0","0","trunk","0","5996","1","White_Screen.jpg","4","14","TreeStump.jpg","4"
"091219","12:39:02","18","18","5.0.14.0","2","86","trial1","naming","0","0","0","0","bbq pit","0","4655","1","White_Screen.jpg","4","128","Barbecue_Charcoal.jpg","4"
"091219","12:39:02","18","18","5.0.14.0","2","87","trial1","naming","0","0","0","0","Enter Name","0","8640","1","White_Screen.jpg","4","55","HandMixer.jpg","4"
"091219","12:39:02","18","18","5.0.14.0","2","88","trial1","naming","0","0","0","0","apple","0","2678","1","White_Screen.jpg","4","78","Box_Apples.jpg","4"
"091219","12:39:02","18","18","5.0.14.0","2","89","trial1","naming","0","0","0","0","bucket","0","2623","1","White_Screen.jpg","4","170","Bucket_WoodenLight.jpg","4"
"091219","12:39:02","18","18","5.0.14.0","2","90","trial1","naming","0","0","0","0","bird","0","1468","1","White_Screen.jpg","4","156","Bird_Tern.jpg","4"
"091219","12:39:02","18","18","5.0.14.0","2","91","trial1","naming","0","0","0","0","trash can","0","2063","1","White_Screen.jpg","4","65","Garbage_Can.jpg","4"
"091219","12:39:02","18","18","5.0.14.0","2","92","trial1","naming","0","0","0","0","no idea","0","2282","1","White_Screen.jpg","4","60","DrillBit.jpg","4"
"091219","12:39:02","18","18","5.0.14.0","2","93","trial1","naming","0","0","0","0","cane","0","2516","1","White_Screen.jpg","3","193","Cane_Wooden.jpg","3"
"091219","12:39:02","18","18","5.0.14.0","2","94","trial1","naming","0","0","0","0","statue of buddha","0","6317","1","White_Screen.jpg","4","159","Statue_Buddha.jpg","4"
"091219","12:39:02","18","18","5.0.14.0","2","95","trial1","naming","0","0","0","0","cracker","0","2753","1","White_Screen.jpg","4","172","Cracker_Saltine.jpg","4"
"091219","12:39:02","18","18","5.0.14.0","2","96","trial1","naming","0","0","0","0","kit","0","2873","1","White_Screen.jpg","3","23","Box_Vials.jpg","3"
"091219","12:39:02","18","18","5.0.14.0","2","97","trial1","naming","0","0","0","0","money","0","1907","1","White_Screen.jpg","3","122","MoneyBill50.jpg","3"
"091219","12:39:02","18","18","5.0.14.0","2","98","trial1","naming","0","0","0","0","adaptor","0","2476","1","White_Screen.jpg","3","94","ConnectorPlug.jpg","3"
"091219","12:39:02","18","18","5.0.14.0","2","99","trial1","naming","0","0","0","0","knife","0","1702","1","White_Screen.jpg","4","119","Knife_Hunting.jpg","4"
"091219","12:39:02","18","18","5.0.14.0","2","100","trial1","naming","0","0","0","0","train","0","2048","1","White_Screen.jpg","4","196","Locomotive.jpg","4"
"091219","12:39:02","18","18","5.0.14.0","2","101","trial1","naming","0","0","0","0","coatrack","0","4572","1","White_Screen.jpg","3","112","Coatrack.jpg","3"
"091219","12:39:02","18","18","5.0.14.0","2","103","trial1","naming","0","0","0","0","don't know","0","2181","1","White_Screen.jpg","4","98","Loofa.jpg","4"
"091219","12:39:02","18","18","5.0.14.0","2","104","trial1","naming","0","0","0","0","drink","0","1723","1","White_Screen.jpg","3","20","Drink_Cocktail.jpg","3"
"091219","12:39:02","18","18","5.0.14.0","2","105","trial1","naming","0","0","0","0","mannequin","0","2196","1","White_Screen.jpg","3","132","PersonWooden.jpg","3"
"091219","12:39:02","18","18","5.0.14.0","2","106","trial1","naming","0","0","0","0","cash register","0","4609","1","White_Screen.jpg","4","67","CashRegister_Modern.jpg","4"
"091219","12:39:02","18","18","5.0.14.0","2","107","trial1","naming","0","0","0","0","brush","0","1828","1","White_Screen.jpg","4","95","Brush_Makeup.jpg","4"
"091219","12:39:02","18","18","5.0.14.0","2","108","trial1","naming","0","0","0","0","camera","0","1343","1","White_Screen.jpg","5","162","Camera_Video.jpg","5"
"091219","12:39:02","18","18","5.0.14.0","2","109","trial1","naming","0","0","0","0","chicken","0","2000","1","White_Screen.jpg","5","189","Toy_Chicken.jpg","5"
"091219","12:39:02","18","18","5.0.14.0","2","110","trial1","naming","0","0","0","0","hamster cage","0","5190","1","White_Screen.jpg","4","39","Cage_Hamster.jpg","4"
"091219","12:39:02","18","18","5.0.14.0","2","111","trial1","naming","0","0","0","0","pot","0","1938","1","White_Screen.jpg","3","186","Pot_Crock.jpg","3"
"091219","12:39:02","18","18","5.0.14.0","2","112","trial1","naming","0","0","0","0","hockey equipment","0","3690","1","White_Screen.jpg","4","74","Hockey_Equipment.jpg","4"
"091219","12:39:02","18","18","5.0.14.0","2","113","trial1","naming","0","0","0","0","hat","0","2731","1","White_Screen.jpg","4","198","Hat_Feather.jpg","4"
"091219","12:39:02","18","18","5.0.14.0","2","114","trial1","naming","0","0","0","0","lily pad","0","2786","1","White_Screen.jpg","4","151","Lilypad.jpg","4"
"091219","12:39:02","18","18","5.0.14.0","2","115","trial1","naming","0","0","0","0","pencil holder","0","2992","1","White_Screen.jpg","3","75","PencilCase.jpg","3"
"091219","12:39:02","18","18","5.0.14.0","2","116","trial1","naming","0","0","0","0","monkey","0","1525","1","White_Screen.jpg","3","53","Chimpanzee.jpg","3"
"091219","12:39:02","18","18","5.0.14.0","2","117","trial1","naming","0","0","0","0","helicopter","0","2095","1","White_Screen.jpg","3","185","Helicopter.jpg","3"
"091219","12:39:02","18","18","5.0.14.0","2","118","trial1","naming","0","0","0","0","bag","0","1927","1","White_Screen.jpg","4","188","Bag_String.jpg","4"
"091219","12:39:02","18","18","5.0.14.0","2","119","trial1","naming","0","0","0","0","fruit","0","3312","1","White_Screen.jpg","4","5","Mango.jpg","4"
"091219","12:39:02","18","18","5.0.14.0","2","120","trial1","naming","0","0","0","0","toy truck","0","2336","1","White_Screen.jpg","3","41","Toy_Tractor_1.jpg","3"
"091219","12:39:02","18","18","5.0.14.0","2","121","trial1","naming","0","0","0","0","bib","0","2152","1","White_Screen.jpg","3","126","Bib.jpg","3"
"091219","12:39:02","18","18","5.0.14.0","2","122","trial1","naming","0","0","0","0","check","0","1648","1","White_Screen.jpg","3","6","Cheque.jpg","3"
"091219","12:39:02","18","18","5.0.14.0","2","123","trial1","naming","0","0","0","0","sewing machine","0","2483","1","White_Screen.jpg","4","50","SewingMachine.jpg","4"
"091219","12:39:02","18","18","5.0.14.0","2","124","trial1","naming","0","0","0","0","trailer","0","2789","1","White_Screen.jpg","4","15","BoxTrailer.jpg","4"
"091219","12:39:02","18","18","5.0.14.0","2","125","trial1","naming","0","0","0","0","hole punch","0","3954","1","White_Screen.jpg","4","22","Oneholepunch.jpg","4"
"091219","12:39:02","18","18","5.0.14.0","2","126","trial1","naming","0","0","0","0","oil can","0","2216","1","White_Screen.jpg","4","62","Can_OilSpout.jpg","4"
"091219","12:39:02","18","18","5.0.14.0","2","127","trial1","naming","0","0","0","0","camera","0","2517","1","White_Screen.jpg","4","21","Camera_ProfessionalFilm.jpg","4"
"091219","12:39:02","18","18","5.0.14.0","2","128","trial1","naming","0","0","0","0","green beans","0","4445","1","White_Screen.jpg","4","160","Snowpea.jpg","4"
"091219","12:39:02","18","18","5.0.14.0","2","129","trial1","naming","0","0","0","0","knee","0","2248","1","White_Screen.jpg","3","181","Knee.jpg","3"
"091219","12:39:02","18","18","5.0.14.0","2","130","trial1","naming","0","0","0","0","don't know","0","2803","1","White_Screen.jpg","4","180","ShakerShekere.jpg","4"
"091219","12:39:02","18","18","5.0.14.0","2","131","trial1","naming","0","0","0","0","flask","0","3215","1","White_Screen.jpg","4","134","Beaker.jpg","4"
"091219","12:39:02","18","18","5.0.14.0","2","132","trial1","naming","0","0","0","0","animal","0","3580","1","White_Screen.jpg","3","130","Caribou.jpg","3"
"091219","12:39:02","18","18","5.0.14.0","2","133","trial1","naming","0","0","0","0","branch","0","2104","1","White_Screen.jpg","4","111","Branch.jpg","4"
"091219","12:39:02","18","18","5.0.14.0","2","134","trial1","naming","0","0","0","0","totem pole","0","1978","1","White_Screen.jpg","4","89","TotemPole.jpg","4"
"091219","12:39:02","18","18","5.0.14.0","2","135","trial1","naming","0","0","0","0","dresser","0","1824","1","White_Screen.jpg","3","115","Dresser_1.jpg","3"
"091219","12:39:02","18","18","5.0.14.0","2","136","trial1","naming","0","0","0","0","server","0","4398","1","White_Screen.jpg","3","64","TelephoneSwitchboard.jpg","3"
"091219","12:39:02","18","18","5.0.14.0","2","137","trial1","naming","0","0","0","0","gloves","0","1991","1","White_Screen.jpg","5","70","Gloves_Bicycle.jpg","5"
"091219","12:39:02","18","18","5.0.14.0","2","138","trial1","naming","0","0","0","0","don't know","0","3367","1","White_Screen.jpg","3","169","Cart_Janitor.jpg","3"
"091219","12:39:02","18","18","5.0.14.0","2","139","trial1","naming","0","0","0","0","lamb","0","1685","1","White_Screen.jpg","3","27","Sheep.jpg","3"
"091219","12:39:02","18","18","5.0.14.0","2","140","trial1","naming","0","0","0","0","arm","0","1502","1","White_Screen.jpg","4","137","Arm.jpg","4"
"091219","12:39:02","18","18","5.0.14.0","2","141","trial1","naming","0","0","0","0","sugar","0","4248","1","White_Screen.jpg","4","135","Bowl_Sugar.jpg","4"
"091219","12:39:02","18","18","5.0.14.0","2","142","trial1","naming","0","0","0","0","tube","0","2834","1","White_Screen.jpg","4","68","ToothPaste.jpg","4"
"091219","12:39:02","18","18","5.0.14.0","2","143","trial1","naming","0","0","0","0","pants","0","2149","1","White_Screen.jpg","4","42","Pants_Jeans.jpg","4"
"091219","12:39:02","18","18","5.0.14.0","2","144","trial1","naming","0","0","0","0","baby bottle","0","4229","1","White_Screen.jpg","4","194","Bottle_Baby.jpg","4"
"091219","12:39:02","18","18","5.0.14.0","2","145","trial1","naming","0","0","0","0","glove","0","1511","1","White_Screen.jpg","4","173","Glove_Baseball.jpg","4"
"091219","12:39:02","18","18","5.0.14.0","2","146","trial1","naming","0","0","0","0","","0","8705","1","White_Screen.jpg","4","161","Bucket_Halloween.jpg","4"
"091219","12:39:02","18","18","5.0.14.0","2","147","trial1","naming","0","0","0","0","cincilla ","0","5133","1","White_Screen.jpg","3","79","Chinchilla.jpg","3"
"091219","12:39:02","18","18","5.0.14.0","2","148","trial1","naming","0","0","0","0","mirror","0","5218","1","White_Screen.jpg","4","110","Mirror_Makeup.jpg","4"
"091219","12:39:02","18","18","5.0.14.0","2","149","trial1","naming","0","0","0","0","ice cream cone","0","2996","1","White_Screen.jpg","4","197","IceCreamCone.jpg","4"
"091219","12:39:02","18","18","5.0.14.0","2","150","trial1","naming","0","0","0","0","satellite ","0","2720","1","White_Screen.jpg","4","148","TelescopeSpacecraft.jpg","4"
"091219","12:39:02","18","18","5.0.14.0","2","151","trial1","naming","0","0","0","0","kneepads","0","2193","1","White_Screen.jpg","3","33","ShinPads.jpg","3"
"091219","12:39:02","18","18","5.0.14.0","2","152","trial1","naming","0","0","0","0","towel","0","2247","1","White_Screen.jpg","3","34","Towel.jpg","3"
"091219","12:39:02","18","18","5.0.14.0","2","154","trial1","naming","0","0","0","0","gauge","0","4657","1","White_Screen.jpg","3","32","Gauge.jpg","3"
"091219","12:39:02","18","18","5.0.14.0","2","155","trial1","naming","0","0","0","0","house","0","1449","1","White_Screen.jpg","4","164","House_Rural.jpg","4"
"091219","12:39:02","18","18","5.0.14.0","2","156","trial1","naming","0","0","0","0","don't know","0","2534","1","White_Screen.jpg","3","167","Autocreeper.jpg","3"
"091219","12:39:02","18","18","5.0.14.0","2","157","trial1","naming","0","0","0","0","don't know","0","4300","1","White_Screen.jpg","4","192","ProjectorScreen.jpg","4"
"091219","12:39:02","18","18","5.0.14.0","2","158","trial1","naming","0","0","0","0","tunankhamen","0","7141","1","White_Screen.jpg","4","88","PharoahReplica.jpg","4"
"091219","12:39:02","18","18","5.0.14.0","2","159","trial1","naming","0","0","0","0","book","0","2768","1","White_Screen.jpg","4","106","Book_Paper.jpg","4"
"091219","12:39:02","18","18","5.0.14.0","2","160","trial1","naming","0","0","0","0","mr. potato head","0","2958","1","White_Screen.jpg","4","59","Toy_MrPotatoHeadjpg.jpg","4"
"091219","12:39:02","18","18","5.0.14.0","2","161","trial1","naming","0","0","0","0","pool'","0","4581","1","White_Screen.jpg","4","84","KiddiePool.jpg","4"
"091219","12:39:02","18","18","5.0.14.0","2","162","trial1","naming","0","0","0","0","shoe","0","4321","1","White_Screen.jpg","4","113","Shoe_WomenHeals.jpg","4"
"091219","12:39:02","18","18","5.0.14.0","2","163","trial1","naming","0","0","0","0","cake","0","2496","1","White_Screen.jpg","4","101","Cake_Wedding.jpg","4"
"091219","12:39:02","18","18","5.0.14.0","2","164","trial1","naming","0","0","0","0","leash","0","2777","1","White_Screen.jpg","3","150","DogLeash.jpg","3"
"091219","12:39:02","18","18","5.0.14.0","2","165","trial1","naming","0","0","0","0","suitcase","0","4030","1","White_Screen.jpg","5","165","Briefcase_Silver.jpg","5"
"091219","12:39:02","18","18","5.0.14.0","2","166","trial1","naming","0","0","0","0","drum","0","1721","1","White_Screen.jpg","4","7","Drum_Brazilan.jpg","4"
"091219","12:39:02","18","18","5.0.14.0","2","167","trial1","naming","0","0","0","0","duster","0","2107","1","White_Screen.jpg","4","35","DusterFeather.jpg","4"
"091219","12:39:02","18","18","5.0.14.0","2","168","trial1","naming","0","0","0","0","bell","0","1932","1","White_Screen.jpg","4","26","Bell_Hand.jpg","4"
"091219","12:39:02","18","18","5.0.14.0","2","169","trial1","naming","0","0","0","0","bowling ball","0","2709","1","White_Screen.jpg","3","49","Ball_Bowling.jpg","3"
"091219","12:39:02","18","18","5.0.14.0","2","170","trial1","naming","0","0","0","0","crock pot","0","3150","1","White_Screen.jpg","3","139","RiceCooker.jpg","3"
"091219","12:39:02","18","18","5.0.14.0","2","171","trial1","naming","0","0","0","0","scissors","0","1756","1","White_Screen.jpg","3","52","Scissors.jpg","3"
"091219","12:39:02","18","18","5.0.14.0","2","172","trial1","naming","0","0","0","0","jet ski","0","2604","1","White_Screen.jpg","4","58","Jetski.jpg","4"
"091219","12:39:02","18","18","5.0.14.0","2","173","trial1","naming","0","0","0","0","toblerone ","0","2384","1","White_Screen.jpg","4","86","Toblerone.jpg","4"
"091219","12:39:02","18","18","5.0.14.0","2","174","trial1","naming","0","0","0","0","shorts","0","1710","1","White_Screen.jpg","4","10","Shorts_Sports.jpg","4"
"091219","12:39:02","18","18","5.0.14.0","2","175","trial1","naming","0","0","0","0","binder","0","1647","1","White_Screen.jpg","4","100","Binder.jpg","4"
"091219","12:39:02","18","18","5.0.14.0","2","176","trial1","naming","0","0","0","0","crystal","0","1716","1","White_Screen.jpg","3","24","Quartz.jpg","3"
"091219","12:39:02","18","18","5.0.14.0","2","177","trial1","naming","0","0","0","0","rechargable station","0","10000","1","White_Screen.jpg","3","107","Generator.jpg","3"
"091219","12:39:02","18","18","5.0.14.0","2","178","trial1","naming","0","0","0","0","Enter Name","0","131","1","White_Screen.jpg","4","143","Machine_Bread.jpg","4"
"091219","12:39:02","18","18","5.0.14.0","2","179","trial1","naming","0","0","0","0","carEnter Name","0","3413","1","White_Screen.jpg","4","127","Toy_Car.jpg","4"
"091219","12:39:02","18","18","5.0.14.0","2","180","trial1","naming","0","0","0","0","rope","0","2289","1","White_Screen.jpg","3","179","Rope_Manila.jpg","3"
"091219","12:39:02","18","18","5.0.14.0","2","181","trial1","naming","0","0","0","0","wheel","0","1419","1","White_Screen.jpg","3","2","BicycleWheelRusty.jpg","3"
"091219","12:39:02","18","18","5.0.14.0","2","182","trial1","naming","0","0","0","0","couch","0","1561","1","White_Screen.jpg","3","168","Loveseat.jpg","3"
"091219","12:39:02","18","18","5.0.14.0","2","183","trial1","naming","0","0","0","0","stamper","0","3936","1","White_Screen.jpg","4","157","Stamper.jpg","4"
"091219","12:39:02","18","18","5.0.14.0","2","184","trial1","naming","0","0","0","0","eraser","0","1789","1","White_Screen.jpg","5","117","ChalkboardEraser.jpg","5"
"091219","12:39:02","18","18","5.0.14.0","2","185","trial1","naming","0","0","0","0","don't know","0","4093","1","White_Screen.jpg","3","176","Suspenders.jpg","3"
"091219","12:39:02","18","18","5.0.14.0","2","186","trial1","naming","0","0","0","0","flute","0","2869","1","White_Screen.jpg","4","57","Flute_Wooden.jpg","4"
"091219","12:39:02","18","18","5.0.14.0","2","187","trial1","naming","0","0","0","0","bark","0","3871","1","White_Screen.jpg","4","48","Bark.jpg","4"
"091219","12:39:02","18","18","5.0.14.0","2","188","trial1","naming","0","0","0","0","container","0","5601","1","White_Screen.jpg","3","4","Bucket_Ice.jpg","3"
"091219","12:39:02","18","18","5.0.14.0","2","189","trial1","naming","0","0","0","0","car","0","1458","1","White_Screen.jpg","4","97","Toy_PoliceCar.jpg","4"
"091219","12:39:02","18","18","5.0.14.0","2","190","trial1","naming","0","0","0","0","oven mitt","0","2871","1","White_Screen.jpg","4","190","Mitt_Oven.jpg","4"
"091219","12:39:02","18","18","5.0.14.0","2","191","trial1","naming","0","0","0","0","don't know","0","4401","1","White_Screen.jpg","3","144","PaperCutter.jpg","3"
"091219","12:39:02","18","18","5.0.14.0","2","192","trial1","naming","0","0","0","0","defribrilator ","0","6005","1","White_Screen.jpg","3","8","Defribrillator.jpg","3"
"091219","12:39:02","18","18","5.0.14.0","2","193","trial1","naming","0","0","0","0","winnie the pooh","0","3454","1","White_Screen.jpg","4","153","Toy_WinnieThePooh.jpg","4"
"091219","12:39:02","18","18","5.0.14.0","2","194","trial1","naming","0","0","0","0","toothpick","0","2648","1","White_Screen.jpg","4","141","ToothPick.jpg","4"
"091219","12:39:02","18","18","5.0.14.0","2","195","trial1","naming","0","0","0","0","screw","0","1924","1","White_Screen.jpg","3","149","Bolt.jpg","3"
"091219","12:39:02","18","18","5.0.14.0","2","196","trial1","naming","0","0","0","0","triangle","0","1733","1","White_Screen.jpg","3","92","Triangle.jpg","3"
"091219","12:39:02","18","18","5.0.14.0","2","197","trial1","naming","0","0","0","0","don't know","0","2974","1","White_Screen.jpg","3","191","LintRemover.jpg","3"
"091219","12:39:02","18","18","5.0.14.0","2","198","trial1","naming","0","0","0","0","origami","0","3491","1","White_Screen.jpg","3","183","Origami_Ox.jpg","3"
"091219","12:39:02","18","18","5.0.14.0","2","199","trial1","naming","0","0","0","0","walker","0","2723","1","White_Screen.jpg","4","125","Walker_Silver.jpg","4"
"091219","12:39:02","18","18","5.0.14.0","2","200","trial1","naming","0","0","0","0","alarm","0","2068","1","White_Screen.jpg","4","124","FireAlarm.jpg","4"
"091219","12:39:02","18","18","5.0.14.0","2","201","trial1","naming","0","0","0","0","spoon","0","1895","1","White_Screen.jpg","3","38","Spoon_WoodenLight.jpg","3"
"091219","12:39:02","18","18","5.0.14.0","2","202","trial1","naming","0","0","0","0","clothespin ","0","6089","1","White_Screen.jpg","4","136","Clothespin_Beige.jpg","4"
"091219","12:39:02","18","18","5.0.14.0","2","203","trial1","naming","0","0","0","0","crib","0","3495","1","White_Screen.jpg","4","146","Playard.jpg","4"
"091219","12:39:02","18","18","5.0.14.0","3","1","demographics_block","gender","0","0","0","0","Male","1","11678","0","0","0","0","0","0"
"091219","12:39:02","18","18","5.0.14.0","3","1","demographics_block","age","0","0","0","0","33","1","11678","0","0","0","0","0","0"
"091219","12:39:02","18","18","5.0.14.0","3","1","demographics_block","education","0","0","0","0","14","1","11678","0","0","0","0","0","0"
"091219","12:39:02","18","18","5.0.14.0","3","2","demographics_block","left_right_handed","0","0","0","0","Left","1","4151","0","0","0","0","0","0"
"091219","12:39:02","18","18","5.0.14.0","3","2","demographics_block","raceoption1","0","0","0","0","","1","4151","0","0","0","0","0","0"
"091219","12:39:02","18","18","5.0.14.0","3","2","demographics_block","raceoption2","0","0","0","0","","1","4151","0","0","0","0","0","0"
"091219","12:39:02","18","18","5.0.14.0","3","2","demographics_block","raceoption3","0","0","0","0","2","1","4151","0","0","0","0","0","0"
"091219","12:39:02","18","18","5.0.14.0","3","2","demographics_block","raceoption4","0","0","0","0","","1","4151","0","0","0","0","0","0"
"091219","12:39:02","18","18","5.0.14.0","3","2","demographics_block","raceoption5","0","0","0","0","","1","4151","0","0","0","0","0","0"
"091219","12:39:02","18","18","5.0.14.0","3","2","demographics_block","raceoption6","0","0","0","0","","1","4151","0","0","0","0","0","0"
"091219","12:39:02","18","18","5.0.14.0","3","2","demographics_block","raceoption7","0","0","0","0","","1","4151","0","0","0","0","0","0"
"091219","12:39:02","18","18","5.0.14.0","3","2","demographics_block","raceoption8","0","0","0","0","","1","4151","0","0","0","0","0","0"
"091219","12:39:02","18","18","5.0.14.0","3","2","demographics_block","raceoption9","0","0","0","0","","1","4151","0","0","0","0","0","0"
"091219","12:39:02","18","18","5.0.14.0","3","2","demographics_block","raceother","0","0","0","0","","1","4151","0","0","0","0","0","0"
"091219","12:39:02","18","18","5.0.14.0","3","2","demographics_block","raceother","0","0","0","0","","1","4151","0","0","0","0","0","0"
"091219","12:39:02","18","18","5.0.14.0","3","2","demographics_block","english_language","0","0","0","0","Yes","1","4151","0","0","0","0","0","0"
"091219","12:39:02","18","18","5.0.14.0","3","2","demographics_block","english_languageother","0","0","0","0","","1","4151","0","0","0","0","0","0"
"091219","12:39:02","18","18","5.0.14.0","3","3","demographics_block","eyesight","0","0","0","0","Yes","1","3331","0","0","0","0","0","0"
"091219","12:39:02","18","18","5.0.14.0","3","3","demographics_block","colorblind","0","0","0","0","No","1","3331","0","0","0","0","0","0"
"091219","12:39:02","18","18","5.0.14.0","4","1","worker_id_block","worker_id_textbox","0","0","0","0","A2FLOH4DM8A4ZS","1","13893","0","0","0","0","0","0"
"091219","12:29:08","16","16","5.0.14.0","2","1","trial1","naming","0","0","0","0","Maniqui, Name","0","10000","1","White_Screen.jpg","24","132","PersonWooden.jpg","24"
"091219","12:29:08","16","16","5.0.14.0","2","2","trial1","naming","0","0","0","0","Door","0","10000","1","White_Screen.jpg","10","123","Door_Green.jpg","10"
"091219","12:29:08","16","16","5.0.14.0","2","3","trial1","naming","0","0","0","0","Toothpaste","0","8941","1","White_Screen.jpg","9","68","ToothPaste.jpg","9"
"091219","12:29:08","16","16","5.0.14.0","2","4","trial1","naming","0","0","0","0","Sign","0","6291","1","White_Screen.jpg","10","105","Sign_Construction.jpg","10"
"091219","12:29:08","16","16","5.0.14.0","2","5","trial1","naming","0","0","0","0","Geostone","0","8294","1","White_Screen.jpg","8","24","Quartz.jpg","8"
"091219","12:29:08","16","16","5.0.14.0","2","6","trial1","naming","0","0","0","0","Bookshelf","0","7810","1","White_Screen.jpg","10","171","BookShelf.jpg","10"
"091219","12:29:08","16","16","5.0.14.0","2","7","trial1","naming","0","0","0","0","Cabin","0","5973","1","White_Screen.jpg","11","155","House_Stone.jpg","11"
"091219","12:29:08","16","16","5.0.14.0","2","8","trial1","naming","0","0","0","0","Sofa","0","8057","1","White_Screen.jpg","12","168","Loveseat.jpg","12"
"091219","12:29:08","16","16","5.0.14.0","2","9","trial1","naming","0","0","0","0","Toothbrush holder","0","9414","1","White_Screen.jpg","11","83","ToothbrushHolder.jpg","11"
"091219","12:29:08","16","16","5.0.14.0","2","10","trial1","naming","0","0","0","0","Bowling Ball","0","9630","1","White_Screen.jpg","9","49","Ball_Bowling.jpg","9"
"091219","12:29:08","16","16","5.0.14.0","2","11","trial1","naming","0","0","0","0","Stag","0","6727","1","White_Screen.jpg","10","130","Caribou.jpg","10"
"091219","12:29:08","16","16","5.0.14.0","2","12","trial1","naming","0","0","0","0","Oil Lamp","0","9371","1","White_Screen.jpg","10","178","Candleholder_LampShaped.jpg","10"
"091219","12:29:08","16","16","5.0.14.0","2","13","trial1","naming","0","0","0","0","Spool o","0","10000","1","White_Screen.jpg","9","103","CDstack.jpg","9"
"091219","12:29:08","16","16","5.0.14.0","2","14","trial1","naming","0","0","0","0","Stepper","0","9599","1","White_Screen.jpg","12","76","Stepper.jpg","12"
"091219","12:29:08","16","16","5.0.14.0","2","15","trial1","naming","0","0","0","0","Movie Screen","0","8982","1","White_Screen.jpg","8","192","ProjectorScreen.jpg","8"
"091219","12:29:08","16","16","5.0.14.0","2","16","trial1","naming","0","0","0","0","plug a","0","10000","1","White_Screen.jpg","10","94","ConnectorPlug.jpg","10"
"091219","12:29:08","16","16","5.0.14.0","2","17","trial1","naming","0","0","0","0","Mirror","0","7863","1","White_Screen.jpg","8","110","Mirror_Makeup.jpg","8"
"091219","12:29:08","16","16","5.0.14.0","2","18","trial1","naming","0","0","0","0","Gavel","0","8623","1","White_Screen.jpg","11","47","MalletJudge.jpg","11"
"091219","12:29:08","16","16","5.0.14.0","2","19","trial1","naming","0","0","0","0","Sound board","0","7521","1","White_Screen.jpg","8","77","SoundMixer_Blue.jpg","8"
"091219","12:29:08","16","16","5.0.14.0","2","20","trial1","naming","0","0","0","0","High Heel","0","6471","1","White_Screen.jpg","11","113","Shoe_WomenHeals.jpg","11"
"091219","12:29:08","16","16","5.0.14.0","2","21","trial1","naming","0","0","0","0","Film","0","6635","1","White_Screen.jpg","11","131","Film_Roll.jpg","11"
"091219","12:29:08","16","16","5.0.14.0","2","22","trial1","naming","0","0","0","0","Deity","0","7706","1","White_Screen.jpg","11","72","ChariotGold.jpg","11"
"091219","12:29:08","16","16","5.0.14.0","2","23","trial1","naming","0","0","0","0","Arm","0","5080","1","White_Screen.jpg","11","137","Arm.jpg","11"
"091219","12:29:08","16","16","5.0.14.0","2","24","trial1","naming","0","0","0","0","Totem Pole","0","9478","1","White_Screen.jpg","10","89","TotemPole.jpg","10"
"091219","12:29:08","16","16","5.0.14.0","2","25","trial1","naming","0","0","0","0","Book","0","6129","1","White_Screen.jpg","11","106","Book_Paper.jpg","11"
"091219","12:29:08","16","16","5.0.14.0","2","26","trial1","naming","0","0","0","0","Rope","0","4931","1","White_Screen.jpg","10","179","Rope_Manila.jpg","10"
"091219","12:29:08","16","16","5.0.14.0","2","27","trial1","naming","0","0","0","0","Teired cake","0","8169","1","White_Screen.jpg","13","101","Cake_Wedding.jpg","13"
"091219","12:29:08","16","16","5.0.14.0","2","28","trial1","naming","0","0","0","0","Sugar bowl","0","7384","1","White_Screen.jpg","12","135","Bowl_Sugar.jpg","12"
"091219","12:29:08","16","16","5.0.14.0","2","29","trial1","naming","0","0","0","0","Back pack","0","8425","1","White_Screen.jpg","11","188","Bag_String.jpg","11"
"091219","12:29:08","16","16","5.0.14.0","2","30","trial1","naming","0","0","0","0","Paper cutter","0","7112","1","White_Screen.jpg","11","144","PaperCutter.jpg","11"
"091219","12:29:08","16","16","5.0.14.0","2","31","trial1","naming","0","0","0","0","Stamper","0","6306","1","White_Screen.jpg","9","157","Stamper.jpg","9"
"091219","12:29:08","16","16","5.0.14.0","2","32","trial1","naming","0","0","0","0","Wine","0","8203","1","White_Screen.jpg","11","91","Crate_Wine.jpg","11"
"091219","12:29:08","16","16","5.0.14.0","2","33","trial1","naming","0","0","0","0","leaf","0","6274","1","White_Screen.jpg","10","108","Leaf_Yellow.jpg","10"
"091219","12:29:08","16","16","5.0.14.0","2","34","trial1","naming","0","0","0","0","Crockpot","0","8238","1","White_Screen.jpg","10","139","RiceCooker.jpg","10"
"091219","12:29:08","16","16","5.0.14.0","2","35","trial1","naming","0","0","0","0","Hairpin","0","7157","1","White_Screen.jpg","10","193","Cane_Wooden.jpg","10"
"091219","12:29:08","16","16","5.0.14.0","2","36","trial1","naming","0","0","0","0","Check","0","6068","1","White_Screen.jpg","9","6","Cheque.jpg","9"
"091219","12:29:08","16","16","5.0.14.0","2","37","trial1","naming","0","0","0","0","Locamotive","0","8105","1","White_Screen.jpg","10","196","Locomotive.jpg","10"
"091219","12:29:08","16","16","5.0.14.0","2","38","trial1","naming","0","0","0","0","Jet ski","0","6746","1","White_Screen.jpg","10","58","Jetski.jpg","10"
"091219","12:29:08","16","16","5.0.14.0","2","39","trial1","naming","0","0","0","0","wagon wheeEnter Name","0","10000","1","White_Screen.jpg","10","200","BicycleWheel.jpg","10"
"091219","12:29:08","16","16","5.0.14.0","2","40","trial1","naming","0","0","0","0","Wash cloth","0","6489","1","White_Screen.jpg","9","36","Rag.jpg","9"
"091219","12:29:08","16","16","5.0.14.0","2","41","trial1","naming","0","0","0","0","match","0","10000","1","White_Screen.jpg","11","93","Instrument_African.jpg","11"
"091219","12:29:08","16","16","5.0.14.0","2","42","trial1","naming","0","0","0","0","Chincila","0","10000","1","White_Screen.jpg","10","79","Chinchilla.jpg","10"
"091219","12:29:08","16","16","5.0.14.0","2","43","trial1","naming","0","0","0","0","Batting glove","0","9948","1","White_Screen.jpg","8","70","Gloves_Bicycle.jpg","8"
"091219","12:29:08","16","16","5.0.14.0","2","44","trial1","naming","0","0","0","0","stationary bike","0","8765","1","White_Screen.jpg","7","40","Exercise_Bike.jpg","7"
"091219","12:29:08","16","16","5.0.14.0","2","45","trial1","naming","0","0","0","0","binder","0","6046","1","White_Screen.jpg","12","100","Binder.jpg","12"
"091219","12:29:08","16","16","5.0.14.0","2","46","trial1","naming","0","0","0","0","hat","0","5585","1","White_Screen.jpg","13","198","Hat_Feather.jpg","13"
"091219","12:29:08","16","16","5.0.14.0","2","47","trial1","naming","0","0","0","0","bongo","0","6438","1","White_Screen.jpg","8","7","Drum_Brazilan.jpg","8"
"091219","12:29:08","16","16","5.0.14.0","2","48","trial1","naming","0","0","0","0","to","0","10000","1","White_Screen.jpg","10","51","Toast.jpg","10"
"091219","12:29:08","16","16","5.0.14.0","2","49","trial1","naming","0","0","0","0","bench","0","4923","1","White_Screen.jpg","7","109","Bench_Park.jpg","7"
"091219","12:29:08","16","16","5.0.14.0","2","50","trial1","naming","0","0","0","0","perfume bottle","0","7031","1","White_Screen.jpg","11","87","Perfume.jpg","11"
"091219","12:29:08","16","16","5.0.14.0","2","52","trial1","naming","0","0","0","0","pot","0","9267","1","White_Screen.jpg","9","186","Pot_Crock.jpg","9"
"091219","12:29:08","16","16","5.0.14.0","2","53","trial1","naming","0","0","0","0","gear","0","7987","1","White_Screen.jpg","11","85","BicycleChain.jpg","11"
"091219","12:29:08","16","16","5.0.14.0","2","54","trial1","naming","0","0","0","0","bongos","0","5747","1","White_Screen.jpg","11","147","Drum_Bongos.jpg","11"
"091219","12:29:08","16","16","5.0.14.0","2","55","trial1","naming","0","0","0","0","chocolate bar","0","6301","1","White_Screen.jpg","9","175","ChocolateBar_HalfUnwrapped.jpg","9"
"091219","12:29:08","16","16","5.0.14.0","2","56","trial1","naming","0","0","0","0","car seat","0","6920","1","White_Screen.jpg","11","54","Chair_Car.jpg","11"
"091219","12:29:08","16","16","5.0.14.0","2","57","trial1","naming","0","0","0","0","pita","0","3760","1","White_Screen.jpg","11","66","Bread_Pita.jpg","11"
"091219","12:29:08","16","16","5.0.14.0","2","58","trial1","naming","0","0","0","0","bolt","0","5386","1","White_Screen.jpg","11","149","Bolt.jpg","11"
"091219","12:29:08","16","16","5.0.14.0","2","59","trial1","naming","0","0","0","0","susspenders","0","6206","1","White_Screen.jpg","12","176","Suspenders.jpg","12"
"091219","12:29:08","16","16","5.0.14.0","2","60","trial1","naming","0","0","0","0","oil","0","6398","1","White_Screen.jpg","11","29","Bottle_Oil.jpg","11"
"091219","12:29:08","16","16","5.0.14.0","2","61","trial1","naming","0","0","0","0","briefcase","0","7174","1","White_Screen.jpg","9","165","Briefcase_Silver.jpg","9"
"091219","12:29:08","16","16","5.0.14.0","2","62","trial1","naming","0","0","0","0","rake","0","5180","1","White_Screen.jpg","10","19","Rake_Long.jpg","10"
"091219","12:29:08","16","16","5.0.14.0","2","63","trial1","naming","0","0","0","0","jeans","0","5493","1","White_Screen.jpg","9","42","Pants_Jeans.jpg","9"
"091219","12:29:08","16","16","5.0.14.0","2","64","trial1","naming","0","0","0","0","wooden spoon","0","6381","1","White_Screen.jpg","12","38","Spoon_WoodenLight.jpg","12"
"091219","12:29:08","16","16","5.0.14.0","2","65","trial1","naming","0","0","0","0","playpen","0","6390","1","White_Screen.jpg","10","146","Playard.jpg","10"
"091219","12:29:08","16","16","5.0.14.0","2","66","trial1","naming","0","0","0","0","heart machine","0","8701","1","White_Screen.jpg","10","8","Defribrillator.jpg","10"
"091219","12:29:08","16","16","5.0.14.0","2","67","trial1","naming","0","0","0","0","helicopter","0","5975","1","White_Screen.jpg","10","185","Helicopter.jpg","10"
"091219","12:29:08","16","16","5.0.14.0","2","68","trial1","naming","0","0","0","0","apples","0","5971","1","White_Screen.jpg","11","78","Box_Apples.jpg","11"
"091219","12:29:08","16","16","5.0.14.0","2","69","trial1","naming","0","0","0","0","chalk e","0","10000","1","White_Screen.jpg","13","117","ChalkboardEraser.jpg","13"
"091219","12:29:08","16","16","5.0.14.0","2","70","trial1","naming","0","0","0","0","dresser","0","8677","1","White_Screen.jpg","10","115","Dresser_1.jpg","10"
"091219","12:29:08","16","16","5.0.14.0","2","71","trial1","naming","0","0","0","0","mixer","0","5318","1","White_Screen.jpg","11","55","HandMixer.jpg","11"
"091219","12:29:08","16","16","5.0.14.0","2","72","trial1","naming","0","0","0","0","duster","0","5616","1","White_Screen.jpg","11","35","DusterFeather.jpg","11"
"091219","12:29:08","16","16","5.0.14.0","2","73","trial1","naming","0","0","0","0","knee","0","4352","1","White_Screen.jpg","10","181","Knee.jpg","10"
"091219","12:29:08","16","16","5.0.14.0","2","74","trial1","naming","0","0","0","0","taco","0","5330","1","White_Screen.jpg","13","177","Taco.jpg","13"
"091219","12:29:08","16","16","5.0.14.0","2","75","trial1","naming","0","0","0","0","organizer","0","6449","1","White_Screen.jpg","11","30","Stationary.jpg","11"
"091219","12:29:08","16","16","5.0.14.0","2","76","trial1","naming","0","0","0","0","toolbox","0","4511","1","White_Screen.jpg","8","82","Toolbox_RedOpen.jpg","8"
"091219","12:29:08","16","16","5.0.14.0","2","77","trial1","naming","0","0","0","0","pencil case","0","6542","1","White_Screen.jpg","11","75","PencilCase.jpg","11"
"091219","12:29:08","16","16","5.0.14.0","2","78","trial1","naming","0","0","0","0","Enter Name","0","9","1","White_Screen.jpg","12","199","LeatherPuncherTool.jpg","12"
"091219","12:29:08","16","16","5.0.14.0","2","79","trial1","naming","0","0","0","0","rubber glove","0","8015","1","White_Screen.jpg","9","182","Glove_Rubber.jpg","9"
"091219","12:29:08","16","16","5.0.14.0","2","80","trial1","naming","0","0","0","0","wheel","0","6820","1","White_Screen.jpg","9","124","FireAlarm.jpg","9"
"091219","12:29:08","16","16","5.0.14.0","2","81","trial1","naming","0","0","0","0","toothpick","0","5961","1","White_Screen.jpg","10","141","ToothPick.jpg","10"
"091219","12:29:08","16","16","5.0.14.0","2","82","trial1","naming","0","0","0","0","rim","0","5821","1","White_Screen.jpg","9","2","BicycleWheelRusty.jpg","9"
"091219","12:29:08","16","16","5.0.14.0","2","83","trial1","naming","0","0","0","0","mop & bucket","0","8621","1","White_Screen.jpg","11","169","Cart_Janitor.jpg","11"
"091219","12:29:08","16","16","5.0.14.0","2","84","trial1","naming","0","0","0","0","wine cork","0","6044","1","White_Screen.jpg","10","121","Cork.jpg","10"
"091219","12:29:08","16","16","5.0.14.0","2","85","trial1","naming","0","0","0","0","knee protectors","0","8584","1","White_Screen.jpg","11","33","ShinPads.jpg","11"
"091219","12:29:08","16","16","5.0.14.0","2","86","trial1","naming","0","0","0","0","button","0","4510","1","White_Screen.jpg","11","138","Button.jpg","11"
"091219","12:29:08","16","16","5.0.14.0","2","87","trial1","naming","0","0","0","0","oar","0","4772","1","White_Screen.jpg","9","16","Paddle_Canoe.jpg","9"
"091219","12:29:08","16","16","5.0.14.0","2","88","trial1","naming","0","0","0","0","tennisball","0","7961","1","White_Screen.jpg","10","37","Ball_Tennis.jpg","10"
"091219","12:29:08","16","16","5.0.14.0","2","89","trial1","naming","0","0","0","0","test tubes and holder","0","9833","1","White_Screen.jpg","11","25","TestTube_MultipleAndRack.jpg","11"
"091219","12:29:08","16","16","5.0.14.0","2","90","trial1","naming","0","0","0","0","wastecan","0","6876","1","White_Screen.jpg","13","65","Garbage_Can.jpg","13"
"091219","12:29:08","16","16","5.0.14.0","2","91","trial1","naming","0","0","0","0","lilypad","0","5440","1","White_Screen.jpg","12","151","Lilypad.jpg","12"
"091219","12:29:08","16","16","5.0.14.0","2","92","trial1","naming","0","0","0","0","branch","0","5390","1","White_Screen.jpg","12","111","Branch.jpg","12"
"091219","12:29:08","16","16","5.0.14.0","2","93","trial1","naming","0","0","0","0","chainlink fence","0","8700","1","White_Screen.jpg","13","129","Fence_ChainLink.jpg","13"
"091219","12:29:08","16","16","5.0.14.0","2","94","trial1","naming","0","0","0","0","scissors","0","6071","1","White_Screen.jpg","12","52","Scissors.jpg","12"
"091219","12:29:08","16","16","5.0.14.0","2","95","trial1","naming","0","0","0","0","toy car","0","6589","1","White_Screen.jpg","10","97","Toy_PoliceCar.jpg","10"
"091219","12:29:08","16","16","5.0.14.0","2","96","trial1","naming","0","0","0","0","oil can","0","4701","1","White_Screen.jpg","10","62","Can_OilSpout.jpg","10"
"091219","12:29:08","16","16","5.0.14.0","2","97","trial1","naming","0","0","0","0","movie cameEnter Name","0","10000","1","White_Screen.jpg","14","21","Camera_ProfessionalFilm.jpg","14"
"091219","12:29:08","16","16","5.0.14.0","2","98","trial1","naming","0","0","0","0","glue","0","7204","1","White_Screen.jpg","11","46","Tube_Glue.jpg","11"
"091219","12:29:08","16","16","5.0.14.0","2","99","trial1","naming","0","0","0","0","hammer","0","7108","1","White_Screen.jpg","11","1","Hammer.jpg","11"
"091219","12:29:08","16","16","5.0.14.0","2","100","trial1","naming","0","0","0","0","trailer","0","4340","1","White_Screen.jpg","11","15","BoxTrailer.jpg","11"
"091219","12:29:08","16","16","5.0.14.0","2","101","trial1","naming","0","0","0","0","candy","0","6061","1","White_Screen.jpg","12","86","Toblerone.jpg","12"
"091219","12:29:08","16","16","5.0.14.0","2","103","trial1","naming","0","0","0","0","wading pool","0","7633","1","White_Screen.jpg","9","84","KiddiePool.jpg","9"
"091219","12:29:08","16","16","5.0.14.0","2","104","trial1","naming","0","0","0","0","baseball glove","0","7814","1","White_Screen.jpg","10","173","Glove_Baseball.jpg","10"
"091219","12:29:08","16","16","5.0.14.0","2","105","trial1","naming","0","0","0","0","walker","0","4268","1","White_Screen.jpg","10","125","Walker_Silver.jpg","10"
"091219","12:29:08","16","16","5.0.14.0","2","106","trial1","naming","0","0","0","0","monument","0","6989","1","White_Screen.jpg","12","166","Arch_Triomphe.jpg","12"
"091219","12:29:08","16","16","5.0.14.0","2","107","trial1","naming","0","0","0","0","bowtie","0","5670","1","White_Screen.jpg","10","28","Bowtie.jpg","10"
"091219","12:29:08","16","16","5.0.14.0","2","108","trial1","naming","0","0","0","0","VHS tape","0","9147","1","White_Screen.jpg","11","13","Cassette_Video.jpg","11"
"091219","12:29:08","16","16","5.0.14.0","2","109","trial1","naming","0","0","0","0","golfball","0","6065","1","White_Screen.jpg","9","104","Ball_Golf.jpg","9"
"091219","12:29:08","16","16","5.0.14.0","2","110","trial1","naming","0","0","0","0","grapefruit","0","6846","1","White_Screen.jpg","9","154","OrangeBlood.jpg","9"
"091219","12:29:08","16","16","5.0.14.0","2","111","trial1","naming","0","0","0","0","leash","0","6147","1","White_Screen.jpg","17","150","DogLeash.jpg","17"
"091219","12:29:08","16","16","5.0.14.0","2","112","trial1","naming","0","0","0","0","perfume bottles","0","9853","1","White_Screen.jpg","9","23","Box_Vials.jpg","9"
"091219","12:29:08","16","16","5.0.14.0","2","113","trial1","naming","0","0","0","0","grenade","0","7222","1","White_Screen.jpg","11","187","Grenade.jpg","11"
"091219","12:29:08","16","16","5.0.14.0","2","114","trial1","naming","0","0","0","0","trick or treat bucke","0","10000","1","White_Screen.jpg","10","161","Bucket_Halloween.jpg","10"
"091219","12:29:08","16","16","5.0.14.0","2","115","trial1","naming","0","0","0","0","waffles and fruit","0","9503","1","White_Screen.jpg","8","142","Waffle.jpg","8"
"091219","12:29:08","16","16","5.0.14.0","2","116","trial1","naming","0","0","0","0","hot ","0","10000","1","White_Screen.jpg","9","81","ClothCoaster.jpg","9"
"091219","12:29:08","16","16","5.0.14.0","2","117","trial1","naming","0","0","0","0","cart","0","8911","1","White_Screen.jpg","7","99","Dolly.jpg","7"
"091219","12:29:08","16","16","5.0.14.0","2","118","trial1","naming","0","0","0","0","notorcycle","0","7461","1","White_Screen.jpg","10","90","Motorcycle.jpg","10"
"091219","12:29:08","16","16","5.0.14.0","2","119","trial1","naming","0","0","0","0","flip flop","0","6609","1","White_Screen.jpg","11","158","FlipFlop_SingleRed.jpg","11"
"091219","12:29:08","16","16","5.0.14.0","2","120","trial1","naming","0","0","0","0","blood pressure cuff","0","8670","1","White_Screen.jpg","12","43","BloodpPresureCuff.jpg","12"
"091219","12:29:08","16","16","5.0.14.0","2","121","trial1","naming","0","0","0","0","hamster cage","0","9151","1","White_Screen.jpg","8","39","Cage_Hamster.jpg","8"
"091219","12:29:08","16","16","5.0.14.0","2","122","trial1","naming","0","0","0","0","cash register","0","7471","1","White_Screen.jpg","9","67","CashRegister_Modern.jpg","9"
"091219","12:29:08","16","16","5.0.14.0","2","123","trial1","naming","0","0","0","0","blush brush","0","9036","1","White_Screen.jpg","13","95","Brush_Makeup.jpg","13"
"091219","12:29:08","16","16","5.0.14.0","2","124","trial1","naming","0","0","0","0","icecream cone","0","7244","1","White_Screen.jpg","10","197","IceCreamCone.jpg","10"
"091219","12:29:08","16","16","5.0.14.0","2","125","trial1","naming","0","0","0","0","ear tool","0","7770","1","White_Screen.jpg","10","96","EyeExamDevice.jpg","10"
"091219","12:29:08","16","16","5.0.14.0","2","126","trial1","naming","0","0","0","0","chimp","0","5487","1","White_Screen.jpg","12","53","Chimpanzee.jpg","12"
"091219","12:29:08","16","16","5.0.14.0","2","127","trial1","naming","0","0","0","0","candle holder","0","8558","1","White_Screen.jpg","9","61","Lantern_Tea.jpg","9"
"091219","12:29:08","16","16","5.0.14.0","2","128","trial1","naming","0","0","0","0","satillite","0","7299","1","White_Screen.jpg","10","148","TelescopeSpacecraft.jpg","10"
"091219","12:29:08","16","16","5.0.14.0","2","129","trial1","naming","0","0","0","0","\toy car nter Name","0","10000","1","White_Screen.jpg","9","127","Toy_Car.jpg","9"
"091219","12:29:08","16","16","5.0.14.0","2","130","trial1","naming","0","0","0","0","coat rack","0","8452","1","White_Screen.jpg","11","112","Coatrack.jpg","11"
"091219","12:29:08","16","16","5.0.14.0","2","131","trial1","naming","0","0","0","0","heater","0","5610","1","White_Screen.jpg","10","56","Heater_ElectricPortable.jpg","10"
"091219","12:29:08","16","16","5.0.14.0","2","132","trial1","naming","0","0","0","0","budda","0","6217","1","White_Screen.jpg","9","159","Statue_Buddha.jpg","9"
"091219","12:29:08","16","16","5.0.14.0","2","133","trial1","naming","0","0","0","0","generator","0","6928","1","White_Screen.jpg","9","107","Generator.jpg","9"
"091219","12:29:08","16","16","5.0.14.0","2","134","trial1","naming","0","0","0","0","flute","0","5804","1","White_Screen.jpg","11","57","Flute_Wooden.jpg","11"
"091219","12:29:08","16","16","5.0.14.0","2","135","trial1","naming","0","0","0","0","knife","0","7055","1","White_Screen.jpg","11","119","Knife_Hunting.jpg","11"
"091219","12:29:08","16","16","5.0.14.0","2","136","trial1","naming","0","0","0","0","toy bulldozer","0","9825","1","White_Screen.jpg","10","41","Toy_Tractor_1.jpg","10"
"091219","12:29:08","16","16","5.0.14.0","2","137","trial1","naming","0","0","0","0","tree stump","0","6029","1","White_Screen.jpg","12","14","TreeStump.jpg","12"
"091219","12:29:08","16","16","5.0.14.0","2","138","trial1","naming","0","0","0","0","wallet","0","5699","1","White_Screen.jpg","11","11","Wallet_ClosedBrown.jpg","11"
"091219","12:29:08","16","16","5.0.14.0","2","139","trial1","naming","0","0","0","0","money","0","5112","1","White_Screen.jpg","10","122","MoneyBill50.jpg","10"
"091219","12:29:08","16","16","5.0.14.0","2","140","trial1","naming","0","0","0","0","mask","0","4264","1","White_Screen.jpg","11","133","Mask_VenetianLongNose.jpg","11"
"091219","12:29:08","16","16","5.0.14.0","2","141","trial1","naming","0","0","0","0","sewing machine","0","5376","1","White_Screen.jpg","8","50","SewingMachine.jpg","8"
"091219","12:29:08","16","16","5.0.14.0","2","142","trial1","naming","0","0","0","0","boom box","0","7376","1","White_Screen.jpg","8","9","Radio_Modern.jpg","8"
"091219","12:29:08","16","16","5.0.14.0","2","143","trial1","naming","0","0","0","0","lighthouse","0","7715","1","White_Screen.jpg","11","118","Toy_Lighthouse.jpg","11"
"091219","12:29:08","16","16","5.0.14.0","2","144","trial1","naming","0","0","0","0","shorts","0","5106","1","White_Screen.jpg","15","10","Shorts_Sports.jpg","15"
"091219","12:29:08","16","16","5.0.14.0","2","145","trial1","naming","0","0","0","0","chicker figurine","0","8838","1","White_Screen.jpg","12","189","Toy_Chicken.jpg","12"
"091219","12:29:08","16","16","5.0.14.0","2","146","trial1","naming","0","0","0","0","hot pad","0","9534","1","White_Screen.jpg","10","190","Mitt_Oven.jpg","10"
"091219","12:29:08","16","16","5.0.14.0","2","147","trial1","naming","0","0","0","0","bird","0","5585","1","White_Screen.jpg","8","156","Bird_Tern.jpg","8"
"091219","12:29:08","16","16","5.0.14.0","2","148","trial1","naming","0","0","0","0","hole pucnh","0","7779","1","White_Screen.jpg","13","22","Oneholepunch.jpg","13"
"091219","12:29:08","16","16","5.0.14.0","2","149","trial1","naming","0","0","0","0","pop","0","10000","1","White_Screen.jpg","8","3","ChiliFlakes.jpg","8"
"091219","12:29:08","16","16","5.0.14.0","2","150","trial1","naming","0","0","0","0","basketball net","0","8709","1","White_Screen.jpg","16","152","BasketballHoop.jpg","16"
"091219","12:29:08","16","16","5.0.14.0","2","151","trial1","naming","0","0","0","0","flip flops","0","6997","1","White_Screen.jpg","10","195","FlipFlop_PairBlue.jpg","10"
"091219","12:29:08","16","16","5.0.14.0","2","152","trial1","naming","0","0","0","0","beaker","0","6154","1","White_Screen.jpg","10","134","Beaker.jpg","10"
"091219","12:29:08","16","16","5.0.14.0","2","154","trial1","naming","0","0","0","0","solder wire","0","7832","1","White_Screen.jpg","11","116","SolderingWire.jpg","11"
"091219","12:29:08","16","16","5.0.14.0","2","155","trial1","naming","0","0","0","0","bread machine","0","6727","1","White_Screen.jpg","9","143","Machine_Bread.jpg","9"
"091219","12:29:08","16","16","5.0.14.0","2","156","trial1","naming","0","0","0","0","backpack","0","7487","1","White_Screen.jpg","11","140","Backpack_Suitcase.jpg","11"
"091219","12:29:08","16","16","5.0.14.0","2","157","trial1","naming","0","0","0","0","fuzz shaver","0","9023","1","White_Screen.jpg","14","191","LintRemover.jpg","14"
"091219","12:29:08","16","16","5.0.14.0","2","158","trial1","naming","0","0","0","0","puzzle piece","0","8039","1","White_Screen.jpg","11","69","Puzzle_Piece.jpg","11"
"091219","12:29:08","16","16","5.0.14.0","2","159","trial1","naming","0","0","0","0","hockey equipment","0","9188","1","White_Screen.jpg","11","74","Hockey_Equipment.jpg","11"
"091219","12:29:08","16","16","5.0.14.0","2","160","trial1","naming","0","0","0","0","sheep","0","5396","1","White_Screen.jpg","10","27","Sheep.jpg","10"
"091219","12:29:08","16","16","5.0.14.0","2","161","trial1","naming","0","0","0","0","king tut burial mas","0","10000","1","White_Screen.jpg","10","88","PharoahReplica.jpg","10"
"091219","12:29:08","16","16","5.0.14.0","2","162","trial1","naming","0","0","0","0","bucker","0","6825","1","White_Screen.jpg","9","170","Bucket_WoodenLight.jpg","9"
"091219","12:29:08","16","16","5.0.14.0","2","163","trial1","naming","0","0","0","0","party favor","0","6452","1","White_Screen.jpg","12","184","Noisemaker_Streamers.jpg","12"
"091219","12:29:08","16","16","5.0.14.0","2","164","trial1","naming","0","0","0","0","chinese lantern","0","7095","1","White_Screen.jpg","14","12","Lantern_Chinese.jpg","14"
"091219","12:29:08","16","16","5.0.14.0","2","165","trial1","naming","0","0","0","0","camcorder Enter Name","0","10000","1","White_Screen.jpg","9","162","Camera_Video.jpg","9"
"091219","12:29:08","16","16","5.0.14.0","2","166","trial1","naming","0","0","0","0","coctail","0","6259","1","White_Screen.jpg","10","20","Drink_Cocktail.jpg","10"
"091219","12:29:08","16","16","5.0.14.0","2","167","trial1","naming","0","0","0","0","loofa","0","6382","1","White_Screen.jpg","12","98","Loofa.jpg","12"
"091219","12:29:08","16","16","5.0.14.0","2","168","trial1","naming","0","0","0","0","pizza cutter","0","5944","1","White_Screen.jpg","18","17","PizzaCutter.jpg","18"
"091219","12:29:08","16","16","5.0.14.0","2","169","trial1","naming","0","0","0","0","branchees","0","9705","1","White_Screen.jpg","11","48","Bark.jpg","11"
"091219","12:29:08","16","16","5.0.14.0","2","170","trial1","naming","0","0","0","0","kitchen towel","0","7154","1","White_Screen.jpg","10","34","Towel.jpg","10"
"091219","12:29:08","16","16","5.0.14.0","2","171","trial1","naming","0","0","0","0","oragami bull","0","8321","1","White_Screen.jpg","11","183","Origami_Ox.jpg","11"
"091219","12:29:08","16","16","5.0.14.0","2","172","trial1","naming","0","0","0","0","beetle","0","7596","1","White_Screen.jpg","12","163","Ladybug.jpg","12"
"091219","12:29:08","16","16","5.0.14.0","2","173","trial1","naming","0","0","0","0","junction box","0","9679","1","White_Screen.jpg","13","64","TelephoneSwitchboard.jpg","13"
"091219","12:29:08","16","16","5.0.14.0","2","174","trial1","naming","0","0","0","0","triangle","0","6539","1","White_Screen.jpg","10","92","Triangle.jpg","10"
"091219","12:29:08","16","16","5.0.14.0","2","175","trial1","naming","0","0","0","0","drill bit","0","5877","1","White_Screen.jpg","11","60","DrillBit.jpg","11"
"091219","12:29:08","16","16","5.0.14.0","2","176","trial1","naming","0","0","0","0","mr potato head","0","9529","1","White_Screen.jpg","10","59","Toy_MrPotatoHeadjpg.jpg","10"
"091219","12:29:08","16","16","5.0.14.0","2","177","trial1","naming","0","0","0","0","bib","0","4011","1","White_Screen.jpg","10","126","Bib.jpg","10"
"091219","12:29:08","16","16","5.0.14.0","2","178","trial1","naming","0","0","0","0","mango","0","4978","1","White_Screen.jpg","9","5","Mango.jpg","9"
"091219","12:29:08","16","16","5.0.14.0","2","179","trial1","naming","0","0","0","0","pressure gauge","0","7046","1","White_Screen.jpg","11","32","Gauge.jpg","11"
"091219","12:29:08","16","16","5.0.14.0","2","180","trial1","naming","0","0","0","0","grill","0","4666","1","White_Screen.jpg","13","128","Barbecue_Charcoal.jpg","13"
