date,time,group,subject,build,blocknum,trialnum,blockcode,trialcode,pretrialpause,posttrialpause,trialduration,trialtimeout,response,correct,latency,stimulusnumber1,stimulusitem1,stimulusonset1,stimulusnumber2,stimulusitem2,stimulusonset2
81219,11:13:48,2,2,5.0.14.0,2,1,trial1,naming,0,0,0,0,chinese checkers,0,5529,1,White_Screen.jpg,52,162,Boardgame_ChineseCheckers.jpg,52
81219,11:13:48,2,2,5.0.14.0,2,2,trial1,naming,0,0,0,0,old cell phone,0,4016,1,White_Screen.jpg,17,163,Phone_Wireless.jpg,17
81219,11:13:48,2,2,5.0.14.0,2,3,trial1,naming,0,0,0,0,Ctrl+'Q',1,1411,1,White_Screen.jpg,17,197,PaperShredder.jpg,17
81619,9:55:21,5,5,5.0.14.0,2,1,trial1,naming,0,0,0,0,Enter Name,0,4650,1,White_Screen.jpg,51,69,Hoverboard.jpg,51
81619,9:55:21,5,5,5.0.14.0,2,2,trial1,naming,0,0,0,0,Enter Name,0,1948,1,White_Screen.jpg,17,173,PumpBreast.jpg,17
81619,9:55:21,5,5,5.0.14.0,2,3,trial1,naming,0,0,0,0,Enter Name,0,1404,1,White_Screen.jpg,17,198,SpaceShuttle.jpg,17
81619,9:55:21,5,5,5.0.14.0,2,4,trial1,naming,0,0,0,0,Enter Name,0,1858,1,White_Screen.jpg,18,152,BadgeSpecialAgent.jpg,18
81619,9:55:21,5,5,5.0.14.0,2,5,trial1,naming,0,0,0,0,Ctrl+'Q',1,2333,1,White_Screen.jpg,18,74,Socks_Baby.jpg,18
81619,10:02:50,6,6,5.0.14.0,2,1,trial1,naming,0,0,0,0,bush,0,6738,1,White_Screen.jpg,35,38,Tree_ChristmasMini.jpg,35
81619,10:02:50,6,6,5.0.14.0,2,2,trial1,naming,0,0,0,0,cake,0,3780,1,White_Screen.jpg,6,11,Cake_Birthday.jpg,6
81619,10:02:50,6,6,5.0.14.0,2,3,trial1,naming,0,0,0,0,sign,0,2909,1,White_Screen.jpg,6,170,Sign_TrafficArrow.jpg,6
81619,10:02:50,6,6,5.0.14.0,2,4,trial1,naming,0,0,0,0,toy,0,2976,1,White_Screen.jpg,5,60,Toy_JackInTheBox.jpg,5
81619,10:02:50,6,6,5.0.14.0,2,5,trial1,naming,0,0,0,0,blocks,0,3833,1,White_Screen.jpg,7,165,Toy_Wooden rings.jpg,7
81619,10:02:50,6,6,5.0.14.0,2,6,trial1,naming,0,0,0,0,brush,0,3528,1,White_Screen.jpg,5,54,Brush_Shaving.jpg,5
81619,10:02:50,6,6,5.0.14.0,2,7,trial1,naming,0,0,0,0,blade,0,5978,1,White_Screen.jpg,5,132,Boxcutter.jpg,5
81619,10:02:50,6,6,5.0.14.0,2,8,trial1,naming,0,0,0,0,cabinet,0,3727,1,White_Screen.jpg,7,158,Cabinet_Office.jpg,7
81619,10:02:50,6,6,5.0.14.0,2,9,trial1,naming,0,0,0,0,bowl,0,5252,1,White_Screen.jpg,7,26,Plate_Children.jpg,7
81619,10:02:50,6,6,5.0.14.0,2,10,trial1,naming,0,0,0,0,shoe,0,5462,1,White_Screen.jpg,4,34,Shoe_Highheel.jpg,4
81619,10:02:50,6,6,5.0.14.0,2,11,trial1,naming,0,0,0,0,canteen,0,7326,1,White_Screen.jpg,5,46,Canteen.jpg,5
81619,10:02:50,6,6,5.0.14.0,2,12,trial1,naming,0,0,0,0,mascara,0,5272,1,White_Screen.jpg,5,160,Makeup_Mascara.jpg,5
81619,10:02:50,6,6,5.0.14.0,2,13,trial1,naming,0,0,0,0,shredder,0,3944,1,White_Screen.jpg,5,197,PaperShredder.jpg,5
81619,10:02:50,6,6,5.0.14.0,2,14,trial1,naming,0,0,0,0,office supplies,0,9634,1,White_Screen.jpg,7,65,PenHolder.jpg,7
81619,10:02:50,6,6,5.0.14.0,2,15,trial1,naming,0,0,0,0,tag,0,4887,1,White_Screen.jpg,6,190,LicensePlate.jpg,6
81619,10:02:50,6,6,5.0.14.0,2,16,trial1,naming,0,0,0,0,Enter Name,0,10000,1,White_Screen.jpg,5,17,Gametable_AirHockey.jpg,5
81619,10:02:50,6,6,5.0.14.0,2,17,trial1,naming,0,0,0,0,scroll,0,6758,1,White_Screen.jpg,6,90,Scroll.jpg,6
81619,10:02:50,6,6,5.0.14.0,2,18,trial1,naming,0,0,0,0,soap dish,0,5661,1,White_Screen.jpg,6,27,SoapDish.jpg,6
81619,10:02:50,6,6,5.0.14.0,2,19,trial1,naming,0,0,0,0,shell,0,3243,1,White_Screen.jpg,7,157,Seashell_AlternateTellin.jpg,7
81619,10:02:50,6,6,5.0.14.0,2,20,trial1,naming,0,0,0,0,grate,0,3598,1,White_Screen.jpg,6,5,GrillRack.jpg,6
81619,10:02:50,6,6,5.0.14.0,2,21,trial1,naming,0,0,0,0,box,0,2992,1,White_Screen.jpg,6,93,Box_Floral.jpg,6
81619,10:02:50,6,6,5.0.14.0,2,22,trial1,naming,0,0,0,0,mat,0,2956,1,White_Screen.jpg,6,131,Mat_Bamboo.jpg,6
81619,10:02:50,6,6,5.0.14.0,2,23,trial1,naming,0,0,0,0,kabob,0,4571,1,White_Screen.jpg,6,168,Kebab_Vegetables.jpg,6
81619,10:02:50,6,6,5.0.14.0,2,24,trial1,naming,0,0,0,0,crutches,0,3779,1,White_Screen.jpg,9,182,Crutches.jpg,9
81619,10:02:50,6,6,5.0.14.0,2,25,trial1,naming,0,0,0,0,can opener,0,5474,1,White_Screen.jpg,6,192,CanOpener.jpg,6
81619,10:02:50,6,6,5.0.14.0,2,26,trial1,naming,0,0,0,0,aspargus,0,4952,1,White_Screen.jpg,5,105,Asparagus.jpg,5
81619,10:02:50,6,6,5.0.14.0,2,27,trial1,naming,0,0,0,0,beef kabobs,0,8364,1,White_Screen.jpg,6,172,Kebab_Meat.jpg,6
81619,10:02:50,6,6,5.0.14.0,2,28,trial1,naming,0,0,0,0,dish,0,4119,1,White_Screen.jpg,6,164,ButterDish.jpg,6
81619,10:02:50,6,6,5.0.14.0,2,29,trial1,naming,0,0,0,0,breating mask,0,8672,1,White_Screen.jpg,5,28,Mask_CPR.jpg,5
81619,10:02:50,6,6,5.0.14.0,2,30,trial1,naming,0,0,0,0,aisprin,0,4249,1,White_Screen.jpg,5,91,PillBottle_Closed.jpg,5
81619,10:02:50,6,6,5.0.14.0,2,31,trial1,naming,0,0,0,0,clam,0,2842,1,White_Screen.jpg,6,181,Clam.jpg,6
81619,10:02:50,6,6,5.0.14.0,2,32,trial1,naming,0,0,0,0,spatula,0,4585,1,White_Screen.jpg,6,92,Spatula.jpg,6
81619,10:02:50,6,6,5.0.14.0,2,33,trial1,naming,0,0,0,0,breast pump,0,7292,1,White_Screen.jpg,4,173,PumpBreast.jpg,4
81619,10:02:50,6,6,5.0.14.0,2,34,trial1,naming,0,0,0,0,watermelon,0,4332,1,White_Screen.jpg,6,31,WatermelonSlice.jpg,6
81619,10:02:50,6,6,5.0.14.0,2,35,trial1,naming,0,0,0,0,canister,0,4747,1,White_Screen.jpg,8,61,MilkJug.jpg,8
81619,10:02:50,6,6,5.0.14.0,2,36,trial1,naming,0,0,0,0,panda,0,3349,1,White_Screen.jpg,5,22,Panda.jpg,5
81619,10:02:50,6,6,5.0.14.0,2,37,trial1,naming,0,0,0,0,domino,0,3985,1,White_Screen.jpg,8,73,Domino.jpg,8
81619,10:02:50,6,6,5.0.14.0,2,38,trial1,naming,0,0,0,0,clothes pis,0,5233,1,White_Screen.jpg,5,20,Clothespin_Red.jpg,5
81619,10:02:50,6,6,5.0.14.0,2,39,trial1,naming,0,0,0,0,hair clip,0,5661,1,White_Screen.jpg,5,141,HairClip.jpg,5
81619,10:02:50,6,6,5.0.14.0,2,40,trial1,naming,0,0,0,0,nail polish,0,6897,1,White_Screen.jpg,8,133,NailPolish.jpg,8
81619,10:02:50,6,6,5.0.14.0,2,41,trial1,naming,0,0,0,0,fruit,0,3724,1,White_Screen.jpg,5,64,PassionFruit.jpg,5
81619,10:02:50,6,6,5.0.14.0,2,42,trial1,naming,0,0,0,0,screw,0,3063,1,White_Screen.jpg,7,83,Screw.jpg,7
81619,10:02:50,6,6,5.0.14.0,2,43,trial1,naming,0,0,0,0,chinese checkers,0,7617,1,White_Screen.jpg,8,162,Boardgame_ChineseCheckers.jpg,8
81619,10:02:50,6,6,5.0.14.0,2,44,trial1,naming,0,0,0,0,wreath,0,4801,1,White_Screen.jpg,6,187,Wreath.jpg,6
81619,10:02:50,6,6,5.0.14.0,2,45,trial1,naming,0,0,0,0,bowl,0,4307,1,White_Screen.jpg,8,10,ContactLens.jpg,8
81619,10:02:50,6,6,5.0.14.0,2,46,trial1,naming,0,0,0,0,goat,0,2621,1,White_Screen.jpg,7,6,Goat.jpg,7
81619,10:02:50,6,6,5.0.14.0,2,47,trial1,naming,0,0,0,0,flour,0,4392,1,White_Screen.jpg,9,186,Bag_PaperWithFlour.jpg,9
81619,10:02:50,6,6,5.0.14.0,2,48,trial1,naming,0,0,0,0,gum,0,4573,1,White_Screen.jpg,6,178,ChewingGum.jpg,6
81619,10:02:50,6,6,5.0.14.0,2,49,trial1,naming,0,0,0,0,gameboy,0,5917,1,White_Screen.jpg,6,159,Gameboy.jpg,6
81619,10:02:50,6,6,5.0.14.0,2,50,trial1,naming,0,0,0,0,game console,0,8601,1,White_Screen.jpg,4,13,Centrifuge.jpg,4
81619,10:02:50,6,6,5.0.14.0,2,52,trial1,naming,0,0,0,0,arrow,0,6601,1,White_Screen.jpg,4,196,Archery_ArrowsBows.jpg,4
81619,10:02:50,6,6,5.0.14.0,2,53,trial1,naming,0,0,0,0,gloves,0,3128,1,White_Screen.jpg,7,68,Gloves_WhiteKnit.jpg,7
81619,10:02:50,6,6,5.0.14.0,2,54,trial1,naming,0,0,0,0,knee brace,0,9072,1,White_Screen.jpg,8,89,Brace_Leg.jpg,8
81619,10:02:50,6,6,5.0.14.0,2,55,trial1,naming,0,0,0,0,clip,0,6143,1,White_Screen.jpg,8,96,CigarCutter.jpg,8
81619,10:02:50,6,6,5.0.14.0,2,56,trial1,naming,0,0,0,0,brush,0,3883,1,White_Screen.jpg,8,145,Brush_BathBack.jpg,8
81619,10:02:50,6,6,5.0.14.0,2,57,trial1,naming,0,0,0,0,coffin,0,3015,1,White_Screen.jpg,6,62,CasketOpen.jpg,6
81619,10:02:50,6,6,5.0.14.0,2,58,trial1,naming,0,0,0,0,rock,0,3603,1,White_Screen.jpg,6,156,GoldNugget.jpg,6
81619,10:02:50,6,6,5.0.14.0,2,59,trial1,naming,0,0,0,0,three,0,4641,1,White_Screen.jpg,4,78,Magnet_Three.jpg,4
81619,10:02:50,6,6,5.0.14.0,2,60,trial1,naming,0,0,0,0,card,0,3263,1,White_Screen.jpg,5,120,Card_TwoSpade.jpg,5
81619,10:02:50,6,6,5.0.14.0,2,61,trial1,naming,0,0,0,0,crobar,0,5226,1,White_Screen.jpg,6,53,Crowbar.jpg,6
81619,10:02:50,6,6,5.0.14.0,2,62,trial1,naming,0,0,0,0,dinosaur,0,5997,1,White_Screen.jpg,7,125,Toy_DinosaurBrontosaurus.jpg,7
81619,10:02:50,6,6,5.0.14.0,2,63,trial1,naming,0,0,0,0,cell ,0,10000,1,White_Screen.jpg,8,163,Phone_Wireless.jpg,8
81619,10:02:50,6,6,5.0.14.0,2,64,trial1,naming,0,0,0,0,wood box,0,5691,1,White_Screen.jpg,5,40,Box_WoodCrate.jpg,5
81619,10:02:50,6,6,5.0.14.0,2,65,trial1,naming,0,0,0,0,dress,0,5040,1,White_Screen.jpg,5,113,Dress_Party.jpg,5
81619,10:02:50,6,6,5.0.14.0,2,66,trial1,naming,0,0,0,0,cane,0,7337,1,White_Screen.jpg,5,129,Cane_Metal.jpg,5
81619,10:02:50,6,6,5.0.14.0,2,67,trial1,naming,0,0,0,0,toy box,0,3736,1,White_Screen.jpg,6,115,Chest_Toys.jpg,6
81619,10:02:50,6,6,5.0.14.0,2,68,trial1,naming,0,0,0,0,knee,0,10000,1,White_Screen.jpg,5,33,Hammer_Reflex.jpg,5
81619,10:02:50,6,6,5.0.14.0,2,69,trial1,naming,0,0,0,0,earing,0,4066,1,White_Screen.jpg,6,138,Earring_Hoop.jpg,6
81619,10:02:50,6,6,5.0.14.0,2,70,trial1,naming,0,0,0,0,backhoe,0,7839,1,White_Screen.jpg,6,4,Tractor_Yellow.jpg,6
81619,10:02:50,6,6,5.0.14.0,2,71,trial1,naming,0,0,0,0,coral,0,3132,1,White_Screen.jpg,10,166,Coral.jpg,10
81619,10:02:50,6,6,5.0.14.0,2,72,trial1,naming,0,0,0,0,tooth mirror,0,7356,1,White_Screen.jpg,6,86,Mirror_Dental.jpg,6
81619,10:02:50,6,6,5.0.14.0,2,73,trial1,naming,0,0,0,0,dress,0,6835,1,White_Screen.jpg,5,118,Dress_Blue.jpg,5
81619,10:02:50,6,6,5.0.14.0,2,74,trial1,naming,0,0,0,0,pens,0,3514,1,White_Screen.jpg,5,149,PenStand.jpg,5
81619,10:02:50,6,6,5.0.14.0,2,75,trial1,naming,0,0,0,0,sword,0,6476,1,White_Screen.jpg,7,30,Sword.jpg,7
81619,10:02:50,6,6,5.0.14.0,2,76,trial1,naming,0,0,0,0,roller coaster,0,6893,1,White_Screen.jpg,7,134,RollerCoaster.jpg,7
81619,10:02:50,6,6,5.0.14.0,2,77,trial1,naming,0,0,0,0,fountain,0,5073,1,White_Screen.jpg,6,153,DrinkingFountain.jpg,6
81619,10:02:50,6,6,5.0.14.0,2,78,trial1,naming,0,0,0,0,teapot,0,7539,1,White_Screen.jpg,7,99,Teapot.jpg,7
81619,10:02:50,6,6,5.0.14.0,2,79,trial1,naming,0,0,0,0,flashlgih,0,4532,1,White_Screen.jpg,6,174,Flashlight.jpg,6
81619,10:02:50,6,6,5.0.14.0,2,80,trial1,naming,0,0,0,0,strainer,0,4119,1,White_Screen.jpg,5,39,Colander.jpg,5
81619,10:02:50,6,6,5.0.14.0,2,81,trial1,naming,0,0,0,0,paper,0,8877,1,White_Screen.jpg,4,75,PaperStack.jpg,4
81619,10:02:50,6,6,5.0.14.0,2,82,trial1,naming,0,0,0,0,gate,0,3450,1,White_Screen.jpg,7,77,GatedEntrance.jpg,7
81619,10:02:50,6,6,5.0.14.0,2,83,trial1,naming,0,0,0,0,scooper,0,3628,1,White_Screen.jpg,5,154,LitterScoop.jpg,5
81619,10:02:50,6,6,5.0.14.0,2,84,trial1,naming,0,0,0,0,knofe,0,3608,1,White_Screen.jpg,9,139,Scalpel.jpg,9
81619,10:02:50,6,6,5.0.14.0,2,85,trial1,naming,0,0,0,0,cigars,0,3486,1,White_Screen.jpg,7,171,CigarCase.jpg,7
81619,10:02:50,6,6,5.0.14.0,2,86,trial1,naming,0,0,0,0,Enter Name,0,10000,1,White_Screen.jpg,6,195,TigerWhite.jpg,6
81619,10:02:50,6,6,5.0.14.0,2,87,trial1,naming,0,0,0,0,paddle,0,5540,1,White_Screen.jpg,4,12,Paddle_Beach.jpg,4
81619,10:02:50,6,6,5.0.14.0,2,88,trial1,naming,0,0,0,0,toy,0,4516,1,White_Screen.jpg,7,183,Toy_DollOffice.jpg,7
81619,10:02:50,6,6,5.0.14.0,2,89,trial1,naming,0,0,0,0,sphinx,0,4262,1,White_Screen.jpg,7,151,Sphinx.jpg,7
81619,10:02:50,6,6,5.0.14.0,2,90,trial1,naming,0,0,0,0,ship,0,2903,1,White_Screen.jpg,7,102,Boat_Ferry.jpg,7
81619,10:02:50,6,6,5.0.14.0,2,91,trial1,naming,0,0,0,0,paint set,0,7397,1,White_Screen.jpg,6,116,PaintRollTray.jpg,6
81619,10:02:50,6,6,5.0.14.0,2,92,trial1,naming,0,0,0,0,top,0,3601,1,White_Screen.jpg,6,199,Toy_Top.jpg,6
81619,10:02:50,6,6,5.0.14.0,2,93,trial1,naming,0,0,0,0,doll,0,4607,1,White_Screen.jpg,5,35,Doll_Rag.jpg,5
81619,10:02:50,6,6,5.0.14.0,2,94,trial1,naming,0,0,0,0,brush,0,4900,1,White_Screen.jpg,7,44,Brush_Cleaning.jpg,7
81619,10:02:50,6,6,5.0.14.0,2,95,trial1,naming,0,0,0,0,fuel tank,0,7816,1,White_Screen.jpg,6,98,Stove_Propane.jpg,6
81619,10:02:50,6,6,5.0.14.0,2,96,trial1,naming,0,0,0,0,crib,0,3813,1,White_Screen.jpg,4,150,Crib_Standard.jpg,4
81619,10:02:50,6,6,5.0.14.0,2,97,trial1,naming,0,0,0,0,alarm,0,4725,1,White_Screen.jpg,6,14,AlarmSystem.jpg,6
81619,10:02:50,6,6,5.0.14.0,2,98,trial1,naming,0,0,0,0,fire hydrant,0,4674,1,White_Screen.jpg,5,72,FireHydrant.jpg,5
81619,10:02:50,6,6,5.0.14.0,2,99,trial1,naming,0,0,0,0,jacket,0,3060,1,White_Screen.jpg,6,144,Jacket_Jean.jpg,6
81619,10:02:50,6,6,5.0.14.0,2,100,trial1,naming,0,0,0,0,deer,0,4908,1,White_Screen.jpg,5,184,Nyala.jpg,5
81619,10:02:50,6,6,5.0.14.0,2,101,trial1,naming,0,0,0,0,credenza,0,6286,1,White_Screen.jpg,9,36,Cabinet_Display.jpg,9
81619,10:02:50,6,6,5.0.14.0,2,103,trial1,naming,0,0,0,0,spine,0,3602,1,White_Screen.jpg,7,109,SpinalCord.jpg,7
81619,10:02:50,6,6,5.0.14.0,2,104,trial1,naming,0,0,0,0,hay,0,2716,1,White_Screen.jpg,6,25,Hay.jpg,6
81619,10:02:50,6,6,5.0.14.0,2,105,trial1,naming,0,0,0,0,pasta,0,2589,1,White_Screen.jpg,8,185,Pasta_Fettuccine.jpg,8
81619,10:02:50,6,6,5.0.14.0,2,106,trial1,naming,0,0,0,0,giraffe,0,3295,1,White_Screen.jpg,5,24,Giraffe.jpg,5
81619,10:02:50,6,6,5.0.14.0,2,107,trial1,naming,0,0,0,0,clock,0,3207,1,White_Screen.jpg,6,32,Clock_Grandfather.jpg,6
81619,10:02:50,6,6,5.0.14.0,2,108,trial1,naming,0,0,0,0,deoderant,0,4462,1,White_Screen.jpg,6,167,Deodorant.jpg,6
81619,10:02:50,6,6,5.0.14.0,2,109,trial1,naming,0,0,0,0,vase,0,5288,1,White_Screen.jpg,8,16,Jug_Wicker.jpg,8
81619,10:02:50,6,6,5.0.14.0,2,110,trial1,naming,0,0,0,0,hockey stick,0,5978,1,White_Screen.jpg,5,193,Stick_IceHockey.jpg,5
81619,10:02:50,6,6,5.0.14.0,2,111,trial1,naming,0,0,0,0,sail boat,0,6384,1,White_Screen.jpg,9,179,Boat_Sail.jpg,9
81619,10:02:50,6,6,5.0.14.0,2,112,trial1,naming,0,0,0,0,armor,0,4291,1,White_Screen.jpg,8,123,Helmet_Knight.jpg,8
81619,10:02:50,6,6,5.0.14.0,2,113,trial1,naming,0,0,0,0,basketball,0,4701,1,White_Screen.jpg,5,104,Ball_Basketball.jpg,5
81619,10:02:50,6,6,5.0.14.0,2,114,trial1,naming,0,0,0,0,tank,0,4317,1,White_Screen.jpg,6,67,Toy_Tank.jpg,6
81619,10:02:50,6,6,5.0.14.0,2,115,trial1,naming,0,0,0,0,dragon fly,0,4461,1,White_Screen.jpg,6,94,Dragonfly.jpg,6
81619,10:02:50,6,6,5.0.14.0,2,116,trial1,naming,0,0,0,0,dream catcher,0,5980,1,White_Screen.jpg,7,47,Dreamcatcher.jpg,7
81619,10:02:50,6,6,5.0.14.0,2,117,trial1,naming,0,0,0,0,clippers,0,3710,1,White_Screen.jpg,8,106,HairClipper.jpg,8
81619,10:02:50,6,6,5.0.14.0,2,118,trial1,naming,0,0,0,0,gutter,0,2915,1,White_Screen.jpg,7,112,GutterAndDrainPipe.jpg,7
81619,10:02:50,6,6,5.0.14.0,2,119,trial1,naming,0,0,0,0,horseshoe crab,0,6390,1,White_Screen.jpg,6,50,HorseshoeCrab.jpg,6
81619,10:02:50,6,6,5.0.14.0,2,120,trial1,naming,0,0,0,0,slipper,0,2922,1,White_Screen.jpg,6,175,Slippers.jpg,6
81619,10:02:50,6,6,5.0.14.0,2,121,trial1,naming,0,0,0,0,gift,0,3224,1,White_Screen.jpg,5,122,Box_Present.jpg,5
81619,10:02:50,6,6,5.0.14.0,2,122,trial1,naming,0,0,0,0,bag,0,4999,1,White_Screen.jpg,9,56,Bag_Gift.jpg,9
81619,10:02:50,6,6,5.0.14.0,2,123,trial1,naming,0,0,0,0,water can,0,5874,1,White_Screen.jpg,5,43,WateringCan_Antique.jpg,5
81619,10:02:50,6,6,5.0.14.0,2,124,trial1,naming,0,0,0,0,blank,0,8083,1,White_Screen.jpg,5,137,White_Screen.jpg,5
81619,10:02:50,6,6,5.0.14.0,2,125,trial1,naming,0,0,0,0,rocket,0,3738,1,White_Screen.jpg,5,198,SpaceShuttle.jpg,5
81619,10:02:50,6,6,5.0.14.0,2,126,trial1,naming,0,0,0,0,sled,0,5965,1,White_Screen.jpg,6,140,Sled.jpg,6
81619,10:02:50,6,6,5.0.14.0,2,127,trial1,naming,0,0,0,0,booties,0,5210,1,White_Screen.jpg,5,74,Socks_Baby.jpg,5
81619,10:02:50,6,6,5.0.14.0,2,128,trial1,naming,0,0,0,0,ladbug,0,4382,1,White_Screen.jpg,9,49,Toy_Ladybug.jpg,9
81619,10:02:50,6,6,5.0.14.0,2,129,trial1,naming,0,0,0,0,line tape,0,7671,1,White_Screen.jpg,4,155,PoliceTape.jpg,4
81619,10:02:50,6,6,5.0.14.0,2,130,trial1,naming,0,0,0,0,bag,0,4823,1,White_Screen.jpg,5,126,Makeup_Bag.jpg,5
81619,10:02:50,6,6,5.0.14.0,2,131,trial1,naming,0,0,0,0,lock,0,2806,1,White_Screen.jpg,5,70,Lock_Key.jpg,5
81619,10:02:50,6,6,5.0.14.0,2,132,trial1,naming,0,0,0,0,dog house,0,4035,1,White_Screen.jpg,5,107,DogHouse.jpg,5
81619,10:02:50,6,6,5.0.14.0,2,133,trial1,naming,0,0,0,0,truck,0,5810,1,White_Screen.jpg,5,180,Toy_Firetruck.jpg,5
81619,10:02:50,6,6,5.0.14.0,2,134,trial1,naming,0,0,0,0,desk,0,8821,1,White_Screen.jpg,6,191,Table_Magazine.jpg,6
81619,10:02:50,6,6,5.0.14.0,2,135,trial1,naming,0,0,0,0,bagpipe,0,8345,1,White_Screen.jpg,6,146,Bagpipes.jpg,6
81619,10:02:50,6,6,5.0.14.0,2,136,trial1,naming,0,0,0,0,basket,0,3960,1,White_Screen.jpg,6,124,Basket_Straw.jpg,6
81619,10:02:50,6,6,5.0.14.0,2,137,trial1,naming,0,0,0,0,cattapilar,0,5340,1,White_Screen.jpg,8,42,Caterpillar.jpg,8
81619,10:02:50,6,6,5.0.14.0,2,138,trial1,naming,0,0,0,0,waste basket,0,5184,1,White_Screen.jpg,7,15,Cup_Bathroom.jpg,7
81619,10:02:50,6,6,5.0.14.0,2,139,trial1,naming,0,0,0,0,hose spout,0,6435,1,White_Screen.jpg,4,100,Faucet.jpg,4
81619,10:02:50,6,6,5.0.14.0,2,140,trial1,naming,0,0,0,0,pretzel,0,4587,1,White_Screen.jpg,4,101,Pretzel_Knot.jpg,4
81619,10:02:50,6,6,5.0.14.0,2,141,trial1,naming,0,0,0,0,medical tools,0,6732,1,White_Screen.jpg,5,128,Tray_Medical.jpg,5
81619,10:02:50,6,6,5.0.14.0,2,142,trial1,naming,0,0,0,0,button,0,4080,1,White_Screen.jpg,5,127,ComputerKeyboard_F1.jpg,5
81619,10:02:50,6,6,5.0.14.0,2,143,trial1,naming,0,0,0,0,bottle,0,4275,1,White_Screen.jpg,8,82,Jug_GallonWhite.jpg,8
81619,10:02:50,6,6,5.0.14.0,2,144,trial1,naming,0,0,0,0,drum sticks,0,5532,1,White_Screen.jpg,6,142,Stick_Drum.jpg,6
81619,10:02:50,6,6,5.0.14.0,2,145,trial1,naming,0,0,0,0,switch,0,5650,1,White_Screen.jpg,4,130,Switch_LightWhite.jpg,4
81619,10:02:50,6,6,5.0.14.0,2,146,trial1,naming,0,0,0,0,bouquet,0,5834,1,White_Screen.jpg,6,63,Flowers_DryBouquet.jpg,6
81619,10:02:50,6,6,5.0.14.0,2,147,trial1,naming,0,0,0,0,laces,0,4415,1,White_Screen.jpg,5,21,ShoeLace_Flat.jpg,5
81619,10:02:50,6,6,5.0.14.0,2,148,trial1,naming,0,0,0,0,boat,0,3306,1,White_Screen.jpg,5,71,Toy_Boat.jpg,5
81619,10:02:50,6,6,5.0.14.0,2,149,trial1,naming,0,0,0,0,stool,0,2650,1,White_Screen.jpg,5,66,Stool_Wood.jpg,5
81619,10:02:50,6,6,5.0.14.0,2,150,trial1,naming,0,0,0,0,stamp,0,2461,1,White_Screen.jpg,6,8,Stamp.jpg,6
81619,10:02:50,6,6,5.0.14.0,2,151,trial1,naming,0,0,0,0,mop,0,2285,1,White_Screen.jpg,7,29,Mop.jpg,7
81619,10:02:50,6,6,5.0.14.0,2,152,trial1,naming,0,0,0,0,short,0,2944,1,White_Screen.jpg,4,80,Shorts_Plaid.jpg,4
81619,10:02:50,6,6,5.0.14.0,2,154,trial1,naming,0,0,0,0,phone,0,4401,1,White_Screen.jpg,4,1,Telephone_DialAntique.jpg,4
81619,10:02:50,6,6,5.0.14.0,2,155,trial1,naming,0,0,0,0,plug,0,5599,1,White_Screen.jpg,4,121,VGAport.jpg,4
81619,10:02:50,6,6,5.0.14.0,2,156,trial1,naming,0,0,0,0,washer,0,4938,1,White_Screen.jpg,7,48,WashingMachine.jpg,7
81619,10:02:50,6,6,5.0.14.0,2,157,trial1,naming,0,0,0,0,baram,0,10000,1,White_Screen.jpg,7,59,Barometer.jpg,7
81619,10:02:50,6,6,5.0.14.0,2,158,trial1,naming,0,0,0,0,droper,0,6980,1,White_Screen.jpg,4,18,Baster.jpg,4
81619,10:02:50,6,6,5.0.14.0,2,159,trial1,naming,0,0,0,0,heater,0,3774,1,White_Screen.jpg,6,2,WaterHeater.jpg,6
81619,10:02:50,6,6,5.0.14.0,2,160,trial1,naming,0,0,0,0,wheeler,0,4696,1,White_Screen.jpg,5,7,MobilityScooter.jpg,5
81619,10:02:50,6,6,5.0.14.0,2,161,trial1,naming,0,0,0,0,orange,0,4206,1,White_Screen.jpg,7,200,Fruit_Orange.jpg,7
81619,10:02:50,6,6,5.0.14.0,2,162,trial1,naming,0,0,0,0,battery,0,3509,1,White_Screen.jpg,5,19,Battery_Car.jpg,5
81619,10:02:50,6,6,5.0.14.0,2,163,trial1,naming,0,0,0,0,helmet,0,4621,1,White_Screen.jpg,6,51,Helmet_Construction.jpg,6
81619,10:02:50,6,6,5.0.14.0,2,164,trial1,naming,0,0,0,0,jumper cables,0,5132,1,White_Screen.jpg,6,81,Cable_JumpStart.jpg,6
81619,10:02:50,6,6,5.0.14.0,2,165,trial1,naming,0,0,0,0,motor bike,0,4522,1,White_Screen.jpg,8,176,Toy_Motorcycle.jpg,8
81619,10:02:50,6,6,5.0.14.0,2,166,trial1,naming,0,0,0,0,chess piece,0,5660,1,White_Screen.jpg,5,95,ChessPiece_Knight.jpg,5
81619,10:02:50,6,6,5.0.14.0,2,167,trial1,naming,0,0,0,0,propane,0,5318,1,White_Screen.jpg,6,147,Stove_Camping.jpg,6
81619,10:02:50,6,6,5.0.14.0,2,168,trial1,naming,0,0,0,0,dresser,0,3338,1,White_Screen.jpg,5,108,Dresser.jpg,5
81619,10:02:50,6,6,5.0.14.0,2,169,trial1,naming,0,0,0,0,chicken,0,4983,1,White_Screen.jpg,5,84,Bird_Hen.jpg,5
81619,10:02:50,6,6,5.0.14.0,2,170,trial1,naming,0,0,0,0,floss,0,6211,1,White_Screen.jpg,4,136,DentalFloss.jpg,4
81619,10:02:50,6,6,5.0.14.0,2,171,trial1,naming,0,0,0,0,street cleaner,0,6639,1,White_Screen.jpg,7,148,StreetSweeper.jpg,7
81619,10:02:50,6,6,5.0.14.0,2,172,trial1,naming,0,0,0,0,paint,0,3323,1,White_Screen.jpg,6,194,PaintCan.jpg,6
81619,10:02:50,6,6,5.0.14.0,2,173,trial1,naming,0,0,0,0,divider,0,3757,1,White_Screen.jpg,5,135,FileDivider.jpg,5
81619,10:02:50,6,6,5.0.14.0,2,174,trial1,naming,0,0,0,0,stove,0,2689,1,White_Screen.jpg,6,52,Oven.jpg,6
81619,10:02:50,6,6,5.0.14.0,2,175,trial1,naming,0,0,0,0,ribbon,0,4275,1,White_Screen.jpg,5,111,RibbonSpool.jpg,5
81619,10:02:50,6,6,5.0.14.0,2,176,trial1,naming,0,0,0,0,tool box,0,5908,1,White_Screen.jpg,9,85,Toolbox_Old.jpg,9
81619,10:02:50,6,6,5.0.14.0,2,177,trial1,naming,0,0,0,0,weight,0,2834,1,White_Screen.jpg,6,58,Weights_Dumbells.jpg,6
81619,10:02:50,6,6,5.0.14.0,2,178,trial1,naming,0,0,0,0,book,0,2641,1,White_Screen.jpg,5,45,Book_Leather.jpg,5
81619,10:02:50,6,6,5.0.14.0,2,179,trial1,naming,0,0,0,0,candle holder,0,5555,1,White_Screen.jpg,6,23,Candleholder_Tall.jpg,6
81619,10:02:50,6,6,5.0.14.0,2,180,trial1,naming,0,0,0,0,nail file,0,5449,1,White_Screen.jpg,5,119,NailFiles.jpg,5
81619,10:02:50,6,6,5.0.14.0,2,181,trial1,naming,0,0,0,0,paddle,0,3594,1,White_Screen.jpg,8,88,Paddle_PingPong.jpg,8
81619,10:02:50,6,6,5.0.14.0,2,182,trial1,naming,0,0,0,0,umbrella,0,3347,1,White_Screen.jpg,8,79,Umbrella_Retractable.jpg,8
81619,10:02:50,6,6,5.0.14.0,2,183,trial1,naming,0,0,0,0,saw,0,2241,1,White_Screen.jpg,7,161,Saw.jpg,7
81619,10:02:50,6,6,5.0.14.0,2,184,trial1,naming,0,0,0,0,chicken,0,3050,1,White_Screen.jpg,5,87,TurkeyDinner.jpg,5
81619,10:02:50,6,6,5.0.14.0,2,185,trial1,naming,0,0,0,0,scooter,0,3842,1,White_Screen.jpg,6,69,Hoverboard.jpg,6
81619,10:02:50,6,6,5.0.14.0,2,186,trial1,naming,0,0,0,0,toy,0,2716,1,White_Screen.jpg,6,41,Toy_ModelMolecule.jpg,6
81619,10:02:50,6,6,5.0.14.0,2,187,trial1,naming,0,0,0,0,trailer,0,4891,1,White_Screen.jpg,5,3,Toy_TrailerAirport.jpg,5
81619,10:02:50,6,6,5.0.14.0,2,188,trial1,naming,0,0,0,0,ball,0,3002,1,White_Screen.jpg,6,169,Glass_Ball.jpg,6
81619,10:02:50,6,6,5.0.14.0,2,189,trial1,naming,0,0,0,0,lock,0,5115,1,White_Screen.jpg,4,188,CodeDoorLock.jpg,4
81619,10:02:50,6,6,5.0.14.0,2,190,trial1,naming,0,0,0,0,hairnet,0,4124,1,White_Screen.jpg,6,114,ShowerCap.jpg,6
81619,10:02:50,6,6,5.0.14.0,2,191,trial1,naming,0,0,0,0,badge,0,3393,1,White_Screen.jpg,5,152,BadgeSpecialAgent.jpg,5
81619,10:02:50,6,6,5.0.14.0,2,192,trial1,naming,0,0,0,0,bucket,0,3757,1,White_Screen.jpg,5,9,Bucket_Rusty.jpg,5
81619,10:02:50,6,6,5.0.14.0,2,193,trial1,naming,0,0,0,0,hat,0,3118,1,White_Screen.jpg,7,177,Yarmulke.jpg,7
81619,10:02:50,6,6,5.0.14.0,2,194,trial1,naming,0,0,0,0,tray,0,3680,1,White_Screen.jpg,6,57,Tray_Wooden.jpg,6
81619,10:02:50,6,6,5.0.14.0,2,195,trial1,naming,0,0,0,0,mask,0,2702,1,White_Screen.jpg,7,189,Mask_Gas.jpg,7
81619,10:02:50,6,6,5.0.14.0,2,196,trial1,naming,0,0,0,0,bleachers,0,4403,1,White_Screen.jpg,5,76,Bleachers.jpg,5
81619,10:02:50,6,6,5.0.14.0,2,197,trial1,naming,0,0,0,0,macaroni,0,5956,1,White_Screen.jpg,5,143,Pasta_Macaroni.jpg,5
81619,10:02:50,6,6,5.0.14.0,2,198,trial1,naming,0,0,0,0,tie,0,2383,1,White_Screen.jpg,5,103,Tie.jpg,5
81619,10:02:50,6,6,5.0.14.0,2,199,trial1,naming,0,0,0,0,recorder,0,3356,1,White_Screen.jpg,5,117,Clock_Radioalarm.jpg,5
81619,10:02:50,6,6,5.0.14.0,2,200,trial1,naming,0,0,0,0,mail box,0,4035,1,White_Screen.jpg,6,110,Mailbox_Antique.jpg,6
81619,10:02:50,6,6,5.0.14.0,2,201,trial1,naming,0,0,0,0,violin,0,4311,1,White_Screen.jpg,4,55,DoubleBass.jpg,4
81619,10:02:50,6,6,5.0.14.0,2,202,trial1,naming,0,0,0,0,picture,0,4860,1,White_Screen.jpg,6,97,Puzzle_Animal.jpg,6
81619,10:02:50,6,6,5.0.14.0,2,203,trial1,naming,0,0,0,0,sandle castle,0,4751,1,White_Screen.jpg,7,37,Castle_Sand.jpg,7
81619,10:02:50,6,6,5.0.14.0,3,1,demographics_block,gender,0,0,0,0,Female,1,9516,0,0,0,0,0,0
81619,10:02:50,6,6,5.0.14.0,3,1,demographics_block,age,0,0,0,0,37,1,9516,0,0,0,0,0,0
81619,10:02:50,6,6,5.0.14.0,3,1,demographics_block,education,0,0,0,0,Bachelor Degree,1,9516,0,0,0,0,0,0
81619,10:02:50,6,6,5.0.14.0,3,2,demographics_block,left_right_handed,0,0,0,0,Right,1,4977,0,0,0,0,0,0
81619,10:02:50,6,6,5.0.14.0,3,2,demographics_block,raceoption1,0,0,0,0,0,1,4977,0,0,0,0,0,0
81619,10:02:50,6,6,5.0.14.0,3,2,demographics_block,raceoption2,0,0,0,0,,1,4977,0,0,0,0,0,0
81619,10:02:50,6,6,5.0.14.0,3,2,demographics_block,raceoption3,0,0,0,0,,1,4977,0,0,0,0,0,0
81619,10:02:50,6,6,5.0.14.0,3,2,demographics_block,raceoption4,0,0,0,0,,1,4977,0,0,0,0,0,0
81619,10:02:50,6,6,5.0.14.0,3,2,demographics_block,raceoption5,0,0,0,0,,1,4977,0,0,0,0,0,0
81619,10:02:50,6,6,5.0.14.0,3,2,demographics_block,raceoption6,0,0,0,0,,1,4977,0,0,0,0,0,0
81619,10:02:50,6,6,5.0.14.0,3,2,demographics_block,raceoption7,0,0,0,0,,1,4977,0,0,0,0,0,0
81619,10:02:50,6,6,5.0.14.0,3,2,demographics_block,raceoption8,0,0,0,0,,1,4977,0,0,0,0,0,0
81619,10:02:50,6,6,5.0.14.0,3,2,demographics_block,raceoption9,0,0,0,0,,1,4977,0,0,0,0,0,0
81619,10:02:50,6,6,5.0.14.0,3,2,demographics_block,raceother,0,0,0,0,,1,4977,0,0,0,0,0,0
81619,10:02:50,6,6,5.0.14.0,3,2,demographics_block,raceother,0,0,0,0,,1,4977,0,0,0,0,0,0
81619,10:02:50,6,6,5.0.14.0,3,2,demographics_block,english_language,0,0,0,0,Yes,1,4977,0,0,0,0,0,0
81619,10:02:50,6,6,5.0.14.0,3,2,demographics_block,english_languageother,0,0,0,0,,1,4977,0,0,0,0,0,0
81619,10:02:50,6,6,5.0.14.0,3,3,demographics_block,eyesight,0,0,0,0,Yes,1,4416,0,0,0,0,0,0
81619,10:02:50,6,6,5.0.14.0,3,3,demographics_block,colorblind,0,0,0,0,No,1,4416,0,0,0,0,0,0
81619,10:02:50,6,6,5.0.14.0,4,1,worker_id_block,worker_id_textbox,0,0,0,0,A2EI9E6EBZEZO1,1,3736,0,0,0,0,0,0
81619,10:55:25,7,7,5.0.14.0,2,1,trial1,naming,0,0,0,0,bottle opener,0,5114,1,White_Screen.jpg,217,96,CigarCutter.jpg,217
81619,10:55:25,7,7,5.0.14.0,2,2,trial1,naming,0,0,0,0,cane,0,1927,1,White_Screen.jpg,2,129,Cane_Metal.jpg,2
81619,10:55:25,7,7,5.0.14.0,2,3,trial1,naming,0,0,0,0,bleachers,0,3103,1,White_Screen.jpg,1,76,Bleachers.jpg,1
81619,10:55:25,7,7,5.0.14.0,2,4,trial1,naming,0,0,0,0,bag,0,1552,1,White_Screen.jpg,2,56,Bag_Gift.jpg,2
81619,10:55:25,7,7,5.0.14.0,2,5,trial1,naming,0,0,0,0,toolbox,0,3069,1,White_Screen.jpg,1,85,Toolbox_Old.jpg,1
81619,10:55:25,7,7,5.0.14.0,2,6,trial1,naming,0,0,0,0,mascara,0,2504,1,White_Screen.jpg,2,160,Makeup_Mascara.jpg,2
81619,10:55:25,7,7,5.0.14.0,2,7,trial1,naming,0,0,0,0,spigot,0,4128,1,White_Screen.jpg,1,100,Faucet.jpg,1
81619,10:55:25,7,7,5.0.14.0,2,8,trial1,naming,0,0,0,0,watering can,0,3628,1,White_Screen.jpg,0,43,WateringCan_Antique.jpg,0
81619,10:55:25,7,7,5.0.14.0,2,9,trial1,naming,0,0,0,0,caterpillar,0,2937,1,White_Screen.jpg,1,42,Caterpillar.jpg,1
81619,10:55:25,7,7,5.0.14.0,2,10,trial1,naming,0,0,0,0,top,0,1842,1,White_Screen.jpg,1,199,Toy_Top.jpg,1
81619,10:55:25,7,7,5.0.14.0,2,11,trial1,naming,0,0,0,0,sled,0,1789,1,White_Screen.jpg,-1,140,Sled.jpg,-1
81619,10:55:25,7,7,5.0.14.0,2,12,trial1,naming,0,0,0,0,macaroni,0,2480,1,White_Screen.jpg,-1,143,Pasta_Macaroni.jpg,-1
81619,10:55:25,7,7,5.0.14.0,2,13,trial1,naming,0,0,0,0,torch,0,5440,1,White_Screen.jpg,1,147,Stove_Camping.jpg,1
81619,10:55:25,7,7,5.0.14.0,2,14,trial1,naming,0,0,0,0,book,0,2851,1,White_Screen.jpg,0,45,Book_Leather.jpg,0
81619,10:55:25,7,7,5.0.14.0,2,15,trial1,naming,0,0,0,0,goat,0,1430,1,White_Screen.jpg,0,6,Goat.jpg,0
81619,10:55:25,7,7,5.0.14.0,2,16,trial1,naming,0,0,0,0,saw,0,1608,1,White_Screen.jpg,0,161,Saw.jpg,0
81619,10:55:25,7,7,5.0.14.0,2,17,trial1,naming,0,0,0,0,tea pot,0,3002,1,White_Screen.jpg,0,99,Teapot.jpg,0
81619,10:55:25,7,7,5.0.14.0,2,18,trial1,naming,0,0,0,0,gas burner,0,6591,1,White_Screen.jpg,1,98,Stove_Propane.jpg,1
81619,10:55:25,7,7,5.0.14.0,2,19,trial1,naming,0,0,0,0,gift box,0,3222,1,White_Screen.jpg,1,93,Box_Floral.jpg,1
81619,10:55:25,7,7,5.0.14.0,2,20,trial1,naming,0,0,0,0,dog house,0,2211,1,White_Screen.jpg,1,107,DogHouse.jpg,1
81619,10:55:25,7,7,5.0.14.0,2,21,trial1,naming,0,0,0,0,pouch,0,3639,1,White_Screen.jpg,-1,126,Makeup_Bag.jpg,-1
81619,10:55:25,7,7,5.0.14.0,2,22,trial1,naming,0,0,0,0,cabinet,0,3062,1,White_Screen.jpg,-1,158,Cabinet_Office.jpg,-1
81619,10:55:25,7,7,5.0.14.0,2,23,trial1,naming,0,0,0,0,doll,0,1774,1,White_Screen.jpg,2,35,Doll_Rag.jpg,2
81619,10:55:25,7,7,5.0.14.0,2,24,trial1,naming,0,0,0,0,toy car,0,5324,1,White_Screen.jpg,1,3,Toy_TrailerAirport.jpg,1
81619,10:55:25,7,7,5.0.14.0,2,25,trial1,naming,0,0,0,0,dream catcher,0,2825,1,White_Screen.jpg,1,47,Dreamcatcher.jpg,1
81619,10:55:25,7,7,5.0.14.0,2,26,trial1,naming,0,0,0,0,pills,0,2024,1,White_Screen.jpg,-1,91,PillBottle_Closed.jpg,-1
81619,10:55:25,7,7,5.0.14.0,2,27,trial1,naming,0,0,0,0,goat,0,8250,1,White_Screen.jpg,0,184,Nyala.jpg,0
81619,10:55:25,7,7,5.0.14.0,2,28,trial1,naming,0,0,0,0,denim jacket,0,2849,1,White_Screen.jpg,2,144,Jacket_Jean.jpg,2
81619,10:55:25,7,7,5.0.14.0,2,29,trial1,naming,0,0,0,0,hard hat,0,3334,1,White_Screen.jpg,-1,51,Helmet_Construction.jpg,-1
81619,10:55:25,7,7,5.0.14.0,2,30,trial1,naming,0,0,0,0,hair clip,0,4432,1,White_Screen.jpg,-1,141,HairClip.jpg,-1
81619,10:55:25,7,7,5.0.14.0,2,31,trial1,naming,0,0,0,0,light switch,0,2807,1,White_Screen.jpg,-2,130,Switch_LightWhite.jpg,-2
81619,10:55:25,7,7,5.0.14.0,2,32,trial1,naming,0,0,0,0,clippers,0,5451,1,White_Screen.jpg,1,106,HairClipper.jpg,1
81619,10:55:25,7,7,5.0.14.0,2,33,trial1,naming,0,0,0,0,key,0,2605,1,White_Screen.jpg,3,127,ComputerKeyboard_F1.jpg,3
81619,10:55:25,7,7,5.0.14.0,2,34,trial1,naming,0,0,0,0,street cleaner,0,4977,1,White_Screen.jpg,1,148,StreetSweeper.jpg,1
81619,10:55:25,7,7,5.0.14.0,2,35,trial1,naming,0,0,0,0,stamp,0,2052,1,White_Screen.jpg,0,8,Stamp.jpg,0
81619,10:55:25,7,7,5.0.14.0,2,36,trial1,naming,0,0,0,0,crowbar,0,2790,1,White_Screen.jpg,2,53,Crowbar.jpg,2
81619,10:55:25,7,7,5.0.14.0,2,37,trial1,naming,0,0,0,0,flour,0,2412,1,White_Screen.jpg,0,186,Bag_PaperWithFlour.jpg,0
81619,10:55:25,7,7,5.0.14.0,2,38,trial1,naming,0,0,0,0,cell phone,0,2545,1,White_Screen.jpg,-1,163,Phone_Wireless.jpg,-1
81619,10:55:25,7,7,5.0.14.0,2,39,trial1,naming,0,0,0,0,knee brace,0,3393,1,White_Screen.jpg,-1,89,Brace_Leg.jpg,-1
81619,10:55:25,7,7,5.0.14.0,2,40,trial1,naming,0,0,0,0,clothes hanger,0,3960,1,White_Screen.jpg,-1,20,Clothespin_Red.jpg,-1
81619,10:55:25,7,7,5.0.14.0,2,41,trial1,naming,0,0,0,0,high heels,0,5344,1,White_Screen.jpg,0,34,Shoe_Highheel.jpg,0
81619,10:55:25,7,7,5.0.14.0,2,42,trial1,naming,0,0,0,0,medical kit,0,4621,1,White_Screen.jpg,1,128,Tray_Medical.jpg,1
81619,10:55:25,7,7,5.0.14.0,2,43,trial1,naming,0,0,0,0,china cabinet,0,4320,1,White_Screen.jpg,-1,36,Cabinet_Display.jpg,-1
81619,10:55:25,7,7,5.0.14.0,2,44,trial1,naming,0,0,0,0,police line,0,4139,1,White_Screen.jpg,1,155,PoliceTape.jpg,1
81619,10:55:25,7,7,5.0.14.0,2,45,trial1,naming,0,0,0,0,coral,0,2366,1,White_Screen.jpg,2,166,Coral.jpg,2
81619,10:55:25,7,7,5.0.14.0,2,46,trial1,naming,0,0,0,0,flashlight,0,3035,1,White_Screen.jpg,-1,174,Flashlight.jpg,-1
81619,10:55:25,7,7,5.0.14.0,2,47,trial1,naming,0,0,0,0,vase,0,6763,1,White_Screen.jpg,-1,16,Jug_Wicker.jpg,-1
81619,10:55:25,7,7,5.0.14.0,2,48,trial1,naming,0,0,0,0,box cutter,0,3011,1,White_Screen.jpg,-1,132,Boxcutter.jpg,-1
81619,10:55:25,7,7,5.0.14.0,2,49,trial1,naming,0,0,0,0,game boy color,0,3765,1,White_Screen.jpg,2,159,Gameboy.jpg,2
81619,10:55:25,7,7,5.0.14.0,2,50,trial1,naming,0,0,0,0,orb,0,2326,1,White_Screen.jpg,1,169,Glass_Ball.jpg,1
81619,10:55:25,7,7,5.0.14.0,2,52,trial1,naming,0,0,0,0,knight,0,3083,1,White_Screen.jpg,-1,95,ChessPiece_Knight.jpg,-1
81619,10:55:25,7,7,5.0.14.0,2,53,trial1,naming,0,0,0,0,turkey,0,2829,1,White_Screen.jpg,0,87,TurkeyDinner.jpg,0
81619,10:55:25,7,7,5.0.14.0,2,54,trial1,naming,0,0,0,0,gloves,0,2729,1,White_Screen.jpg,1,68,Gloves_WhiteKnit.jpg,1
81619,10:55:25,7,7,5.0.14.0,2,55,trial1,naming,0,0,0,0,gutter,0,2186,1,White_Screen.jpg,1,112,GutterAndDrainPipe.jpg,1
81619,10:55:25,7,7,5.0.14.0,2,56,trial1,naming,0,0,0,0,cup,0,2510,1,White_Screen.jpg,1,15,Cup_Bathroom.jpg,1
81619,10:55:25,7,7,5.0.14.0,2,57,trial1,naming,0,0,0,0,horseshoe crab,0,4072,1,White_Screen.jpg,3,50,HorseshoeCrab.jpg,3
81619,10:55:25,7,7,5.0.14.0,2,58,trial1,naming,0,0,0,0,magnet,0,2461,1,White_Screen.jpg,-1,78,Magnet_Three.jpg,-1
81619,10:55:25,7,7,5.0.14.0,2,59,trial1,naming,0,0,0,0,umbrella,0,2591,1,White_Screen.jpg,1,79,Umbrella_Retractable.jpg,1
81619,10:55:25,7,7,5.0.14.0,2,60,trial1,naming,0,0,0,0,ladybug,0,4605,1,White_Screen.jpg,0,49,Toy_Ladybug.jpg,0
81619,10:55:25,7,7,5.0.14.0,2,61,trial1,naming,0,0,0,0,dragonfly,0,3062,1,White_Screen.jpg,0,94,Dragonfly.jpg,0
81619,10:55:25,7,7,5.0.14.0,2,62,trial1,naming,0,0,0,0,toy box,0,2784,1,White_Screen.jpg,0,115,Chest_Toys.jpg,0
81619,10:55:25,7,7,5.0.14.0,2,63,trial1,naming,0,0,0,0,mat,0,2632,1,White_Screen.jpg,-1,131,Mat_Bamboo.jpg,-1
81619,10:55:25,7,7,5.0.14.0,2,64,trial1,naming,0,0,0,0,fire hydrant,0,3305,1,White_Screen.jpg,1,72,FireHydrant.jpg,1
81619,10:55:25,7,7,5.0.14.0,2,65,trial1,naming,0,0,0,0,orange,0,2420,1,White_Screen.jpg,1,200,Fruit_Orange.jpg,1
81619,10:55:25,7,7,5.0.14.0,2,66,trial1,naming,0,0,0,0,bagpipes,0,4169,1,White_Screen.jpg,1,146,Bagpipes.jpg,1
81619,10:55:25,7,7,5.0.14.0,2,67,trial1,naming,0,0,0,0,folder,0,3449,1,White_Screen.jpg,1,135,FileDivider.jpg,1
81619,10:55:25,7,7,5.0.14.0,2,68,trial1,naming,0,0,0,0,dress,0,2221,1,White_Screen.jpg,1,118,Dress_Blue.jpg,1
81619,10:55:25,7,7,5.0.14.0,2,69,trial1,naming,0,0,0,0,brush,0,2569,1,White_Screen.jpg,0,44,Brush_Cleaning.jpg,0
81619,10:55:25,7,7,5.0.14.0,2,70,trial1,naming,0,0,0,0,chinese checkers,0,5502,1,White_Screen.jpg,0,162,Boardgame_ChineseCheckers.jpg,0
81619,10:55:25,7,7,5.0.14.0,2,71,trial1,naming,0,0,0,0,stool,0,1742,1,White_Screen.jpg,1,66,Stool_Wood.jpg,1
81619,10:55:25,7,7,5.0.14.0,2,72,trial1,naming,0,0,0,0,dental floss,0,2907,1,White_Screen.jpg,1,136,DentalFloss.jpg,1
81619,10:55:25,7,7,5.0.14.0,2,73,trial1,naming,0,0,0,0,oxygen mask,0,9793,1,White_Screen.jpg,-1,28,Mask_CPR.jpg,-1
81619,10:55:25,7,7,5.0.14.0,2,74,trial1,naming,0,0,0,0,spaghetti,0,4860,1,White_Screen.jpg,2,185,Pasta_Fettuccine.jpg,2
81619,10:55:25,7,7,5.0.14.0,2,75,trial1,naming,0,0,0,0,tiger,0,1853,1,White_Screen.jpg,-1,195,TigerWhite.jpg,-1
81619,10:55:25,7,7,5.0.14.0,2,76,trial1,naming,0,0,0,0,yarmulke,0,4758,1,White_Screen.jpg,-1,177,Yarmulke.jpg,-1
81619,10:55:25,7,7,5.0.14.0,2,77,trial1,naming,0,0,0,0,bulldozer,0,5456,1,White_Screen.jpg,2,4,Tractor_Yellow.jpg,2
81619,10:55:25,7,7,5.0.14.0,2,78,trial1,naming,0,0,0,0,flowers,0,5808,1,White_Screen.jpg,0,63,Flowers_DryBouquet.jpg,0
81619,10:55:25,7,7,5.0.14.0,2,79,trial1,naming,0,0,0,0,toy,0,2884,1,White_Screen.jpg,0,165,Toy_Wooden rings.jpg,0
81619,10:55:25,7,7,5.0.14.0,2,80,trial1,naming,0,0,0,0,watermelon,0,2502,1,White_Screen.jpg,1,31,WatermelonSlice.jpg,1
81619,10:55:25,7,7,5.0.14.0,2,81,trial1,naming,0,0,0,0,litter scoop,0,5087,1,White_Screen.jpg,2,154,LitterScoop.jpg,2
81619,10:55:25,7,7,5.0.14.0,2,82,trial1,naming,0,0,0,0,nail file,0,3287,1,White_Screen.jpg,0,119,NailFiles.jpg,0
81619,10:55:25,7,7,5.0.14.0,2,83,trial1,naming,0,0,0,0,candlestick,0,6203,1,White_Screen.jpg,1,23,Candleholder_Tall.jpg,1
81619,10:55:25,7,7,5.0.14.0,2,84,trial1,naming,0,0,0,0,socks,0,3033,1,White_Screen.jpg,0,74,Socks_Baby.jpg,0
81619,10:55:25,7,7,5.0.14.0,2,85,trial1,naming,0,0,0,0,tray,0,2750,1,White_Screen.jpg,0,57,Tray_Wooden.jpg,0
81619,10:55:25,7,7,5.0.14.0,2,86,trial1,naming,0,0,0,0,paddle,0,2404,1,White_Screen.jpg,1,12,Paddle_Beach.jpg,1
81619,10:55:25,7,7,5.0.14.0,2,87,trial1,naming,0,0,0,0,jumper cables,0,3704,1,White_Screen.jpg,1,81,Cable_JumpStart.jpg,1
81619,10:55:25,7,7,5.0.14.0,2,88,trial1,naming,0,0,0,0,huverboard,0,3677,1,White_Screen.jpg,-1,69,Hoverboard.jpg,-1
81619,10:55:25,7,7,5.0.14.0,2,89,trial1,naming,0,0,0,0,weight,0,3896,1,White_Screen.jpg,-1,58,Weights_Dumbells.jpg,-1
81619,10:55:25,7,7,5.0.14.0,2,90,trial1,naming,0,0,0,0,stool,0,4931,1,White_Screen.jpg,1,191,Table_Magazine.jpg,1
81619,10:55:25,7,7,5.0.14.0,2,91,trial1,naming,0,0,0,0,earring,0,3032,1,White_Screen.jpg,0,138,Earring_Hoop.jpg,0
81619,10:55:25,7,7,5.0.14.0,2,92,trial1,naming,0,0,0,0,bowl,0,3052,1,White_Screen.jpg,0,10,ContactLens.jpg,0
81619,10:55:25,7,7,5.0.14.0,2,93,trial1,naming,0,0,0,0,shower cap,0,2986,1,White_Screen.jpg,-2,114,ShowerCap.jpg,-2
81619,10:55:25,7,7,5.0.14.0,2,94,trial1,naming,0,0,0,0,dish,0,2479,1,White_Screen.jpg,0,164,ButterDish.jpg,0
81619,10:55:25,7,7,5.0.14.0,2,95,trial1,naming,0,0,0,0,shell,0,1826,1,White_Screen.jpg,-1,157,Seashell_AlternateTellin.jpg,-1
81619,10:55:25,7,7,5.0.14.0,2,96,trial1,naming,0,0,0,0,sign,0,1587,1,White_Screen.jpg,0,170,Sign_TrafficArrow.jpg,0
81619,10:55:25,7,7,5.0.14.0,2,97,trial1,naming,0,0,0,0,sand castle,0,3286,1,White_Screen.jpg,1,37,Castle_Sand.jpg,1
81619,10:55:25,7,7,5.0.14.0,2,98,trial1,naming,0,0,0,0,armor,0,3945,1,White_Screen.jpg,1,123,Helmet_Knight.jpg,1
81619,10:55:25,7,7,5.0.14.0,2,99,trial1,naming,0,0,0,0,strainer,0,2491,1,White_Screen.jpg,1,39,Colander.jpg,1
81619,10:55:25,7,7,5.0.14.0,2,100,trial1,naming,0,0,0,0,water heater,0,3246,1,White_Screen.jpg,-2,2,WaterHeater.jpg,-2
81619,10:55:25,7,7,5.0.14.0,2,101,trial1,naming,0,0,0,0,jug,0,2513,1,White_Screen.jpg,1,82,Jug_GallonWhite.jpg,1
81619,10:55:25,7,7,5.0.14.0,2,103,trial1,naming,0,0,0,0,domino,0,2833,1,White_Screen.jpg,2,73,Domino.jpg,2
81619,10:55:25,7,7,5.0.14.0,2,104,trial1,naming,0,0,0,0,VGA cable,0,5358,1,White_Screen.jpg,1,121,VGAport.jpg,1
81619,10:55:25,7,7,5.0.14.0,2,105,trial1,naming,0,0,0,0,badge,0,2467,1,White_Screen.jpg,1,152,BadgeSpecialAgent.jpg,1
81619,10:55:25,7,7,5.0.14.0,2,106,trial1,naming,0,0,0,0,paper stack,0,3325,1,White_Screen.jpg,1,75,PaperStack.jpg,1
81619,10:55:25,7,7,5.0.14.0,2,107,trial1,naming,0,0,0,0,paint roller,0,3679,1,White_Screen.jpg,0,116,PaintRollTray.jpg,0
81619,10:55:25,7,7,5.0.14.0,2,108,trial1,naming,0,0,0,0,bass,0,4972,1,White_Screen.jpg,0,55,DoubleBass.jpg,0
81619,10:55:25,7,7,5.0.14.0,2,109,trial1,naming,0,0,0,0,security system,0,7896,1,White_Screen.jpg,-1,14,AlarmSystem.jpg,-1
81619,10:55:25,7,7,5.0.14.0,2,110,trial1,naming,0,0,0,0,space shuttle,0,2981,1,White_Screen.jpg,-1,198,SpaceShuttle.jpg,-1
81619,10:55:25,7,7,5.0.14.0,2,111,trial1,naming,0,0,0,0,centrifuge,0,3235,1,White_Screen.jpg,0,13,Centrifuge.jpg,0
81619,10:55:25,7,7,5.0.14.0,2,112,trial1,naming,0,0,0,0,plate,0,3639,1,White_Screen.jpg,1,26,Plate_Children.jpg,1
81619,10:55:25,7,7,5.0.14.0,2,113,trial1,naming,0,0,0,0,milk jug,0,4148,1,White_Screen.jpg,2,61,MilkJug.jpg,2
81619,10:55:25,7,7,5.0.14.0,2,114,trial1,naming,0,0,0,0,toy boat,0,2406,1,White_Screen.jpg,0,71,Toy_Boat.jpg,0
81619,10:55:25,7,7,5.0.14.0,2,115,trial1,naming,0,0,0,0,wreath,0,2052,1,White_Screen.jpg,3,187,Wreath.jpg,3
81619,10:55:25,7,7,5.0.14.0,2,116,trial1,naming,0,0,0,0,soap dish,0,4796,1,White_Screen.jpg,1,27,SoapDish.jpg,1
81619,10:55:25,7,7,5.0.14.0,2,117,trial1,naming,0,0,0,0,gum,0,2678,1,White_Screen.jpg,0,178,ChewingGum.jpg,0
81619,10:55:25,7,7,5.0.14.0,2,118,trial1,naming,0,0,0,0,toy motorcycle,0,4177,1,White_Screen.jpg,0,176,Toy_Motorcycle.jpg,0
81619,10:55:25,7,7,5.0.14.0,2,119,trial1,naming,0,0,0,0,bucket,0,5229,1,White_Screen.jpg,0,9,Bucket_Rusty.jpg,0
81619,10:55:25,7,7,5.0.14.0,2,120,trial1,naming,0,0,0,0,battery,0,2822,1,White_Screen.jpg,2,19,Battery_Car.jpg,2
81619,10:55:25,7,7,5.0.14.0,2,121,trial1,naming,0,0,0,0,giraffe,0,2947,1,White_Screen.jpg,1,24,Giraffe.jpg,1
81619,10:55:25,7,7,5.0.14.0,2,122,trial1,naming,0,0,0,0,fake tree,0,6698,1,White_Screen.jpg,2,38,Tree_ChristmasMini.jpg,2
81619,10:55:25,7,7,5.0.14.0,2,123,trial1,naming,0,0,0,0,fruit,0,3909,1,White_Screen.jpg,-1,64,PassionFruit.jpg,-1
81619,10:55:25,7,7,5.0.14.0,2,124,trial1,naming,0,0,0,0,basket,0,2194,1,White_Screen.jpg,-1,124,Basket_Straw.jpg,-1
81619,10:55:25,7,7,5.0.14.0,2,125,trial1,naming,0,0,0,0,brush,0,2069,1,White_Screen.jpg,0,145,Brush_BathBack.jpg,0
81619,10:55:25,7,7,5.0.14.0,2,126,trial1,naming,0,0,0,0,gift box,0,3487,1,White_Screen.jpg,-1,122,Box_Present.jpg,-1
81619,10:55:25,7,7,5.0.14.0,2,127,trial1,naming,0,0,0,0,chicken,0,2001,1,White_Screen.jpg,1,84,Bird_Hen.jpg,1
81619,10:55:25,7,7,5.0.14.0,2,128,trial1,naming,0,0,0,0,bow and arrow,0,3285,1,White_Screen.jpg,2,196,Archery_ArrowsBows.jpg,2
81619,10:55:25,7,7,5.0.14.0,2,129,trial1,naming,0,0,0,0,deodorant,0,4023,1,White_Screen.jpg,4,167,Deodorant.jpg,4
81619,10:55:25,7,7,5.0.14.0,2,130,trial1,naming,0,0,0,0,basketball,0,2233,1,White_Screen.jpg,-1,104,Ball_Basketball.jpg,-1
81619,10:55:25,7,7,5.0.14.0,2,131,trial1,naming,0,0,0,0,boat,0,2058,1,White_Screen.jpg,0,179,Boat_Sail.jpg,0
81619,10:55:25,7,7,5.0.14.0,2,132,trial1,naming,0,0,0,0,shorts,0,2307,1,White_Screen.jpg,2,80,Shorts_Plaid.jpg,2
81619,10:55:25,7,7,5.0.14.0,2,133,trial1,naming,0,0,0,0,hay bale,0,2610,1,White_Screen.jpg,0,25,Hay.jpg,0
81619,10:55:25,7,7,5.0.14.0,2,134,trial1,naming,0,0,0,0,cigarettes,0,6877,1,White_Screen.jpg,0,171,CigarCase.jpg,0
81619,10:55:25,7,7,5.0.14.0,2,135,trial1,naming,0,0,0,0,hockey stick,0,4040,1,White_Screen.jpg,1,193,Stick_IceHockey.jpg,1
81619,10:55:25,7,7,5.0.14.0,2,136,trial1,naming,0,0,0,0,paint can,0,2719,1,White_Screen.jpg,2,194,PaintCan.jpg,2
81619,10:55:25,7,7,5.0.14.0,2,137,trial1,naming,0,0,0,0,wire rack,0,3753,1,White_Screen.jpg,1,5,GrillRack.jpg,1
81619,10:55:25,7,7,5.0.14.0,2,138,trial1,naming,0,0,0,0,can opener,0,2473,1,White_Screen.jpg,0,192,CanOpener.jpg,0
81619,10:55:25,7,7,5.0.14.0,2,139,trial1,naming,0,0,0,0,paddle,0,2244,1,White_Screen.jpg,-1,88,Paddle_PingPong.jpg,-1
81619,10:55:25,7,7,5.0.14.0,2,140,trial1,naming,0,0,0,0,paper shredder,0,4255,1,White_Screen.jpg,-1,197,PaperShredder.jpg,-1
81619,10:55:25,7,7,5.0.14.0,2,141,trial1,naming,0,0,0,0,scroll,0,3804,1,White_Screen.jpg,0,90,Scroll.jpg,0
81619,10:55:25,7,7,5.0.14.0,2,142,trial1,naming,0,0,0,0,water fountain,0,3691,1,White_Screen.jpg,1,153,DrinkingFountain.jpg,1
81619,10:55:25,7,7,5.0.14.0,2,143,trial1,naming,0,0,0,0,ore,0,2104,1,White_Screen.jpg,-1,156,GoldNugget.jpg,-1
81619,10:55:25,7,7,5.0.14.0,2,144,trial1,naming,0,0,0,0,lock,0,3551,1,White_Screen.jpg,2,188,CodeDoorLock.jpg,2
81619,10:55:25,7,7,5.0.14.0,2,145,trial1,naming,0,0,0,0,shish kebab,0,6104,1,White_Screen.jpg,2,172,Kebab_Meat.jpg,2
81619,10:55:25,7,7,5.0.14.0,2,146,trial1,naming,0,0,0,0,stove,0,3912,1,White_Screen.jpg,1,52,Oven.jpg,1
81619,10:55:25,7,7,5.0.14.0,2,147,trial1,naming,0,0,0,0,shoelace,0,4155,1,White_Screen.jpg,1,21,ShoeLace_Flat.jpg,1
81619,10:55:25,7,7,5.0.14.0,2,148,trial1,naming,0,0,0,0,dresser,0,5260,1,White_Screen.jpg,1,108,Dresser.jpg,1
81619,10:55:25,7,7,5.0.14.0,2,149,trial1,naming,0,0,0,0,toy,0,2180,1,White_Screen.jpg,1,41,Toy_ModelMolecule.jpg,1
81619,10:55:25,7,7,5.0.14.0,2,150,trial1,naming,0,0,0,0,spatula,0,4049,1,White_Screen.jpg,0,92,Spatula.jpg,0
81619,10:55:25,7,7,5.0.14.0,2,151,trial1,naming,0,0,0,0,toy truck,0,3945,1,White_Screen.jpg,0,180,Toy_Firetruck.jpg,0
81619,10:55:25,7,7,5.0.14.0,2,152,trial1,naming,0,0,0,0,air hockey table,0,3385,1,White_Screen.jpg,1,17,Gametable_AirHockey.jpg,1
81619,10:55:25,7,7,5.0.14.0,2,154,trial1,naming,0,0,0,0,baster,0,2710,1,White_Screen.jpg,2,18,Baster.jpg,2
81619,10:55:25,7,7,5.0.14.0,2,155,trial1,naming,0,0,0,0,dress,0,2711,1,White_Screen.jpg,0,113,Dress_Party.jpg,0
81619,10:55:25,7,7,5.0.14.0,2,156,trial1,naming,0,0,0,0,pretzel,0,2067,1,White_Screen.jpg,-1,101,Pretzel_Knot.jpg,-1
81619,10:55:25,7,7,5.0.14.0,2,157,trial1,naming,0,0,0,0,jack in the box,0,3153,1,White_Screen.jpg,0,60,Toy_JackInTheBox.jpg,0
81619,10:55:25,7,7,5.0.14.0,2,158,trial1,naming,0,0,0,0,dinosaur,0,3017,1,White_Screen.jpg,0,125,Toy_DinosaurBrontosaurus.jpg,0
81619,10:55:25,7,7,5.0.14.0,2,159,trial1,naming,0,0,0,0,card,0,1654,1,White_Screen.jpg,2,120,Card_TwoSpade.jpg,2
81619,10:55:25,7,7,5.0.14.0,2,160,trial1,naming,0,0,0,0,mirror,0,2655,1,White_Screen.jpg,1,86,Mirror_Dental.jpg,1
81619,10:55:25,7,7,5.0.14.0,2,161,trial1,naming,0,0,0,0,gate,0,1586,1,White_Screen.jpg,1,77,GatedEntrance.jpg,1
81619,10:55:25,7,7,5.0.14.0,2,162,trial1,naming,0,0,0,0,shish kebab,0,5269,1,White_Screen.jpg,7,168,Kebab_Vegetables.jpg,7
81619,10:55:25,7,7,5.0.14.0,2,163,trial1,naming,0,0,0,0,crutches,0,2607,1,White_Screen.jpg,-1,182,Crutches.jpg,-1
81619,10:55:25,7,7,5.0.14.0,2,164,trial1,naming,0,0,0,0,screw,0,1971,1,White_Screen.jpg,0,83,Screw.jpg,0
81619,10:55:25,7,7,5.0.14.0,2,165,trial1,naming,0,0,0,0,clock,0,1857,1,White_Screen.jpg,-1,32,Clock_Grandfather.jpg,-1
81619,10:55:25,7,7,5.0.14.0,2,166,trial1,naming,0,0,0,0,nail polish,0,5504,1,White_Screen.jpg,1,133,NailPolish.jpg,1
81619,10:55:25,7,7,5.0.14.0,2,167,trial1,naming,0,0,0,0,breast pump,0,4601,1,White_Screen.jpg,2,173,PumpBreast.jpg,2
81619,10:55:25,7,7,5.0.14.0,2,168,trial1,naming,0,0,0,0,tie,0,1339,1,White_Screen.jpg,-1,103,Tie.jpg,-1
81619,10:55:25,7,7,5.0.14.0,2,169,trial1,naming,0,0,0,0,sphynx,0,3110,1,White_Screen.jpg,1,151,Sphinx.jpg,1
81619,10:55:25,7,7,5.0.14.0,2,170,trial1,naming,0,0,0,0,slipper,0,2112,1,White_Screen.jpg,0,175,Slippers.jpg,0
81619,10:55:25,7,7,5.0.14.0,2,171,trial1,naming,0,0,0,0,toy tank,0,3625,1,White_Screen.jpg,-1,67,Toy_Tank.jpg,-1
81619,10:55:25,7,7,5.0.14.0,2,172,trial1,naming,0,0,0,0,barometer,0,2831,1,White_Screen.jpg,0,59,Barometer.jpg,0
81619,10:55:25,7,7,5.0.14.0,2,173,trial1,naming,0,0,0,0,mail box,0,3818,1,White_Screen.jpg,1,110,Mailbox_Antique.jpg,1
81619,10:55:25,7,7,5.0.14.0,2,174,trial1,naming,0,0,0,0,puzzle,0,5863,1,White_Screen.jpg,1,97,Puzzle_Animal.jpg,1
81619,10:55:25,7,7,5.0.14.0,2,175,trial1,naming,0,0,0,0,crib,0,2442,1,White_Screen.jpg,-1,150,Crib_Standard.jpg,-1
81619,10:55:25,7,7,5.0.14.0,2,176,trial1,naming,0,0,0,0,shave brush,0,3501,1,White_Screen.jpg,0,54,Brush_Shaving.jpg,0
81619,10:55:25,7,7,5.0.14.0,2,177,trial1,naming,0,0,0,0,clam,0,1983,1,White_Screen.jpg,0,181,Clam.jpg,0
81619,10:55:25,7,7,5.0.14.0,2,178,trial1,naming,0,0,0,0,spine,0,2715,1,White_Screen.jpg,0,109,SpinalCord.jpg,0
81619,10:55:25,7,7,5.0.14.0,2,179,trial1,naming,0,0,0,0,birthday cake,0,3292,1,White_Screen.jpg,0,11,Cake_Birthday.jpg,0
81619,10:55:25,7,7,5.0.14.0,2,180,trial1,naming,0,0,0,0,coffin,0,2289,1,White_Screen.jpg,-1,62,CasketOpen.jpg,-1
81619,10:55:25,7,7,5.0.14.0,2,181,trial1,naming,0,0,0,0,mop,0,2000,1,White_Screen.jpg,0,29,Mop.jpg,0
81619,10:55:25,7,7,5.0.14.0,2,182,trial1,naming,0,0,0,0,radio,0,3731,1,White_Screen.jpg,2,117,Clock_Radioalarm.jpg,2
81619,10:55:25,7,7,5.0.14.0,2,183,trial1,naming,0,0,0,0,lock,0,2581,1,White_Screen.jpg,1,70,Lock_Key.jpg,1
81619,10:55:25,7,7,5.0.14.0,2,184,trial1,naming,0,0,0,0,license plate,0,3923,1,White_Screen.jpg,1,190,LicensePlate.jpg,1
81619,10:55:25,7,7,5.0.14.0,2,185,trial1,naming,0,0,0,0,pens,0,2766,1,White_Screen.jpg,1,149,PenStand.jpg,1
81619,10:55:25,7,7,5.0.14.0,2,186,trial1,naming,0,0,0,0,sword,0,1749,1,White_Screen.jpg,0,30,Sword.jpg,0
81619,10:55:25,7,7,5.0.14.0,2,187,trial1,naming,0,0,0,0,toy office,0,6657,1,White_Screen.jpg,2,183,Toy_DollOffice.jpg,2
81619,10:55:25,7,7,5.0.14.0,2,188,trial1,naming,0,0,0,0,crate,0,1942,1,White_Screen.jpg,-1,40,Box_WoodCrate.jpg,-1
81619,10:55:25,7,7,5.0.14.0,2,189,trial1,naming,0,0,0,0,flask,0,2859,1,White_Screen.jpg,0,46,Canteen.jpg,0
81619,10:55:25,7,7,5.0.14.0,2,190,trial1,naming,0,0,0,0,ribbon,0,2120,1,White_Screen.jpg,-1,111,RibbonSpool.jpg,-1
81619,10:55:25,7,7,5.0.14.0,2,191,trial1,naming,0,0,0,0,drumsticks,0,3847,1,White_Screen.jpg,0,142,Stick_Drum.jpg,0
81619,10:55:25,7,7,5.0.14.0,2,192,trial1,naming,0,0,0,0,scalpel,0,2914,1,White_Screen.jpg,2,139,Scalpel.jpg,2
81619,10:55:25,7,7,5.0.14.0,2,193,trial1,naming,0,0,0,0,panda,0,3724,1,White_Screen.jpg,0,22,Panda.jpg,0
81619,10:55:25,7,7,5.0.14.0,2,194,trial1,naming,0,0,0,0,office supplies,0,5783,1,White_Screen.jpg,0,65,PenHolder.jpg,0
81619,10:55:25,7,7,5.0.14.0,2,195,trial1,naming,0,0,0,0,asparagus,0,2222,1,White_Screen.jpg,-1,105,Asparagus.jpg,-1
81619,10:55:25,7,7,5.0.14.0,2,196,trial1,naming,0,0,0,0,washer,0,2878,1,White_Screen.jpg,1,48,WashingMachine.jpg,1
81619,10:55:25,7,7,5.0.14.0,2,197,trial1,naming,0,0,0,0,bl,0,10000,1,White_Screen.jpg,0,137,White_Screen.jpg,0
81619,10:55:25,7,7,5.0.14.0,2,198,trial1,naming,0,0,0,0,roller coaster,0,3875,1,White_Screen.jpg,1,134,RollerCoaster.jpg,1
81619,10:55:25,7,7,5.0.14.0,2,199,trial1,naming,0,0,0,0,telephone,0,2833,1,White_Screen.jpg,0,1,Telephone_DialAntique.jpg,0
81619,10:55:25,7,7,5.0.14.0,2,200,trial1,naming,0,0,0,0,gas mask,0,2245,1,White_Screen.jpg,1,189,Mask_Gas.jpg,1
81619,10:55:25,7,7,5.0.14.0,2,201,trial1,naming,0,0,0,0,scooter,0,2409,1,White_Screen.jpg,0,7,MobilityScooter.jpg,0
81619,10:55:25,7,7,5.0.14.0,2,202,trial1,naming,0,0,0,0,hammer,0,2933,1,White_Screen.jpg,-1,33,Hammer_Reflex.jpg,-1
81619,10:55:25,7,7,5.0.14.0,2,203,trial1,naming,0,0,0,0,boat,0,4164,1,White_Screen.jpg,1,102,Boat_Ferry.jpg,1
81619,10:55:25,7,7,5.0.14.0,3,1,demographics_block,gender,0,0,0,0,Male,1,14121,0,0,0,0,0,0
81619,10:55:25,7,7,5.0.14.0,3,1,demographics_block,age,0,0,0,0,27,1,14121,0,0,0,0,0,0
81619,10:55:25,7,7,5.0.14.0,3,1,demographics_block,education,0,0,0,0,17,1,14121,0,0,0,0,0,0
81619,10:55:25,7,7,5.0.14.0,3,2,demographics_block,left_right_handed,0,0,0,0,Left,1,4213,0,0,0,0,0,0
81619,10:55:25,7,7,5.0.14.0,3,2,demographics_block,raceoption1,0,0,0,0,0,1,4213,0,0,0,0,0,0
81619,10:55:25,7,7,5.0.14.0,3,2,demographics_block,raceoption2,0,0,0,0,,1,4213,0,0,0,0,0,0
81619,10:55:25,7,7,5.0.14.0,3,2,demographics_block,raceoption3,0,0,0,0,,1,4213,0,0,0,0,0,0
81619,10:55:25,7,7,5.0.14.0,3,2,demographics_block,raceoption4,0,0,0,0,,1,4213,0,0,0,0,0,0
81619,10:55:25,7,7,5.0.14.0,3,2,demographics_block,raceoption5,0,0,0,0,,1,4213,0,0,0,0,0,0
81619,10:55:25,7,7,5.0.14.0,3,2,demographics_block,raceoption6,0,0,0,0,,1,4213,0,0,0,0,0,0
81619,10:55:25,7,7,5.0.14.0,3,2,demographics_block,raceoption7,0,0,0,0,,1,4213,0,0,0,0,0,0
81619,10:55:25,7,7,5.0.14.0,3,2,demographics_block,raceoption8,0,0,0,0,,1,4213,0,0,0,0,0,0
81619,10:55:25,7,7,5.0.14.0,3,2,demographics_block,raceoption9,0,0,0,0,,1,4213,0,0,0,0,0,0
81619,10:55:25,7,7,5.0.14.0,3,2,demographics_block,raceother,0,0,0,0,,1,4213,0,0,0,0,0,0
81619,10:55:25,7,7,5.0.14.0,3,2,demographics_block,raceother,0,0,0,0,,1,4213,0,0,0,0,0,0
81619,10:55:25,7,7,5.0.14.0,3,2,demographics_block,english_language,0,0,0,0,Yes,1,4213,0,0,0,0,0,0
81619,10:55:25,7,7,5.0.14.0,3,2,demographics_block,english_languageother,0,0,0,0,,1,4213,0,0,0,0,0,0
81619,10:55:25,7,7,5.0.14.0,3,3,demographics_block,eyesight,0,0,0,0,Yes,1,5778,0,0,0,0,0,0
81619,10:55:25,7,7,5.0.14.0,3,3,demographics_block,colorblind,0,0,0,0,No,1,5778,0,0,0,0,0,0
81619,10:55:25,7,7,5.0.14.0,4,1,worker_id_block,worker_id_textbox,0,0,0,0,A9HHXQNIUNCZA,1,51482,0,0,0,0,0,0
81619,8:56:25,9,9,5.0.14.0,2,1,trial1,naming,0,0,0,0,Enter Name,0,10000,1,White_Screen.jpg,55,167,Deodorant.jpg,55
81619,8:56:25,9,9,5.0.14.0,2,2,trial1,naming,0,0,0,0,razor,0,9140,1,White_Screen.jpg,3,28,Mask_CPR.jpg,3
81619,8:56:25,9,9,5.0.14.0,2,3,trial1,naming,0,0,0,0,light switch,0,9248,1,White_Screen.jpg,3,130,Switch_LightWhite.jpg,3
81619,8:56:25,9,9,5.0.14.0,2,4,trial1,naming,0,0,0,0,shoe,0,6127,1,White_Screen.jpg,3,34,Shoe_Highheel.jpg,3
81619,8:56:25,9,9,5.0.14.0,2,5,trial1,naming,0,0,0,0,eyeliner,0,6755,1,White_Screen.jpg,4,160,Makeup_Mascara.jpg,4
81619,8:56:25,9,9,5.0.14.0,2,6,trial1,naming,0,0,0,0,brush,0,7750,1,White_Screen.jpg,3,145,Brush_BathBack.jpg,3
81619,8:56:25,9,9,5.0.14.0,2,7,trial1,naming,0,0,0,0,toy box,0,6309,1,White_Screen.jpg,3,115,Chest_Toys.jpg,3
81619,8:56:25,9,9,5.0.14.0,2,8,trial1,naming,0,0,0,0,stool,0,6316,1,White_Screen.jpg,3,66,Stool_Wood.jpg,3
81619,8:56:25,9,9,5.0.14.0,2,9,trial1,naming,0,0,0,0,paddle,0,5905,1,White_Screen.jpg,3,12,Paddle_Beach.jpg,3
81619,8:56:25,9,9,5.0.14.0,2,10,trial1,naming,0,0,0,0,chair,0,8266,1,White_Screen.jpg,1,191,Table_Magazine.jpg,1
81619,8:56:25,9,9,5.0.14.0,2,11,trial1,naming,0,0,0,0,gift,0,6058,1,White_Screen.jpg,3,122,Box_Present.jpg,3
81619,8:56:25,9,9,5.0.14.0,2,12,trial1,naming,0,0,0,0,roast turkey,0,8612,1,White_Screen.jpg,3,87,TurkeyDinner.jpg,3
81619,8:56:25,9,9,5.0.14.0,2,13,trial1,naming,0,0,0,0,space shuttle,0,8086,1,White_Screen.jpg,3,198,SpaceShuttle.jpg,3
81619,8:56:25,9,9,5.0.14.0,2,14,trial1,naming,0,0,0,0,telephone,0,7815,1,White_Screen.jpg,3,1,Telephone_DialAntique.jpg,3
81619,8:56:25,9,9,5.0.14.0,2,15,trial1,naming,0,0,0,0,chess piece,0,8700,1,White_Screen.jpg,3,95,ChessPiece_Knight.jpg,3
81619,8:56:25,9,9,5.0.14.0,2,16,trial1,naming,0,0,0,0,baster,0,5690,1,White_Screen.jpg,3,18,Baster.jpg,3
81619,8:56:25,9,9,5.0.14.0,2,17,trial1,naming,0,0,0,0,crate,0,5732,1,White_Screen.jpg,3,40,Box_WoodCrate.jpg,3
81619,8:56:25,9,9,5.0.14.0,2,18,trial1,naming,0,0,0,0,range,0,6250,1,White_Screen.jpg,3,52,Oven.jpg,3
81619,8:56:25,9,9,5.0.14.0,2,19,trial1,naming,0,0,0,0,sled,0,6434,1,White_Screen.jpg,4,140,Sled.jpg,4
81619,8:56:25,9,9,5.0.14.0,2,20,trial1,naming,0,0,0,0,clothespin,0,7723,1,White_Screen.jpg,3,20,Clothespin_Red.jpg,3
81619,8:56:25,9,9,5.0.14.0,2,21,trial1,naming,0,0,0,0,spigot,0,8583,1,White_Screen.jpg,3,100,Faucet.jpg,3
81619,8:56:25,9,9,5.0.14.0,2,22,trial1,naming,0,0,0,0,toy,0,5584,1,White_Screen.jpg,3,41,Toy_ModelMolecule.jpg,3
81619,8:56:25,9,9,5.0.14.0,2,23,trial1,naming,0,0,0,0,canteen,0,5516,1,White_Screen.jpg,4,46,Canteen.jpg,4
81619,8:56:25,9,9,5.0.14.0,2,24,trial1,naming,0,0,0,0,hair trimmer,0,8749,1,White_Screen.jpg,3,106,HairClipper.jpg,3
81619,8:56:25,9,9,5.0.14.0,2,25,trial1,naming,0,0,0,0,tray,0,5512,1,White_Screen.jpg,4,57,Tray_Wooden.jpg,4
81619,8:56:25,9,9,5.0.14.0,2,26,trial1,naming,0,0,0,0,cigar cutter,0,6917,1,White_Screen.jpg,3,96,CigarCutter.jpg,3
81619,8:56:25,9,9,5.0.14.0,2,27,trial1,naming,0,0,0,0,goat,0,5580,1,White_Screen.jpg,3,6,Goat.jpg,3
81619,8:56:25,9,9,5.0.14.0,2,28,trial1,naming,0,0,0,0,oven rack,0,6633,1,White_Screen.jpg,3,5,GrillRack.jpg,3
81619,8:56:25,9,9,5.0.14.0,2,29,trial1,naming,0,0,0,0,toy truck,0,7452,1,White_Screen.jpg,48,180,Toy_Firetruck.jpg,48
81619,8:56:25,9,9,5.0.14.0,2,30,trial1,naming,0,0,0,0,screw,0,5995,1,White_Screen.jpg,3,83,Screw.jpg,3
81619,8:56:25,9,9,5.0.14.0,2,31,trial1,naming,0,0,0,0,dress,0,5105,1,White_Screen.jpg,3,118,Dress_Blue.jpg,3
81619,8:56:25,9,9,5.0.14.0,2,32,trial1,naming,0,0,0,0,toy,0,7385,1,White_Screen.jpg,3,183,Toy_DollOffice.jpg,3
81619,8:56:25,9,9,5.0.14.0,2,33,trial1,naming,0,0,0,0,hay bale,0,6240,1,White_Screen.jpg,3,25,Hay.jpg,3
81619,8:56:25,9,9,5.0.14.0,2,34,trial1,naming,0,0,0,0,gameboy,0,7266,1,White_Screen.jpg,3,159,Gameboy.jpg,3
81619,8:56:25,9,9,5.0.14.0,2,35,trial1,naming,0,0,0,0,domino,0,5344,1,White_Screen.jpg,4,73,Domino.jpg,4
81619,8:56:25,9,9,5.0.14.0,2,36,trial1,naming,0,0,0,0,utility knife,0,8966,1,White_Screen.jpg,3,132,Boxcutter.jpg,3
81619,8:56:25,9,9,5.0.14.0,2,37,trial1,naming,0,0,0,0,paintbr  r,0,10000,1,White_Screen.jpg,3,116,PaintRollTray.jpg,3
81619,8:56:25,9,9,5.0.14.0,2,38,trial1,naming,0,0,0,0,,0,10000,1,White_Screen.jpg,3,69,Hoverboard.jpg,3
81619,8:56:25,9,9,5.0.14.0,2,39,trial1,naming,0,0,0,0,hat,0,7813,1,White_Screen.jpg,3,177,Yarmulke.jpg,3
81619,8:56:25,9,9,5.0.14.0,2,40,trial1,naming,0,0,0,0,wine holder,0,9562,1,White_Screen.jpg,4,16,Jug_Wicker.jpg,4
81619,8:56:25,9,9,5.0.14.0,2,41,trial1,naming,0,0,0,0,scroll,0,5547,1,White_Screen.jpg,40,90,Scroll.jpg,40
81619,8:56:25,9,9,5.0.14.0,2,42,trial1,naming,0,0,0,0,police tape,0,6609,1,White_Screen.jpg,3,155,PoliceTape.jpg,3
81619,8:56:25,9,9,5.0.14.0,2,43,trial1,naming,0,0,0,0,game board,0,8706,1,White_Screen.jpg,3,162,Boardgame_ChineseCheckers.jpg,3
81619,8:56:25,9,9,5.0.14.0,2,44,trial1,naming,0,0,0,0,shishkabob,0,9015,1,White_Screen.jpg,52,168,Kebab_Vegetables.jpg,52
81619,8:56:25,9,9,5.0.14.0,2,45,trial1,naming,0,0,0,0,bagpipes,0,6856,1,White_Screen.jpg,49,146,Bagpipes.jpg,49
81619,8:56:25,9,9,5.0.14.0,2,46,trial1,naming,0,0,0,0,lab burner,0,9634,1,White_Screen.jpg,3,98,Stove_Propane.jpg,3
81619,8:56:25,9,9,5.0.14.0,2,47,trial1,naming,0,0,0,0,toy tank,0,6209,1,White_Screen.jpg,3,67,Toy_Tank.jpg,3
81619,8:56:25,9,9,5.0.14.0,2,48,trial1,naming,0,0,0,0,emery boards,0,9293,1,White_Screen.jpg,1,119,NailFiles.jpg,1
81619,8:56:25,9,9,5.0.14.0,2,49,trial1,naming,0,0,0,0,pill bottle,0,8723,1,White_Screen.jpg,3,91,PillBottle_Closed.jpg,3
81619,8:56:25,9,9,5.0.14.0,2,50,trial1,naming,0,0,0,0,ribbon,0,6629,1,White_Screen.jpg,3,111,RibbonSpool.jpg,3
81619,8:56:25,9,9,5.0.14.0,2,52,trial1,naming,0,0,0,0,caterpillar,0,7933,1,White_Screen.jpg,42,42,Caterpillar.jpg,42
81619,8:56:25,9,9,5.0.14.0,2,53,trial1,naming,0,0,0,0,toy rings,0,9638,1,White_Screen.jpg,3,165,Toy_Wooden rings.jpg,3
81619,8:56:25,9,9,5.0.14.0,2,54,trial1,naming,0,0,0,0,barometer,0,6848,1,White_Screen.jpg,4,59,Barometer.jpg,4
81619,8:56:25,9,9,5.0.14.0,2,55,trial1,naming,0,0,0,0,sea sponge,0,10000,1,White_Screen.jpg,3,166,Coral.jpg,3
81619,8:56:25,9,9,5.0.14.0,2,56,trial1,naming,0,0,0,0,Enter Name,0,357,1,White_Screen.jpg,3,178,ChewingGum.jpg,3
81619,8:56:25,9,9,5.0.14.0,2,57,trial1,naming,0,0,0,0,paint can,0,8504,1,White_Screen.jpg,3,194,PaintCan.jpg,3
81619,8:56:25,9,9,5.0.14.0,2,58,trial1,naming,0,0,0,0,scalpel,0,7561,1,White_Screen.jpg,3,139,Scalpel.jpg,3
81619,8:56:25,9,9,5.0.14.0,2,59,trial1,naming,0,0,0,0,panda,0,5307,1,White_Screen.jpg,4,22,Panda.jpg,4
81619,8:56:25,9,9,5.0.14.0,2,60,trial1,naming,0,0,0,0,toy motorcycle,0,9180,1,White_Screen.jpg,3,176,Toy_Motorcycle.jpg,3
81619,8:56:25,9,9,5.0.14.0,2,61,trial1,naming,0,0,0,0,binder divider,0,9613,1,White_Screen.jpg,4,135,FileDivider.jpg,4
81619,8:56:25,9,9,5.0.14.0,2,62,trial1,naming,0,0,0,0,trash can,0,8579,1,White_Screen.jpg,3,15,Cup_Bathroom.jpg,3
81619,8:56:25,9,9,5.0.14.0,2,63,trial1,naming,0,0,0,0,car battery,0,6826,1,White_Screen.jpg,3,19,Battery_Car.jpg,3
81619,8:56:25,9,9,5.0.14.0,2,64,trial1,naming,0,0,0,0,watermelon slice,0,7734,1,White_Screen.jpg,3,31,WatermelonSlice.jpg,3
81619,8:56:25,9,9,5.0.14.0,2,65,trial1,naming,0,0,0,0,book,0,6175,1,White_Screen.jpg,3,45,Book_Leather.jpg,3
81619,8:56:25,9,9,5.0.14.0,2,66,trial1,naming,0,0,0,0,hammer,0,6791,1,White_Screen.jpg,5,33,Hammer_Reflex.jpg,5
81619,8:56:25,9,9,5.0.14.0,2,67,trial1,naming,0,0,0,0,three,0,7868,1,White_Screen.jpg,4,78,Magnet_Three.jpg,4
81619,8:56:25,9,9,5.0.14.0,2,68,trial1,naming,0,0,0,0,phone,0,9331,1,White_Screen.jpg,38,163,Phone_Wireless.jpg,38
81619,8:56:25,9,9,5.0.14.0,2,69,trial1,naming,0,0,0,0,saw,0,4664,1,White_Screen.jpg,3,161,Saw.jpg,3
81619,8:56:25,9,9,5.0.14.0,2,70,trial1,naming,0,0,0,0,crutches,0,6094,1,White_Screen.jpg,1,182,Crutches.jpg,1
81619,8:56:25,9,9,5.0.14.0,2,71,trial1,naming,0,0,0,0,cabinet,0,7948,1,White_Screen.jpg,3,36,Cabinet_Display.jpg,3
81619,8:56:25,9,9,5.0.14.0,2,72,trial1,naming,0,0,0,0,prom dress,0,6985,1,White_Screen.jpg,3,113,Dress_Party.jpg,3
81619,8:56:25,9,9,5.0.14.0,2,73,trial1,naming,0,0,0,0,ferry,0,8137,1,White_Screen.jpg,3,102,Boat_Ferry.jpg,3
81619,8:56:25,9,9,5.0.14.0,2,74,trial1,naming,0,0,0,0,tiger,0,5235,1,White_Screen.jpg,3,195,TigerWhite.jpg,3
81619,8:56:25,9,9,5.0.14.0,2,75,trial1,naming,0,0,0,0,letter box,0,7749,1,White_Screen.jpg,4,110,Mailbox_Antique.jpg,4
81619,8:56:25,9,9,5.0.14.0,2,76,trial1,naming,0,0,0,0,door lock,0,10000,1,White_Screen.jpg,3,188,CodeDoorLock.jpg,3
81619,8:56:25,9,9,5.0.14.0,2,77,trial1,naming,0,0,0,0,Enter Name,0,95,1,White_Screen.jpg,3,169,Glass_Ball.jpg,3
81619,8:56:25,9,9,5.0.14.0,2,78,trial1,naming,0,0,0,0,w,0,10000,1,White_Screen.jpg,42,137,White_Screen.jpg,42
81619,8:56:25,9,9,5.0.14.0,2,79,trial1,naming,0,0,0,0,box,0,6721,1,White_Screen.jpg,3,93,Box_Floral.jpg,3
81619,8:56:25,9,9,5.0.14.0,2,80,trial1,naming,0,0,0,0,doll,0,4353,1,White_Screen.jpg,3,35,Doll_Rag.jpg,3
81619,8:56:25,9,9,5.0.14.0,2,81,trial1,naming,0,0,0,0,jigsaw puzzle,0,9189,1,White_Screen.jpg,4,97,Puzzle_Animal.jpg,4
81619,8:56:25,9,9,5.0.14.0,2,82,trial1,naming,0,0,0,0,license plate,0,8453,1,White_Screen.jpg,3,190,LicensePlate.jpg,3
81619,8:56:25,9,9,5.0.14.0,2,83,trial1,naming,0,0,0,0,bbq mop,0,7278,1,White_Screen.jpg,3,29,Mop.jpg,3
81619,8:56:25,9,9,5.0.14.0,2,84,trial1,naming,0,0,0,0,sword,0,5161,1,White_Screen.jpg,4,30,Sword.jpg,4
81619,8:56:25,9,9,5.0.14.0,2,85,trial1,naming,0,0,0,0,dumbell,0,7873,1,White_Screen.jpg,3,58,Weights_Dumbells.jpg,3
81619,8:56:25,9,9,5.0.14.0,2,86,trial1,naming,0,0,0,0,deer,0,7145,1,White_Screen.jpg,45,184,Nyala.jpg,45
81619,8:56:25,9,9,5.0.14.0,2,87,trial1,naming,0,0,0,0,basket,0,5193,1,White_Screen.jpg,3,124,Basket_Straw.jpg,3
81619,8:56:25,9,9,5.0.14.0,2,88,trial1,naming,0,0,0,0,cane,0,4705,1,White_Screen.jpg,3,129,Cane_Metal.jpg,3
81619,8:56:25,9,9,5.0.14.0,2,89,trial1,naming,0,0,0,0,fruit,0,5372,1,White_Screen.jpg,3,64,PassionFruit.jpg,3
81619,8:56:25,9,9,5.0.14.0,2,90,trial1,naming,0,0,0,0,eathh mover,0,8094,1,White_Screen.jpg,3,4,Tractor_Yellow.jpg,3
81619,8:56:25,9,9,5.0.14.0,2,91,trial1,naming,0,0,0,0,water fountain,0,7373,1,White_Screen.jpg,3,153,DrinkingFountain.jpg,3
81619,8:56:25,9,9,5.0.14.0,2,92,trial1,naming,0,0,0,0,papers,0,6276,1,White_Screen.jpg,3,75,PaperStack.jpg,3
81619,8:56:25,9,9,5.0.14.0,2,93,trial1,naming,0,0,0,0,sailboat,0,6787,1,White_Screen.jpg,3,179,Boat_Sail.jpg,3
81619,8:56:25,9,9,5.0.14.0,2,94,trial1,naming,0,0,0,0,chicken,0,7716,1,White_Screen.jpg,3,84,Bird_Hen.jpg,3
81619,8:56:25,9,9,5.0.14.0,2,95,trial1,naming,0,0,0,0,sign,0,5439,1,White_Screen.jpg,3,170,Sign_TrafficArrow.jpg,3
81619,8:56:25,9,9,5.0.14.0,2,96,trial1,naming,0,0,0,0,F1 key,0,6800,1,White_Screen.jpg,3,127,ComputerKeyboard_F1.jpg,3
81619,8:56:25,9,9,5.0.14.0,2,97,trial1,naming,0,0,0,0,toy,0,6979,1,White_Screen.jpg,41,49,Toy_Ladybug.jpg,41
81619,8:56:25,9,9,5.0.14.0,2,98,trial1,naming,0,0,0,0,christmas planr,0,10000,1,White_Screen.jpg,3,38,Tree_ChristmasMini.jpg,3
81619,8:56:25,9,9,5.0.14.0,2,99,trial1,naming,0,0,0,0,shish ka,0,10000,1,White_Screen.jpg,3,172,Kebab_Meat.jpg,3
81619,8:56:25,9,9,5.0.14.0,2,100,trial1,naming,0,0,0,0,playing card,0,8914,1,White_Screen.jpg,3,120,Card_TwoSpade.jpg,3
81619,8:56:25,9,9,5.0.14.0,2,101,trial1,naming,0,0,0,0,coaster track,0,9551,1,White_Screen.jpg,3,134,RollerCoaster.jpg,3
81619,8:56:25,9,9,5.0.14.0,2,103,trial1,naming,0,0,0,0,electric s,0,10000,1,White_Screen.jpg,3,7,MobilityScooter.jpg,3
81619,8:56:25,9,9,5.0.14.0,2,104,trial1,naming,0,0,0,0,breast pump,0,8063,1,White_Screen.jpg,3,173,PumpBreast.jpg,3
81619,8:56:25,9,9,5.0.14.0,2,105,trial1,naming,0,0,0,0,violin,0,7489,1,White_Screen.jpg,3,55,DoubleBass.jpg,3
81619,8:56:25,9,9,5.0.14.0,2,106,trial1,naming,0,0,0,0,gift bag,0,6750,1,White_Screen.jpg,48,56,Bag_Gift.jpg,48
81619,8:56:25,9,9,5.0.14.0,2,107,trial1,naming,0,0,0,0,flashlight,0,6573,1,White_Screen.jpg,3,174,Flashlight.jpg,3
81619,8:56:25,9,9,5.0.14.0,2,108,trial1,naming,0,0,0,0,paper shredder,0,7846,1,White_Screen.jpg,5,197,PaperShredder.jpg,5
81619,8:56:25,9,9,5.0.14.0,2,109,trial1,naming,0,0,0,0,pasta,0,6066,1,White_Screen.jpg,3,185,Pasta_Fettuccine.jpg,3
81619,8:56:25,9,9,5.0.14.0,2,110,trial1,naming,0,0,0,0,drumsticks,0,7362,1,White_Screen.jpg,4,142,Stick_Drum.jpg,4
81619,8:56:25,9,9,5.0.14.0,2,111,trial1,naming,0,0,0,0,bows and arrows,0,8584,1,White_Screen.jpg,3,196,Archery_ArrowsBows.jpg,3
81619,8:56:25,9,9,5.0.14.0,2,112,trial1,naming,0,0,0,0,prybar,0,6765,1,White_Screen.jpg,3,53,Crowbar.jpg,3
81619,8:56:25,9,9,5.0.14.0,2,113,trial1,naming,0,0,0,0,gutter system,0,8551,1,White_Screen.jpg,3,112,GutterAndDrainPipe.jpg,3
81619,8:56:25,9,9,5.0.14.0,2,114,trial1,naming,0,0,0,0,airhockey table,0,9267,1,White_Screen.jpg,4,17,Gametable_AirHockey.jpg,4
81619,8:56:25,9,9,5.0.14.0,2,115,trial1,naming,0,0,0,0,spatula,0,7289,1,White_Screen.jpg,4,92,Spatula.jpg,4
81619,8:56:25,9,9,5.0.14.0,2,116,trial1,naming,0,0,0,0,top,0,4277,1,White_Screen.jpg,3,199,Toy_Top.jpg,3
81619,8:56:25,9,9,5.0.14.0,2,117,trial1,naming,0,0,0,0,street sweeper,0,6986,1,White_Screen.jpg,4,148,StreetSweeper.jpg,4
81619,8:56:25,9,9,5.0.14.0,2,118,trial1,naming,0,0,0,0,plate,0,8633,1,White_Screen.jpg,3,26,Plate_Children.jpg,3
81619,8:56:25,9,9,5.0.14.0,2,119,trial1,naming,0,0,0,0,wreath,0,5933,1,White_Screen.jpg,4,187,Wreath.jpg,4
81619,8:56:25,9,9,5.0.14.0,2,120,trial1,naming,0,0,0,0,dragonfly,0,6654,1,White_Screen.jpg,47,94,Dragonfly.jpg,47
81619,8:56:25,9,9,5.0.14.0,2,121,trial1,naming,0,0,0,0,alarm system,0,8846,1,White_Screen.jpg,3,14,AlarmSystem.jpg,3
81619,8:56:25,9,9,5.0.14.0,2,122,trial1,naming,0,0,0,0,toy dinosaur,0,7821,1,White_Screen.jpg,3,125,Toy_DinosaurBrontosaurus.jpg,3
81619,8:56:25,9,9,5.0.14.0,2,123,trial1,naming,0,0,0,0,clam,0,4825,1,White_Screen.jpg,4,181,Clam.jpg,4
81619,8:56:25,9,9,5.0.14.0,2,124,trial1,naming,0,0,0,0,jumper cables,0,7500,1,White_Screen.jpg,3,81,Cable_JumpStart.jpg,3
81619,8:56:25,9,9,5.0.14.0,2,125,trial1,naming,0,0,0,0,heater,0,7165,1,White_Screen.jpg,3,147,Stove_Camping.jpg,3
81619,8:56:25,9,9,5.0.14.0,2,126,trial1,naming,0,0,0,0,pail,0,5354,1,White_Screen.jpg,4,9,Bucket_Rusty.jpg,4
81619,8:56:25,9,9,5.0.14.0,2,127,trial1,naming,0,0,0,0,hairnet,0,7026,1,White_Screen.jpg,3,114,ShowerCap.jpg,3
81619,8:56:25,9,9,5.0.14.0,2,128,trial1,naming,0,0,0,0,can opener,0,5905,1,White_Screen.jpg,3,192,CanOpener.jpg,3
81619,8:56:25,9,9,5.0.14.0,2,129,trial1,naming,0,0,0,0,gas mask,0,7282,1,White_Screen.jpg,1,189,Mask_Gas.jpg,1
81619,8:56:25,9,9,5.0.14.0,2,130,trial1,naming,0,0,0,0,gate,0,5328,1,White_Screen.jpg,3,77,GatedEntrance.jpg,3
81619,8:56:25,9,9,5.0.14.0,2,131,trial1,naming,0,0,0,0,cabinet,0,6320,1,White_Screen.jpg,3,158,Cabinet_Office.jpg,3
81619,8:56:25,9,9,5.0.14.0,2,132,trial1,naming,0,0,0,0,grandfather clock,0,9036,1,White_Screen.jpg,3,32,Clock_Grandfather.jpg,3
81619,8:56:25,9,9,5.0.14.0,2,133,trial1,naming,0,0,0,0,earring,0,7103,1,White_Screen.jpg,4,138,Earring_Hoop.jpg,4
81619,8:56:25,9,9,5.0.14.0,2,134,trial1,naming,0,0,0,0,scooper,0,7126,1,White_Screen.jpg,3,154,LitterScoop.jpg,3
81619,8:56:25,9,9,5.0.14.0,2,135,trial1,naming,0,0,0,0,baby socks,0,7497,1,White_Screen.jpg,3,74,Socks_Baby.jpg,3
81619,8:56:25,9,9,5.0.14.0,2,136,trial1,naming,0,0,0,0,crib,0,4742,1,White_Screen.jpg,3,150,Crib_Standard.jpg,3
81619,8:56:25,9,9,5.0.14.0,2,137,trial1,naming,0,0,0,0,coffin,0,4941,1,White_Screen.jpg,3,62,CasketOpen.jpg,3
81619,8:56:25,9,9,5.0.14.0,2,138,trial1,naming,0,0,0,0,rubber stamp,0,8113,1,White_Screen.jpg,3,8,Stamp.jpg,3
81619,8:56:25,9,9,5.0.14.0,2,139,trial1,naming,0,0,0,0,mat,0,4518,1,White_Screen.jpg,4,131,Mat_Bamboo.jpg,4
81619,8:56:25,9,9,5.0.14.0,2,140,trial1,naming,0,0,0,0,bowl,0,5090,1,White_Screen.jpg,3,10,ContactLens.jpg,3
81619,8:56:25,9,9,5.0.14.0,2,141,trial1,naming,0,0,0,0,sand,0,6827,1,White_Screen.jpg,3,186,Bag_PaperWithFlour.jpg,3
81619,8:56:25,9,9,5.0.14.0,2,142,trial1,naming,0,0,0,0,shorts,0,6195,1,White_Screen.jpg,3,80,Shorts_Plaid.jpg,3
81619,8:56:25,9,9,5.0.14.0,2,143,trial1,naming,0,0,0,0,necktie,0,7152,1,White_Screen.jpg,3,103,Tie.jpg,3
81619,8:56:25,9,9,5.0.14.0,2,144,trial1,naming,0,0,0,0,ping pong paddle,0,8265,1,White_Screen.jpg,3,88,Paddle_PingPong.jpg,3
81619,8:56:25,9,9,5.0.14.0,2,145,trial1,naming,0,0,0,0,floss,0,7075,1,White_Screen.jpg,3,136,DentalFloss.jpg,3
81619,8:56:25,9,9,5.0.14.0,2,146,trial1,naming,0,0,0,0,jug,0,7014,1,White_Screen.jpg,5,82,Jug_GallonWhite.jpg,5
81619,8:56:25,9,9,5.0.14.0,2,147,trial1,naming,0,0,0,0,teapot,0,7119,1,White_Screen.jpg,4,99,Teapot.jpg,4
81619,8:56:25,9,9,5.0.14.0,2,148,trial1,naming,0,0,0,0,giraffe,0,6642,1,White_Screen.jpg,3,24,Giraffe.jpg,3
81619,8:56:25,9,9,5.0.14.0,2,149,trial1,naming,0,0,0,0,stands,0,7290,1,White_Screen.jpg,3,76,Bleachers.jpg,3
81619,8:56:25,9,9,5.0.14.0,2,150,trial1,naming,0,0,0,0,to,0,10000,1,White_Screen.jpg,3,3,Toy_TrailerAirport.jpg,3
81619,8:56:25,9,9,5.0.14.0,2,151,trial1,naming,0,0,0,0,waterer,0,10000,1,White_Screen.jpg,4,43,WateringCan_Antique.jpg,4
81619,8:56:25,9,9,5.0.14.0,2,152,trial1,naming,0,0,0,0,portable radio,0,8929,1,White_Screen.jpg,3,117,Clock_Radioalarm.jpg,3
81619,8:56:25,9,9,5.0.14.0,2,154,trial1,naming,0,0,0,0,knee brace,0,8684,1,White_Screen.jpg,3,89,Brace_Leg.jpg,3
81619,8:56:25,9,9,5.0.14.0,2,155,trial1,naming,0,0,0,0,collander,0,6448,1,White_Screen.jpg,3,39,Colander.jpg,3
81619,8:56:25,9,9,5.0.14.0,2,156,trial1,naming,0,0,0,0,soapdish,0,7127,1,White_Screen.jpg,4,27,SoapDish.jpg,4
81619,8:56:25,9,9,5.0.14.0,2,157,trial1,naming,0,0,0,0,slipper,0,5061,1,White_Screen.jpg,48,175,Slippers.jpg,48
81619,8:56:25,9,9,5.0.14.0,2,158,trial1,naming,0,0,0,0,pencil holder,0,9147,1,White_Screen.jpg,4,65,PenHolder.jpg,4
81619,8:56:25,9,9,5.0.14.0,2,159,trial1,naming,0,0,0,0,jack in the box,0,8079,1,White_Screen.jpg,3,60,Toy_JackInTheBox.jpg,3
81619,8:56:25,9,9,5.0.14.0,2,160,trial1,naming,0,0,0,0,denim jacket,0,7199,1,White_Screen.jpg,4,144,Jacket_Jean.jpg,4
81619,8:56:25,9,9,5.0.14.0,2,161,trial1,naming,0,0,0,0,dreamcatcher,0,6845,1,White_Screen.jpg,37,47,Dreamcatcher.jpg,37
81619,8:56:25,9,9,5.0.14.0,2,162,trial1,naming,0,0,0,0,spine,0,6597,1,White_Screen.jpg,3,109,SpinalCord.jpg,3
81619,8:56:25,9,9,5.0.14.0,2,163,trial1,naming,0,0,0,0,police badge,0,6607,1,White_Screen.jpg,3,152,BadgeSpecialAgent.jpg,3
81619,8:56:25,9,9,5.0.14.0,2,164,trial1,naming,0,0,0,0,shaving brush,0,8591,1,White_Screen.jpg,3,54,Brush_Shaving.jpg,3
81619,8:56:25,9,9,5.0.14.0,2,165,trial1,naming,0,0,0,0,umbrella,0,5611,1,White_Screen.jpg,3,79,Umbrella_Retractable.jpg,3
81619,8:56:25,9,9,5.0.14.0,2,166,trial1,naming,0,0,0,0,canister,0,6084,1,White_Screen.jpg,37,61,MilkJug.jpg,37
81619,8:56:25,9,9,5.0.14.0,2,167,trial1,naming,0,0,0,0,dental mirror,0,7780,1,White_Screen.jpg,3,86,Mirror_Dental.jpg,3
81619,8:56:25,9,9,5.0.14.0,2,168,trial1,naming,0,0,0,0,asparagus,0,6005,1,White_Screen.jpg,1,105,Asparagus.jpg,1
81619,8:56:25,9,9,5.0.14.0,2,169,trial1,naming,0,0,0,0,hard hat,0,6981,1,White_Screen.jpg,4,51,Helmet_Construction.jpg,4
81619,8:56:25,9,9,5.0.14.0,2,170,trial1,naming,0,0,0,0,macaroni,0,7599,1,White_Screen.jpg,4,143,Pasta_Macaroni.jpg,4
81619,8:56:25,9,9,5.0.14.0,2,171,trial1,naming,0,0,0,0,hairclip,0,6470,1,White_Screen.jpg,3,141,HairClip.jpg,3
81619,8:56:25,9,9,5.0.14.0,2,172,trial1,naming,0,0,0,0,fire hydrant,0,7115,1,White_Screen.jpg,45,72,FireHydrant.jpg,45
81619,8:56:25,9,9,5.0.14.0,2,173,trial1,naming,0,0,0,0,toy boat,0,7150,1,White_Screen.jpg,3,71,Toy_Boat.jpg,3
81619,8:56:25,9,9,5.0.14.0,2,174,trial1,naming,0,0,0,0,polish,0,7632,1,White_Screen.jpg,3,133,NailPolish.jpg,3
81619,8:56:25,9,9,5.0.14.0,2,175,trial1,naming,0,0,0,0,pen set,0,7452,1,White_Screen.jpg,4,149,PenStand.jpg,4
81619,8:56:25,9,9,5.0.14.0,2,176,trial1,naming,0,0,0,0,horseshoe crab,0,10000,1,White_Screen.jpg,3,50,HorseshoeCrab.jpg,3
81619,8:56:25,9,9,5.0.14.0,2,177,trial1,naming,0,0,0,0,knight,0,10000,1,White_Screen.jpg,3,123,Helmet_Knight.jpg,3
81619,8:56:25,9,9,5.0.14.0,2,178,trial1,naming,0,0,0,0,serving dish,0,9860,1,White_Screen.jpg,3,164,ButterDish.jpg,3
81619,8:56:25,9,9,5.0.14.0,2,179,trial1,naming,0,0,0,0,doghouse,0,5384,1,White_Screen.jpg,3,107,DogHouse.jpg,3
81619,8:56:25,9,9,5.0.14.0,2,180,trial1,naming,0,0,0,0,washing machine,0,10000,1,White_Screen.jpg,3,48,WashingMachine.jpg,3
81619,8:56:25,9,9,5.0.14.0,2,181,trial1,naming,0,0,0,0,birthday cake,0,7389,1,White_Screen.jpg,42,11,Cake_Birthday.jpg,42
81619,8:56:25,9,9,5.0.14.0,2,182,trial1,naming,0,0,0,0,sigar cox,0,10000,1,White_Screen.jpg,3,171,CigarCase.jpg,3
81619,8:56:25,9,9,5.0.14.0,2,183,trial1,naming,0,0,0,0,chest of drawes,0,10000,1,White_Screen.jpg,4,108,Dresser.jpg,4
81619,8:56:25,9,9,5.0.14.0,2,184,trial1,naming,0,0,0,0,water heater,0,6726,1,White_Screen.jpg,3,2,WaterHeater.jpg,3
81619,8:56:25,9,9,5.0.14.0,2,185,trial1,naming,0,0,0,0,makeup bag,0,7082,1,White_Screen.jpg,4,126,Makeup_Bag.jpg,4
81619,8:56:25,9,9,5.0.14.0,2,186,trial1,naming,0,0,0,0,brush,0,5470,1,White_Screen.jpg,4,44,Brush_Cleaning.jpg,4
81619,8:56:25,9,9,5.0.14.0,2,187,trial1,naming,0,0,0,0,hockey stick,0,8209,1,White_Screen.jpg,3,193,Stick_IceHockey.jpg,3
81619,8:56:25,9,9,5.0.14.0,2,188,trial1,naming,0,0,0,0,sphinx,0,6623,1,White_Screen.jpg,17,151,Sphinx.jpg,17
81619,8:56:25,9,9,5.0.14.0,2,189,trial1,naming,0,0,0,0,shoelace,0,6965,1,White_Screen.jpg,3,21,ShoeLace_Flat.jpg,3
81619,8:56:25,9,9,5.0.14.0,2,190,trial1,naming,0,0,0,0,gloves,0,4902,1,White_Screen.jpg,3,68,Gloves_WhiteKnit.jpg,3
81619,8:56:25,9,9,5.0.14.0,2,191,trial1,naming,0,0,0,0,padlock,0,5113,1,White_Screen.jpg,3,70,Lock_Key.jpg,3
81619,8:56:25,9,9,5.0.14.0,2,192,trial1,naming,0,0,0,0,lab eq,0,10000,1,White_Screen.jpg,3,13,Centrifuge.jpg,3
81619,8:56:25,9,9,5.0.14.0,2,193,trial1,naming,0,0,0,0,orange,0,5429,1,White_Screen.jpg,47,200,Fruit_Orange.jpg,47
81619,8:56:25,9,9,5.0.14.0,2,194,trial1,naming,0,0,0,0,seashell,0,6339,1,White_Screen.jpg,4,157,Seashell_AlternateTellin.jpg,4
81619,8:56:25,9,9,5.0.14.0,2,195,trial1,naming,0,0,0,0,dentist tools,0,9280,1,White_Screen.jpg,3,128,Tray_Medical.jpg,3
81619,8:56:25,9,9,5.0.14.0,2,196,trial1,naming,0,0,0,0,rock,0,5342,1,White_Screen.jpg,3,156,GoldNugget.jpg,3
81619,8:56:25,9,9,5.0.14.0,2,197,trial1,naming,0,0,0,0,candleholder,0,8398,1,White_Screen.jpg,3,23,Candleholder_Tall.jpg,3
81619,8:56:25,9,9,5.0.14.0,2,198,trial1,naming,0,0,0,0,basketball,0,5681,1,White_Screen.jpg,4,104,Ball_Basketball.jpg,4
81619,8:56:25,9,9,5.0.14.0,2,199,trial1,naming,0,0,0,0,bouqet,0,8395,1,White_Screen.jpg,3,63,Flowers_DryBouquet.jpg,3
81619,8:56:25,9,9,5.0.14.0,2,200,trial1,naming,0,0,0,0,sandcastle,0,6430,1,White_Screen.jpg,3,37,Castle_Sand.jpg,3
81619,8:56:25,9,9,5.0.14.0,2,201,trial1,naming,0,0,0,0,rgb connector,0,10000,1,White_Screen.jpg,3,121,VGAport.jpg,3
81619,8:56:25,9,9,5.0.14.0,2,202,trial1,naming,0,0,0,0,toolbox,0,6093,1,White_Screen.jpg,4,85,Toolbox_Old.jpg,4
81619,8:56:25,9,9,5.0.14.0,2,203,trial1,naming,0,0,0,0,pretzel,0,5757,1,White_Screen.jpg,3,101,Pretzel_Knot.jpg,3
81619,8:56:25,9,9,5.0.14.0,3,1,demographics_block,gender,0,0,0,0,Male,1,20929,0,0,0,0,0,0
81619,8:56:25,9,9,5.0.14.0,3,1,demographics_block,age,0,0,0,0,58,1,20929,0,0,0,0,0,0
81619,8:56:25,9,9,5.0.14.0,3,1,demographics_block,education,0,0,0,0,16,1,20929,0,0,0,0,0,0
81619,8:56:25,9,9,5.0.14.0,3,2,demographics_block,left_right_handed,0,0,0,0,Right,1,6334,0,0,0,0,0,0
81619,8:56:25,9,9,5.0.14.0,3,2,demographics_block,raceoption1,0,0,0,0,0,1,6334,0,0,0,0,0,0
81619,8:56:25,9,9,5.0.14.0,3,2,demographics_block,raceoption2,0,0,0,0,,1,6334,0,0,0,0,0,0
81619,8:56:25,9,9,5.0.14.0,3,2,demographics_block,raceoption3,0,0,0,0,,1,6334,0,0,0,0,0,0
81619,8:56:25,9,9,5.0.14.0,3,2,demographics_block,raceoption4,0,0,0,0,,1,6334,0,0,0,0,0,0
81619,8:56:25,9,9,5.0.14.0,3,2,demographics_block,raceoption5,0,0,0,0,,1,6334,0,0,0,0,0,0
81619,8:56:25,9,9,5.0.14.0,3,2,demographics_block,raceoption6,0,0,0,0,,1,6334,0,0,0,0,0,0
81619,8:56:25,9,9,5.0.14.0,3,2,demographics_block,raceoption7,0,0,0,0,,1,6334,0,0,0,0,0,0
81619,8:56:25,9,9,5.0.14.0,3,2,demographics_block,raceoption8,0,0,0,0,,1,6334,0,0,0,0,0,0
81619,8:56:25,9,9,5.0.14.0,3,2,demographics_block,raceoption9,0,0,0,0,,1,6334,0,0,0,0,0,0
81619,8:56:25,9,9,5.0.14.0,3,2,demographics_block,raceother,0,0,0,0,,1,6334,0,0,0,0,0,0
81619,8:56:25,9,9,5.0.14.0,3,2,demographics_block,raceother,0,0,0,0,,1,6334,0,0,0,0,0,0
81619,8:56:25,9,9,5.0.14.0,3,2,demographics_block,english_language,0,0,0,0,Yes,1,6334,0,0,0,0,0,0
81619,8:56:25,9,9,5.0.14.0,3,2,demographics_block,english_languageother,0,0,0,0,,1,6334,0,0,0,0,0,0
81619,8:56:25,9,9,5.0.14.0,3,3,demographics_block,eyesight,0,0,0,0,Yes,1,5054,0,0,0,0,0,0
81619,8:56:25,9,9,5.0.14.0,3,3,demographics_block,colorblind,0,0,0,0,No,1,5054,0,0,0,0,0,0
81619,8:56:25,9,9,5.0.14.0,4,1,worker_id_block,worker_id_textbox,0,0,0,0,A6JKKANO7F4KD,1,12631,0,0,0,0,0,0
81619,11:29:09,11,11,5.0.14.0,2,1,trial1,naming,0,0,0,0,roller coaster,0,7056,1,White_Screen.jpg,244,134,RollerCoaster.jpg,244
81619,11:29:09,11,11,5.0.14.0,2,2,trial1,naming,0,0,0,0,street sweeper,0,4623,1,White_Screen.jpg,10,148,StreetSweeper.jpg,10
81619,11:29:09,11,11,5.0.14.0,2,3,trial1,naming,0,0,0,0,water,0,3289,1,White_Screen.jpg,10,46,Canteen.jpg,10
81619,11:29:09,11,11,5.0.14.0,2,4,trial1,naming,0,0,0,0,paint bucket,0,3806,1,White_Screen.jpg,10,194,PaintCan.jpg,10
81619,11:29:09,11,11,5.0.14.0,2,5,trial1,naming,0,0,0,0,mop,0,5730,1,White_Screen.jpg,13,29,Mop.jpg,13
81619,11:29:09,11,11,5.0.14.0,2,6,trial1,naming,0,0,0,0,candy,0,4340,1,White_Screen.jpg,13,178,ChewingGum.jpg,13
81619,11:29:09,11,11,5.0.14.0,2,7,trial1,naming,0,0,0,0,toy,0,2518,1,White_Screen.jpg,12,41,Toy_ModelMolecule.jpg,12
81619,11:29:09,11,11,5.0.14.0,2,8,trial1,naming,0,0,0,0,lock,0,4171,1,White_Screen.jpg,12,70,Lock_Key.jpg,12
81619,11:29:09,11,11,5.0.14.0,2,9,trial1,naming,0,0,0,0,basketball,0,3386,1,White_Screen.jpg,11,104,Ball_Basketball.jpg,11
81619,11:29:09,11,11,5.0.14.0,2,10,trial1,naming,0,0,0,0,socks,0,3438,1,White_Screen.jpg,11,74,Socks_Baby.jpg,11
81619,11:29:09,11,11,5.0.14.0,2,11,trial1,naming,0,0,0,0,kettle,0,2933,1,White_Screen.jpg,10,99,Teapot.jpg,10
81619,11:29:09,11,11,5.0.14.0,2,12,trial1,naming,0,0,0,0,not sure,0,5228,1,White_Screen.jpg,10,184,Nyala.jpg,10
81619,11:29:09,11,11,5.0.14.0,2,13,trial1,naming,0,0,0,0,wooden spatula,0,4262,1,White_Screen.jpg,12,92,Spatula.jpg,12
81619,11:29:09,11,11,5.0.14.0,2,14,trial1,naming,0,0,0,0,f1 key,0,3218,1,White_Screen.jpg,12,127,ComputerKeyboard_F1.jpg,12
81619,11:29:09,11,11,5.0.14.0,2,15,trial1,naming,0,0,0,0,fire hydrant,0,4180,1,White_Screen.jpg,13,72,FireHydrant.jpg,13
81619,11:29:09,11,11,5.0.14.0,2,16,trial1,naming,0,0,0,0,gift,0,2893,1,White_Screen.jpg,27,122,Box_Present.jpg,27
81619,11:29:09,11,11,5.0.14.0,2,17,trial1,naming,0,0,0,0,divider,0,3800,1,White_Screen.jpg,12,135,FileDivider.jpg,12
81619,11:29:09,11,11,5.0.14.0,2,18,trial1,naming,0,0,0,0,shorts,0,3750,1,White_Screen.jpg,12,80,Shorts_Plaid.jpg,12
81619,11:29:09,11,11,5.0.14.0,2,19,trial1,naming,0,0,0,0,watermelon slice,0,4411,1,White_Screen.jpg,14,31,WatermelonSlice.jpg,14
81619,11:29:09,11,11,5.0.14.0,2,20,trial1,naming,0,0,0,0,vertebrae,0,3990,1,White_Screen.jpg,16,109,SpinalCord.jpg,16
81619,11:29:09,11,11,5.0.14.0,2,21,trial1,naming,0,0,0,0,satchel,0,3239,1,White_Screen.jpg,15,126,Makeup_Bag.jpg,15
81619,11:29:09,11,11,5.0.14.0,2,22,trial1,naming,0,0,0,0,kabobs,0,4081,1,White_Screen.jpg,14,172,Kebab_Meat.jpg,14
81619,11:29:09,11,11,5.0.14.0,2,23,trial1,naming,0,0,0,0,hackeysack,0,4249,1,White_Screen.jpg,10,177,Yarmulke.jpg,10
81619,11:29:09,11,11,5.0.14.0,2,24,trial1,naming,0,0,0,0,spool of ribbon,0,5391,1,White_Screen.jpg,15,111,RibbonSpool.jpg,15
81619,11:29:09,11,11,5.0.14.0,2,25,trial1,naming,0,0,0,0,watering can,0,3681,1,White_Screen.jpg,12,43,WateringCan_Antique.jpg,12
81619,11:29:09,11,11,5.0.14.0,2,26,trial1,naming,0,0,0,0,kitty litter scoop,0,5074,1,White_Screen.jpg,12,154,LitterScoop.jpg,12
81619,11:29:09,11,11,5.0.14.0,2,27,trial1,naming,0,0,0,0,screw,0,3194,1,White_Screen.jpg,11,83,Screw.jpg,11
81619,11:29:09,11,11,5.0.14.0,2,28,trial1,naming,0,0,0,0,toy,0,3363,1,White_Screen.jpg,13,183,Toy_DollOffice.jpg,13
81619,11:29:09,11,11,5.0.14.0,2,29,trial1,naming,0,0,0,0,knee brace,0,3736,1,White_Screen.jpg,13,89,Brace_Leg.jpg,13
81619,11:29:09,11,11,5.0.14.0,2,30,trial1,naming,0,0,0,0,paper stack,0,4571,1,White_Screen.jpg,13,75,PaperStack.jpg,13
81619,11:29:09,11,11,5.0.14.0,2,31,trial1,naming,0,0,0,0,ping pong racket,0,6001,1,White_Screen.jpg,14,12,Paddle_Beach.jpg,14
81619,11:29:09,11,11,5.0.14.0,2,32,trial1,naming,0,0,0,0,door code,0,4455,1,White_Screen.jpg,13,188,CodeDoorLock.jpg,13
81619,11:29:09,11,11,5.0.14.0,2,33,trial1,naming,0,0,0,0,hoverboard,0,4248,1,White_Screen.jpg,12,69,Hoverboard.jpg,12
81619,11:29:09,11,11,5.0.14.0,2,34,trial1,naming,0,0,0,0,dragonfly,0,3452,1,White_Screen.jpg,13,94,Dragonfly.jpg,13
81619,11:29:09,11,11,5.0.14.0,2,35,trial1,naming,0,0,0,0,helmet and mail,0,4578,1,White_Screen.jpg,13,123,Helmet_Knight.jpg,13
81619,11:29:09,11,11,5.0.14.0,2,36,trial1,naming,0,0,0,0,pills,0,3342,1,White_Screen.jpg,12,91,PillBottle_Closed.jpg,12
81619,11:29:09,11,11,5.0.14.0,2,37,trial1,naming,0,0,0,0,hammer,0,3892,1,White_Screen.jpg,11,33,Hammer_Reflex.jpg,11
81619,11:29:09,11,11,5.0.14.0,2,38,trial1,naming,0,0,0,0,jug,0,4433,1,White_Screen.jpg,12,82,Jug_GallonWhite.jpg,12
81619,11:29:09,11,11,5.0.14.0,2,39,trial1,naming,0,0,0,0,thermostat,0,5134,1,White_Screen.jpg,11,14,AlarmSystem.jpg,11
81619,11:29:09,11,11,5.0.14.0,2,40,trial1,naming,0,0,0,0,not usre,0,3621,1,White_Screen.jpg,10,16,Jug_Wicker.jpg,10
81619,11:29:09,11,11,5.0.14.0,2,41,trial1,naming,0,0,0,0,christmas tree,0,4632,1,White_Screen.jpg,14,38,Tree_ChristmasMini.jpg,14
81619,11:29:09,11,11,5.0.14.0,2,42,trial1,naming,0,0,0,0,water heater,0,4068,1,White_Screen.jpg,14,2,WaterHeater.jpg,14
81619,11:29:09,11,11,5.0.14.0,2,43,trial1,naming,0,0,0,0,phone,0,3797,1,White_Screen.jpg,12,163,Phone_Wireless.jpg,12
81619,11:29:09,11,11,5.0.14.0,2,44,trial1,naming,0,0,0,0,dresser,0,3163,1,White_Screen.jpg,13,108,Dresser.jpg,13
81619,11:29:09,11,11,5.0.14.0,2,45,trial1,naming,0,0,0,0,license plate,0,4236,1,White_Screen.jpg,12,190,LicensePlate.jpg,12
81619,11:29:09,11,11,5.0.14.0,2,46,trial1,naming,0,0,0,0,coleman burner,0,5533,1,White_Screen.jpg,13,98,Stove_Propane.jpg,13
81619,11:29:09,11,11,5.0.14.0,2,47,trial1,naming,0,0,0,0,baby plate,0,4173,1,White_Screen.jpg,15,26,Plate_Children.jpg,15
81619,11:29:09,11,11,5.0.14.0,2,48,trial1,naming,0,0,0,0,notebook,0,4021,1,White_Screen.jpg,11,45,Book_Leather.jpg,11
81619,11:29:09,11,11,5.0.14.0,2,49,trial1,naming,0,0,0,0,giraffe,0,3210,1,White_Screen.jpg,13,24,Giraffe.jpg,13
81619,11:29:09,11,11,5.0.14.0,2,50,trial1,naming,0,0,0,0,water spout,0,4459,1,White_Screen.jpg,11,112,GutterAndDrainPipe.jpg,11
81619,11:29:09,11,11,5.0.14.0,2,52,trial1,naming,0,0,0,0,manual breast pump,0,7280,1,White_Screen.jpg,11,173,PumpBreast.jpg,11
81619,11:29:09,11,11,5.0.14.0,2,53,trial1,naming,0,0,0,0,scroll,0,2750,1,White_Screen.jpg,12,90,Scroll.jpg,12
81619,11:29:09,11,11,5.0.14.0,2,54,trial1,naming,0,0,0,0,mascara,0,3664,1,White_Screen.jpg,11,160,Makeup_Mascara.jpg,11
81619,11:29:09,11,11,5.0.14.0,2,55,trial1,naming,0,0,0,0,ball,0,2835,1,White_Screen.jpg,10,169,Glass_Ball.jpg,10
81619,11:29:09,11,11,5.0.14.0,2,56,trial1,naming,0,0,0,0,stamp,0,2765,1,White_Screen.jpg,13,8,Stamp.jpg,13
81619,11:29:09,11,11,5.0.14.0,2,57,trial1,naming,0,0,0,0,police badge,0,4113,1,White_Screen.jpg,9,152,BadgeSpecialAgent.jpg,9
81619,11:29:09,11,11,5.0.14.0,2,58,trial1,naming,0,0,0,0,ping pong raquet,0,4530,1,White_Screen.jpg,14,88,Paddle_PingPong.jpg,14
81619,11:29:09,11,11,5.0.14.0,2,59,trial1,naming,0,0,0,0,stuffed turkey,0,5097,1,White_Screen.jpg,13,87,TurkeyDinner.jpg,13
81619,11:29:09,11,11,5.0.14.0,2,60,trial1,naming,0,0,0,0,pen holder,0,4303,1,White_Screen.jpg,12,149,PenStand.jpg,12
81619,11:29:09,11,11,5.0.14.0,2,61,trial1,naming,0,0,0,0,wreath,0,3029,1,White_Screen.jpg,10,187,Wreath.jpg,10
81619,11:29:09,11,11,5.0.14.0,2,62,trial1,naming,0,0,0,0,high heeled shoe,0,4949,1,White_Screen.jpg,13,34,Shoe_Highheel.jpg,13
81619,11:29:09,11,11,5.0.14.0,2,63,trial1,naming,0,0,0,0,clock,0,3179,1,White_Screen.jpg,13,32,Clock_Grandfather.jpg,13
81619,11:29:09,11,11,5.0.14.0,2,64,trial1,naming,0,0,0,0,toy motorcycle,0,5636,1,White_Screen.jpg,11,176,Toy_Motorcycle.jpg,11
81619,11:29:09,11,11,5.0.14.0,2,65,trial1,naming,0,0,0,0,police tape,0,3866,1,White_Screen.jpg,21,155,PoliceTape.jpg,21
81619,11:29:09,11,11,5.0.14.0,2,66,trial1,naming,0,0,0,0,sand castle,0,3308,1,White_Screen.jpg,11,37,Castle_Sand.jpg,11
81619,11:29:09,11,11,5.0.14.0,2,67,trial1,naming,0,0,0,0,jack in the box,0,4016,1,White_Screen.jpg,12,60,Toy_JackInTheBox.jpg,12
81619,11:29:09,11,11,5.0.14.0,2,68,trial1,naming,0,0,0,0,fools gold,0,5629,1,White_Screen.jpg,14,156,GoldNugget.jpg,14
81619,11:29:09,11,11,5.0.14.0,2,69,trial1,naming,0,0,0,0,deodorant,0,4578,1,White_Screen.jpg,11,167,Deodorant.jpg,11
81619,11:29:09,11,11,5.0.14.0,2,70,trial1,naming,0,0,0,0,hair brush,0,3609,1,White_Screen.jpg,12,145,Brush_BathBack.jpg,12
81619,11:29:09,11,11,5.0.14.0,2,71,trial1,naming,0,0,0,0,kids toy,0,3697,1,White_Screen.jpg,13,165,Toy_Wooden rings.jpg,13
81619,11:29:09,11,11,5.0.14.0,2,72,trial1,naming,0,0,0,0,kids truck,0,3710,1,White_Screen.jpg,11,180,Toy_Firetruck.jpg,11
81619,11:29:09,11,11,5.0.14.0,2,73,trial1,naming,0,0,0,0,crib,0,2455,1,White_Screen.jpg,13,150,Crib_Standard.jpg,13
81619,11:29:09,11,11,5.0.14.0,2,74,trial1,naming,0,0,0,0,coral,0,3261,1,White_Screen.jpg,11,166,Coral.jpg,11
81619,11:29:09,11,11,5.0.14.0,2,75,trial1,naming,0,0,0,0,game,0,2602,1,White_Screen.jpg,10,162,Boardgame_ChineseCheckers.jpg,10
81619,11:29:09,11,11,5.0.14.0,2,76,trial1,naming,0,0,0,0,drum sticks,0,3767,1,White_Screen.jpg,15,142,Stick_Drum.jpg,15
81619,11:29:09,11,11,5.0.14.0,2,77,trial1,naming,0,0,0,0,china cabinet,0,3720,1,White_Screen.jpg,11,36,Cabinet_Display.jpg,11
81619,11:29:09,11,11,5.0.14.0,2,78,trial1,naming,0,0,0,0,sled,0,3026,1,White_Screen.jpg,12,140,Sled.jpg,12
81619,11:29:09,11,11,5.0.14.0,2,79,trial1,naming,0,0,0,0,hair clip,0,3539,1,White_Screen.jpg,10,141,HairClip.jpg,10
81619,11:29:09,11,11,5.0.14.0,2,80,trial1,naming,0,0,0,0,toy box,0,3159,1,White_Screen.jpg,13,115,Chest_Toys.jpg,13
81619,11:29:09,11,11,5.0.14.0,2,81,trial1,naming,0,0,0,0,slipper,0,2939,1,White_Screen.jpg,13,175,Slippers.jpg,13
81619,11:29:09,11,11,5.0.14.0,2,82,trial1,naming,0,0,0,0,alarm clock,0,3909,1,White_Screen.jpg,12,117,Clock_Radioalarm.jpg,12
81619,11:29:09,11,11,5.0.14.0,2,83,trial1,naming,0,0,0,0,sea shell,0,3790,1,White_Screen.jpg,10,157,Seashell_AlternateTellin.jpg,10
81619,11:29:09,11,11,5.0.14.0,2,84,trial1,naming,0,0,0,0,crutches,0,3302,1,White_Screen.jpg,11,182,Crutches.jpg,11
81619,11:29:09,11,11,5.0.14.0,2,85,trial1,naming,0,0,0,0,sign,0,2617,1,White_Screen.jpg,11,170,Sign_TrafficArrow.jpg,11
81619,11:29:09,11,11,5.0.14.0,2,86,trial1,naming,0,0,0,0,bowl,0,2781,1,White_Screen.jpg,13,10,ContactLens.jpg,13
81619,11:29:09,11,11,5.0.14.0,2,87,trial1,naming,0,0,0,0,barometer,0,3726,1,White_Screen.jpg,11,59,Barometer.jpg,11
81619,11:29:09,11,11,5.0.14.0,2,88,trial1,naming,0,0,0,0,cigar slicer,0,6738,1,White_Screen.jpg,22,96,CigarCutter.jpg,22
81619,11:29:09,11,11,5.0.14.0,2,89,trial1,naming,0,0,0,0,hair net,0,3835,1,White_Screen.jpg,9,114,ShowerCap.jpg,9
81619,11:29:09,11,11,5.0.14.0,2,90,trial1,naming,0,0,0,0,gift bag,0,2948,1,White_Screen.jpg,13,56,Bag_Gift.jpg,13
81619,11:29:09,11,11,5.0.14.0,2,91,trial1,naming,0,0,0,0,paper shredder,0,4440,1,White_Screen.jpg,12,197,PaperShredder.jpg,12
81619,11:29:09,11,11,5.0.14.0,2,92,trial1,naming,0,0,0,0,clippers,0,3247,1,White_Screen.jpg,13,106,HairClipper.jpg,13
81619,11:29:09,11,11,5.0.14.0,2,93,trial1,naming,0,0,0,0,box cutter,0,3646,1,White_Screen.jpg,10,132,Boxcutter.jpg,10
81619,11:29:09,11,11,5.0.14.0,2,94,trial1,naming,0,0,0,0,box,0,3027,1,White_Screen.jpg,15,93,Box_Floral.jpg,15
81619,11:29:09,11,11,5.0.14.0,2,95,trial1,naming,0,0,0,0,toy boat,0,3220,1,White_Screen.jpg,12,71,Toy_Boat.jpg,12
81619,11:29:09,11,11,5.0.14.0,2,96,trial1,naming,0,0,0,0,chicken,0,3235,1,White_Screen.jpg,13,84,Bird_Hen.jpg,13
81619,11:29:09,11,11,5.0.14.0,2,97,trial1,naming,0,0,0,0,gloves,0,2781,1,White_Screen.jpg,18,68,Gloves_WhiteKnit.jpg,18
81619,11:29:09,11,11,5.0.14.0,2,98,trial1,naming,0,0,0,0,scooter,0,5260,1,White_Screen.jpg,9,7,MobilityScooter.jpg,9
81619,11:29:09,11,11,5.0.14.0,2,99,trial1,naming,0,0,0,0,jumper cables,0,4700,1,White_Screen.jpg,14,81,Cable_JumpStart.jpg,14
81619,11:29:09,11,11,5.0.14.0,2,100,trial1,naming,0,0,0,0,faucet,0,4334,1,White_Screen.jpg,16,100,Faucet.jpg,16
81619,11:29:09,11,11,5.0.14.0,2,101,trial1,naming,0,0,0,0,horse,0,7016,1,White_Screen.jpg,13,95,ChessPiece_Knight.jpg,13
81619,11:29:09,11,11,5.0.14.0,2,103,trial1,naming,0,0,0,0,trilobite,0,4114,1,White_Screen.jpg,9,50,HorseshoeCrab.jpg,9
81619,11:29:09,11,11,5.0.14.0,2,104,trial1,naming,0,0,0,0,soap holder,0,3361,1,White_Screen.jpg,14,27,SoapDish.jpg,14
81619,11:29:09,11,11,5.0.14.0,2,105,trial1,naming,0,0,0,0,sphinx,0,3376,1,White_Screen.jpg,13,151,Sphinx.jpg,13
81619,11:29:09,11,11,5.0.14.0,2,106,trial1,naming,0,0,0,0,hay bale,0,3096,1,White_Screen.jpg,13,25,Hay.jpg,13
81619,11:29:09,11,11,5.0.14.0,2,107,trial1,naming,0,0,0,0,boat,0,2894,1,White_Screen.jpg,12,179,Boat_Sail.jpg,12
81619,11:29:09,11,11,5.0.14.0,2,108,trial1,naming,0,0,0,0,paint roller,0,4656,1,White_Screen.jpg,15,116,PaintRollTray.jpg,15
81619,11:29:09,11,11,5.0.14.0,2,109,trial1,naming,0,0,0,0,washer,0,3271,1,White_Screen.jpg,12,48,WashingMachine.jpg,12
81619,11:29:09,11,11,5.0.14.0,2,110,trial1,naming,0,0,0,0,birthday cake,0,3757,1,White_Screen.jpg,14,11,Cake_Birthday.jpg,14
81619,11:29:09,11,11,5.0.14.0,2,111,trial1,naming,0,0,0,0,orange,0,3060,1,White_Screen.jpg,12,200,Fruit_Orange.jpg,12
81619,11:29:09,11,11,5.0.14.0,2,112,trial1,naming,0,0,0,0,domino,0,2873,1,White_Screen.jpg,10,73,Domino.jpg,10
81619,11:29:09,11,11,5.0.14.0,2,113,trial1,naming,0,0,0,0,bucket,0,3002,1,White_Screen.jpg,9,9,Bucket_Rusty.jpg,9
81619,11:29:09,11,11,5.0.14.0,2,114,trial1,naming,0,0,0,0,emery boards,0,4096,1,White_Screen.jpg,15,119,NailFiles.jpg,15
81619,11:29:09,11,11,5.0.14.0,2,115,trial1,naming,0,0,0,0,sword,0,3221,1,White_Screen.jpg,18,30,Sword.jpg,18
81619,11:29:09,11,11,5.0.14.0,2,116,trial1,naming,0,0,0,0,gate,0,3125,1,White_Screen.jpg,11,77,GatedEntrance.jpg,11
81619,11:29:09,11,11,5.0.14.0,2,117,trial1,naming,0,0,0,0,oven,0,3048,1,White_Screen.jpg,10,52,Oven.jpg,10
81619,11:29:09,11,11,5.0.14.0,2,118,trial1,naming,0,0,0,0,toy dinosaur,0,3812,1,White_Screen.jpg,13,125,Toy_DinosaurBrontosaurus.jpg,13
81619,11:29:09,11,11,5.0.14.0,2,119,trial1,naming,0,0,0,0,water fountain,0,4436,1,White_Screen.jpg,21,153,DrinkingFountain.jpg,21
81619,11:29:09,11,11,5.0.14.0,2,120,trial1,naming,0,0,0,0,denim jacket,0,3416,1,White_Screen.jpg,12,144,Jacket_Jean.jpg,12
81619,11:29:09,11,11,5.0.14.0,2,121,trial1,naming,0,0,0,0,phone,0,2859,1,White_Screen.jpg,12,1,Telephone_DialAntique.jpg,12
81619,11:29:09,11,11,5.0.14.0,2,122,trial1,naming,0,0,0,0,puzzle\,0,5974,1,White_Screen.jpg,12,97,Puzzle_Animal.jpg,12
81619,11:29:09,11,11,5.0.14.0,2,123,trial1,naming,0,0,0,0,colander,0,4117,1,White_Screen.jpg,12,39,Colander.jpg,12
81619,11:29:09,11,11,5.0.14.0,2,124,trial1,naming,0,0,0,0,bagpipes,0,4350,1,White_Screen.jpg,13,146,Bagpipes.jpg,13
81619,11:29:09,11,11,5.0.14.0,2,125,trial1,naming,0,0,0,0,battery,0,4578,1,White_Screen.jpg,12,19,Battery_Car.jpg,12
81619,11:29:09,11,11,5.0.14.0,2,126,trial1,naming,0,0,0,0,umbrella,0,3941,1,White_Screen.jpg,14,79,Umbrella_Retractable.jpg,14
81619,11:29:09,11,11,5.0.14.0,2,127,trial1,naming,0,0,0,0,kabob,0,4872,1,White_Screen.jpg,12,168,Kebab_Vegetables.jpg,12
81619,11:29:09,11,11,5.0.14.0,2,128,trial1,naming,0,0,0,0,inchworm,0,4242,1,White_Screen.jpg,12,42,Caterpillar.jpg,12
81619,11:29:09,11,11,5.0.14.0,2,129,trial1,naming,0,0,0,0,gas mask,0,4370,1,White_Screen.jpg,12,189,Mask_Gas.jpg,12
81619,11:29:09,11,11,5.0.14.0,2,130,trial1,naming,0,0,0,0,doll,0,3572,1,White_Screen.jpg,13,35,Doll_Rag.jpg,13
81619,11:29:09,11,11,5.0.14.0,2,131,trial1,naming,0,0,0,0,floss,0,4399,1,White_Screen.jpg,13,136,DentalFloss.jpg,13
81619,11:29:09,11,11,5.0.14.0,2,132,trial1,naming,0,0,0,0,tool box,0,5370,1,White_Screen.jpg,11,85,Toolbox_Old.jpg,11
81619,11:29:09,11,11,5.0.14.0,2,133,trial1,naming,0,0,0,0,file cabinet,0,4941,1,White_Screen.jpg,12,158,Cabinet_Office.jpg,12
81619,11:29:09,11,11,5.0.14.0,2,134,trial1,naming,0,0,0,0,dog house,0,3567,1,White_Screen.jpg,13,107,DogHouse.jpg,13
81619,11:29:09,11,11,5.0.14.0,2,135,trial1,naming,0,0,0,0,earring,0,4768,1,White_Screen.jpg,14,138,Earring_Hoop.jpg,14
81619,11:29:09,11,11,5.0.14.0,2,136,trial1,naming,0,0,0,0,not sure,0,4757,1,White_Screen.jpg,10,121,VGAport.jpg,10
81619,11:29:09,11,11,5.0.14.0,2,137,trial1,naming,0,0,0,0,bleachers,0,7296,1,White_Screen.jpg,12,76,Bleachers.jpg,12
81619,11:29:09,11,11,5.0.14.0,2,138,trial1,naming,0,0,0,0,cane,0,3263,1,White_Screen.jpg,10,129,Cane_Metal.jpg,10
81619,11:29:09,11,11,5.0.14.0,2,139,trial1,naming,0,0,0,0,brush,0,4415,1,White_Screen.jpg,11,44,Brush_Cleaning.jpg,11
81619,11:29:09,11,11,5.0.14.0,2,140,trial1,naming,0,0,0,0,dentist tool,0,7316,1,White_Screen.jpg,12,86,Mirror_Dental.jpg,12
81619,11:29:09,11,11,5.0.14.0,2,141,trial1,naming,0,0,0,0,number 3 toy,0,7453,1,White_Screen.jpg,10,78,Magnet_Three.jpg,10
81619,11:29:09,11,11,5.0.14.0,2,142,trial1,naming,0,0,0,0,oxygen mask,0,7827,1,White_Screen.jpg,15,28,Mask_CPR.jpg,15
81619,11:29:09,11,11,5.0.14.0,2,143,trial1,naming,0,0,0,0,basket,0,3479,1,White_Screen.jpg,12,124,Basket_Straw.jpg,12
81619,11:29:09,11,11,5.0.14.0,2,144,trial1,naming,0,0,0,0,scalpel,0,4733,1,White_Screen.jpg,11,139,Scalpel.jpg,11
81619,11:29:09,11,11,5.0.14.0,2,145,trial1,naming,0,0,0,0,macaroni,0,3676,1,White_Screen.jpg,12,143,Pasta_Macaroni.jpg,12
81619,11:29:09,11,11,5.0.14.0,2,146,trial1,naming,0,0,0,0,milk pail,0,4613,1,White_Screen.jpg,10,61,MilkJug.jpg,10
81619,11:29:09,11,11,5.0.14.0,2,147,trial1,naming,0,0,0,0,dream catcher,0,5212,1,White_Screen.jpg,11,47,Dreamcatcher.jpg,11
81619,11:29:09,11,11,5.0.14.0,2,148,trial1,naming,0,0,0,0,topEnter Name,0,3524,1,White_Screen.jpg,17,199,Toy_Top.jpg,17
81619,11:29:09,11,11,5.0.14.0,2,149,trial1,naming,0,0,0,0,siberian tiger,0,5702,1,White_Screen.jpg,13,195,TigerWhite.jpg,13
81619,11:29:09,11,11,5.0.14.0,2,150,trial1,naming,0,0,0,0,hockey stick,0,4610,1,White_Screen.jpg,13,193,Stick_IceHockey.jpg,13
81619,11:29:09,11,11,5.0.14.0,2,151,trial1,naming,0,0,0,0,fruit,0,3055,1,White_Screen.jpg,12,64,PassionFruit.jpg,12
81619,11:29:09,11,11,5.0.14.0,2,152,trial1,naming,0,0,0,0,dress,0,3639,1,White_Screen.jpg,12,118,Dress_Blue.jpg,12
81619,11:29:09,11,11,5.0.14.0,2,154,trial1,naming,0,0,0,0,2 of spades,0,3908,1,White_Screen.jpg,9,120,Card_TwoSpade.jpg,9
81619,11:29:09,11,11,5.0.14.0,2,155,trial1,naming,0,0,0,0,nothing showed up here,0,8965,1,White_Screen.jpg,11,137,White_Screen.jpg,11
81619,11:29:09,11,11,5.0.14.0,2,156,trial1,naming,0,0,0,0,surgical tools,0,8979,1,White_Screen.jpg,11,128,Tray_Medical.jpg,11
81619,11:29:09,11,11,5.0.14.0,2,157,trial1,naming,0,0,0,0,flashlight,0,3344,1,White_Screen.jpg,13,174,Flashlight.jpg,13
81619,11:29:09,11,11,5.0.14.0,2,158,trial1,naming,0,0,0,0,kids truck,0,6227,1,White_Screen.jpg,13,4,Tractor_Yellow.jpg,13
81619,11:29:09,11,11,5.0.14.0,2,159,trial1,naming,0,0,0,0,laundry clips,0,5705,1,White_Screen.jpg,21,20,Clothespin_Red.jpg,21
81619,11:29:09,11,11,5.0.14.0,2,160,trial1,naming,0,0,0,0,shoe lace,0,2848,1,White_Screen.jpg,13,21,ShoeLace_Flat.jpg,13
81619,11:29:09,11,11,5.0.14.0,2,161,trial1,naming,0,0,0,0,cup,0,2589,1,White_Screen.jpg,13,15,Cup_Bathroom.jpg,13
81619,11:29:09,11,11,5.0.14.0,2,162,trial1,naming,0,0,0,0,gameboy,0,3568,1,White_Screen.jpg,13,159,Gameboy.jpg,13
81619,11:29:09,11,11,5.0.14.0,2,163,trial1,naming,0,0,0,0,airhockey table,0,4714,1,White_Screen.jpg,12,17,Gametable_AirHockey.jpg,12
81619,11:29:09,11,11,5.0.14.0,2,164,trial1,naming,0,0,0,0,bamboo mat,0,4589,1,White_Screen.jpg,11,131,Mat_Bamboo.jpg,11
81619,11:29:09,11,11,5.0.14.0,2,165,trial1,naming,0,0,0,0,mollusk,0,5843,1,White_Screen.jpg,12,181,Clam.jpg,12
81619,11:29:09,11,11,5.0.14.0,2,166,trial1,naming,0,0,0,0,candle stick,0,4520,1,White_Screen.jpg,15,23,Candleholder_Tall.jpg,15
81619,11:29:09,11,11,5.0.14.0,2,167,trial1,naming,0,0,0,0,panda,0,2779,1,White_Screen.jpg,14,22,Panda.jpg,14
81619,11:29:09,11,11,5.0.14.0,2,168,trial1,naming,0,0,0,0,burner,0,2722,1,White_Screen.jpg,10,147,Stove_Camping.jpg,10
81619,11:29:09,11,11,5.0.14.0,2,169,trial1,naming,0,0,0,0,turkey baster,0,3870,1,White_Screen.jpg,11,18,Baster.jpg,11
81619,11:29:09,11,11,5.0.14.0,2,170,trial1,naming,0,0,0,0,canopener,0,2964,1,White_Screen.jpg,12,192,CanOpener.jpg,12
81619,11:29:09,11,11,5.0.14.0,2,171,trial1,naming,0,0,0,0,prying tool,0,5302,1,White_Screen.jpg,14,53,Crowbar.jpg,14
81619,11:29:09,11,11,5.0.14.0,2,172,trial1,naming,0,0,0,0,linguini,0,3883,1,White_Screen.jpg,19,185,Pasta_Fettuccine.jpg,19
81619,11:29:09,11,11,5.0.14.0,2,173,trial1,naming,0,0,0,0,nail polish,0,5160,1,White_Screen.jpg,20,133,NailPolish.jpg,20
81619,11:29:09,11,11,5.0.14.0,2,174,trial1,naming,0,0,0,0,covered dish,0,6945,1,White_Screen.jpg,18,164,ButterDish.jpg,18
81619,11:29:09,11,11,5.0.14.0,2,175,trial1,naming,0,0,0,0,ferry,0,3807,1,White_Screen.jpg,12,102,Boat_Ferry.jpg,12
81619,11:29:09,11,11,5.0.14.0,2,176,trial1,naming,0,0,0,0,coffin,0,2923,1,White_Screen.jpg,13,62,CasketOpen.jpg,13
81619,11:29:09,11,11,5.0.14.0,2,177,trial1,naming,0,0,0,0,wreath,0,3326,1,White_Screen.jpg,10,63,Flowers_DryBouquet.jpg,10
81619,11:29:09,11,11,5.0.14.0,2,178,trial1,naming,0,0,0,0,violin,0,9287,1,White_Screen.jpg,15,55,DoubleBass.jpg,15
81619,11:29:09,11,11,5.0.14.0,2,179,trial1,naming,0,0,0,0,saw,0,2497,1,White_Screen.jpg,14,161,Saw.jpg,14
81619,11:29:09,11,11,5.0.14.0,2,180,trial1,naming,0,0,0,0,kids tank,0,3090,1,White_Screen.jpg,12,67,Toy_Tank.jpg,12
81619,11:29:09,11,11,5.0.14.0,2,181,trial1,naming,0,0,0,0,soft pretzel,0,4526,1,White_Screen.jpg,13,101,Pretzel_Knot.jpg,13
81619,11:29:09,11,11,5.0.14.0,2,182,trial1,naming,0,0,0,0,hard hat,0,3215,1,White_Screen.jpg,17,51,Helmet_Construction.jpg,17
81619,11:29:09,11,11,5.0.14.0,2,183,trial1,naming,0,0,0,0,centrifuge,0,3573,1,White_Screen.jpg,14,13,Centrifuge.jpg,14
81619,11:29:09,11,11,5.0.14.0,2,184,trial1,naming,0,0,0,0,kids toy,0,3202,1,White_Screen.jpg,12,3,Toy_TrailerAirport.jpg,12
81619,11:29:09,11,11,5.0.14.0,2,185,trial1,naming,0,0,0,0,kids plane,0,4924,1,White_Screen.jpg,13,198,SpaceShuttle.jpg,13
81619,11:29:09,11,11,5.0.14.0,2,186,trial1,naming,0,0,0,0,serving tray,0,5422,1,White_Screen.jpg,11,57,Tray_Wooden.jpg,11
81619,11:29:09,11,11,5.0.14.0,2,187,trial1,naming,0,0,0,0,asparagus,0,3262,1,White_Screen.jpg,12,105,Asparagus.jpg,12
81619,11:29:09,11,11,5.0.14.0,2,188,trial1,naming,0,0,0,0,dress,0,2336,1,White_Screen.jpg,14,113,Dress_Party.jpg,14
81619,11:29:09,11,11,5.0.14.0,2,189,trial1,naming,0,0,0,0,stool,0,2888,1,White_Screen.jpg,9,66,Stool_Wood.jpg,9
81619,11:29:09,11,11,5.0.14.0,2,190,trial1,naming,0,0,0,0,beard brush,0,5078,1,White_Screen.jpg,14,54,Brush_Shaving.jpg,14
81619,11:29:09,11,11,5.0.14.0,2,191,trial1,naming,0,0,0,0,cooling rack,0,5841,1,White_Screen.jpg,13,5,GrillRack.jpg,13
81619,11:29:09,11,11,5.0.14.0,2,192,trial1,naming,0,0,0,0,light switch,0,5079,1,White_Screen.jpg,12,130,Switch_LightWhite.jpg,12
81619,11:29:09,11,11,5.0.14.0,2,193,trial1,naming,0,0,0,0,cigar holder,0,3958,1,White_Screen.jpg,13,171,CigarCase.jpg,13
81619,11:29:09,11,11,5.0.14.0,2,194,trial1,naming,0,0,0,0,ladybug toy,0,4946,1,White_Screen.jpg,13,49,Toy_Ladybug.jpg,13
81619,11:29:09,11,11,5.0.14.0,2,195,trial1,naming,0,0,0,0,pencil holder,0,6286,1,White_Screen.jpg,13,65,PenHolder.jpg,13
81619,11:29:09,11,11,5.0.14.0,2,196,trial1,naming,0,0,0,0,goat,0,3160,1,White_Screen.jpg,12,6,Goat.jpg,12
81619,11:29:09,11,11,5.0.14.0,2,197,trial1,naming,0,0,0,0,crate,0,3311,1,White_Screen.jpg,9,40,Box_WoodCrate.jpg,9
81619,11:29:09,11,11,5.0.14.0,2,198,trial1,naming,0,0,0,0,dumbbell,0,3212,1,White_Screen.jpg,12,58,Weights_Dumbells.jpg,12
81619,11:29:09,11,11,5.0.14.0,2,199,trial1,naming,0,0,0,0,not sure,0,5210,1,White_Screen.jpg,12,110,Mailbox_Antique.jpg,12
81619,11:29:09,11,11,5.0.14.0,2,200,trial1,naming,0,0,0,0,bag of flour,0,4255,1,White_Screen.jpg,15,186,Bag_PaperWithFlour.jpg,15
81619,11:29:09,11,11,5.0.14.0,2,201,trial1,naming,0,0,0,0,tie,0,3162,1,White_Screen.jpg,12,103,Tie.jpg,12
81619,11:29:09,11,11,5.0.14.0,2,202,trial1,naming,0,0,0,0,not sure,0,3138,1,White_Screen.jpg,21,191,Table_Magazine.jpg,21
81619,11:29:09,11,11,5.0.14.0,2,203,trial1,naming,0,0,0,0,bow and arrows,0,5152,1,White_Screen.jpg,14,196,Archery_ArrowsBows.jpg,14
81619,11:29:09,11,11,5.0.14.0,3,1,demographics_block,gender,0,0,0,0,female,1,9300,0,0,0,0,0,0
81619,11:29:09,11,11,5.0.14.0,3,1,demographics_block,age,0,0,0,0,29,1,9300,0,0,0,0,0,0
81619,11:29:09,11,11,5.0.14.0,3,1,demographics_block,education,0,0,0,0,18,1,9300,0,0,0,0,0,0
