"date","time","group","subject","build","blocknum","trialnum","blockcode","trialcode","pretrialpause","posttrialpause","trialduration","trialtimeout","response","correct","latency","stimulusnumber1","stimulusitem1","stimulusonset1","stimulusnumber2","stimulusitem2","stimulusonset2"
"071519","14:32:27","1","1","5.0.14.0","2","1","trial1","naming","0","0","0","0","lettuce","0","2587","1","White_Screen.jpg","35","94","Lettuce_Iceberg.jpg","35"
"071519","14:32:27","1","1","5.0.14.0","2","2","trial1","naming","0","0","0","0","level","0","2867","1","White_Screen.jpg","18","167","Level.jpg","18"
"071519","14:32:27","1","1","5.0.14.0","2","3","trial1","naming","0","0","0","0","tape recorder","0","5068","1","White_Screen.jpg","18","83","RecorderCassette.jpg","18"
"071519","14:32:27","1","1","5.0.14.0","2","4","trial1","naming","0","0","0","0","branch","0","3539","1","White_Screen.jpg","17","53","Decoration_WallOrnament.jpg","17"
"071519","14:32:27","1","1","5.0.14.0","2","5","trial1","naming","0","0","0","0","Ctrl+'Q'","1","7154","1","White_Screen.jpg","18","43","Table_Side.jpg","18"
"080819","11:02:17","3","3","5.0.14.0","2","1","trial1","naming","0","0","0","0","dryer","0","7521","1","White_Screen.jpg","64","168","DryingMachine.jpg","64"
"080819","11:02:17","3","3","5.0.14.0","2","2","trial1","naming","0","0","0","0","chicken wing","0","5610","1","White_Screen.jpg","14","193","Chicken_FriedWing.jpg","14"
"080819","11:02:17","3","3","5.0.14.0","2","3","trial1","naming","0","0","0","0","eraser","0","4508","1","White_Screen.jpg","11","192","Eraser.jpg","11"
"080819","11:02:17","3","3","5.0.14.0","2","4","trial1","naming","0","0","0","0","butter churner","0","5722","1","White_Screen.jpg","9","99","ButterChurn.jpg","9"
"080819","11:02:17","3","3","5.0.14.0","2","5","trial1","naming","0","0","0","0","bedside commode","0","6881","1","White_Screen.jpg","8","61","Chair_MedicalToilet.jpg","8"
"080819","11:02:17","3","3","5.0.14.0","2","6","trial1","naming","0","0","0","0","pencil","0","8110","1","White_Screen.jpg","7","5","Pencil.jpg","7"
"080819","11:02:17","3","3","5.0.14.0","2","7","trial1","naming","0","0","0","0","coffee pot","0","4828","1","White_Screen.jpg","10","119","Kettle.jpg","10"
"080819","11:02:17","3","3","5.0.14.0","2","8","trial1","naming","0","0","0","0","steeple","0","4569","1","White_Screen.jpg","12","199","Steeple.jpg","12"
"080819","11:02:17","3","3","5.0.14.0","2","9","trial1","naming","0","0","0","0","goggles","0","3596","1","White_Screen.jpg","7","171","GogglesSwim.jpg","7"
"080819","11:02:17","3","3","5.0.14.0","2","10","trial1","naming","0","0","0","0","hot dog","0","3674","1","White_Screen.jpg","12","63","Hotdog_Weiner.jpg","12"
"080819","11:02:17","3","3","5.0.14.0","2","11","trial1","naming","0","0","0","0","turnstyle","0","8598","1","White_Screen.jpg","11","179","Plate_Wooden.jpg","11"
"080819","11:02:17","3","3","5.0.14.0","2","12","trial1","naming","0","0","0","0","cow","0","3112","1","White_Screen.jpg","11","9","Cow.jpg","11"
"080819","11:02:17","3","3","5.0.14.0","2","13","trial1","naming","0","0","0","0","trowel","0","4042","1","White_Screen.jpg","12","162","Trowel.jpg","12"
"080819","11:02:17","3","3","5.0.14.0","2","14","trial1","naming","0","0","0","0","english muffin","0","5567","1","White_Screen.jpg","9","34","EnglishMuffin.jpg","9"
"080819","11:02:17","3","3","5.0.14.0","2","15","trial1","naming","0","0","0","0","duffle bag","0","3861","1","White_Screen.jpg","9","26","Bag_Gym.jpg","9"
"080819","11:02:17","3","3","5.0.14.0","2","16","trial1","naming","0","0","0","0","tailor manne","0","10000","1","White_Screen.jpg","12","100","MannequinBust.jpg","12"
"080819","11:02:17","3","3","5.0.14.0","2","17","trial1","naming","0","0","0","0","garlic","0","3973","1","White_Screen.jpg","10","10","Garlic_Clove.jpg","10"
"080819","11:02:17","3","3","5.0.14.0","2","18","trial1","naming","0","0","0","0","chickpeas","0","4621","1","White_Screen.jpg","8","89","PeasSplit.jpg","8"
"080819","11:02:17","3","3","5.0.14.0","2","19","trial1","naming","0","0","0","0","squeegee","0","4392","1","White_Screen.jpg","10","84","Razor.jpg","10"
"080819","11:02:17","3","3","5.0.14.0","2","20","trial1","naming","0","0","0","0","lenses","0","4339","1","White_Screen.jpg","9","33","Lens_ColourFilter.jpg","9"
"080819","11:02:17","3","3","5.0.14.0","2","21","trial1","naming","0","0","0","0","paint roller","0","4340","1","White_Screen.jpg","7","39","PaintRoller.jpg","7"
"080819","11:02:17","3","3","5.0.14.0","2","22","trial1","naming","0","0","0","0","hand strengtheners","0","6513","1","White_Screen.jpg","7","146","Exercise_HandTrainer.jpg","7"
"080819","11:02:17","3","3","5.0.14.0","2","23","trial1","naming","0","0","0","0","hose attachment","0","8267","1","White_Screen.jpg","11","105","HoseNozzle.jpg","11"
"080819","11:02:17","3","3","5.0.14.0","2","24","trial1","naming","0","0","0","0","notebook","0","3656","1","White_Screen.jpg","14","106","Notebook.jpg","14"
"080819","11:02:17","3","3","5.0.14.0","2","25","trial1","naming","0","0","0","0","model ship","0","6382","1","White_Screen.jpg","9","78","Ship_Model.jpg","9"
"080819","11:02:17","3","3","5.0.14.0","2","26","trial1","naming","0","0","0","0","range","0","7427","1","White_Screen.jpg","11","92","Stove_WithOven.jpg","11"
"080819","11:02:17","3","3","5.0.14.0","2","27","trial1","naming","0","0","0","0","tape recorder","0","4021","1","White_Screen.jpg","10","83","RecorderCassette.jpg","10"
"080819","11:02:17","3","3","5.0.14.0","2","28","trial1","naming","0","0","0","0","desk","0","3785","1","White_Screen.jpg","10","40","Chair_Student.jpg","10"
"080819","11:02:17","3","3","5.0.14.0","2","29","trial1","naming","0","0","0","0","tweezers","0","4440","1","White_Screen.jpg","9","132","Tweezers.jpg","9"
"080819","11:02:17","3","3","5.0.14.0","2","30","trial1","naming","0","0","0","0","stiletto","0","5271","1","White_Screen.jpg","8","123","Shoe_Pink.jpg","8"
"080819","11:02:17","3","3","5.0.14.0","2","31","trial1","naming","0","0","0","0","newspaper","0","3579","1","White_Screen.jpg","7","181","NewspaperStack.jpg","7"
"080819","11:02:17","3","3","5.0.14.0","2","32","trial1","naming","0","0","0","0","staircase","0","3601","1","White_Screen.jpg","7","197","Staircase_Straight.jpg","7"
"080819","11:02:17","3","3","5.0.14.0","2","33","trial1","naming","0","0","0","0","bowl","0","2788","1","White_Screen.jpg","11","65","Glass_Bowl.jpg","11"
"080819","11:02:17","3","3","5.0.14.0","2","34","trial1","naming","0","0","0","0","rollerblade","0","3577","1","White_Screen.jpg","7","54","RollerBlade.jpg","7"
"080819","11:02:17","3","3","5.0.14.0","2","35","trial1","naming","0","0","0","0","straw","0","3119","1","White_Screen.jpg","9","81","Tube.jpg","9"
"080819","11:02:17","3","3","5.0.14.0","2","36","trial1","naming","0","0","0","0","level","0","3461","1","White_Screen.jpg","11","167","Level.jpg","11"
"080819","11:02:17","3","3","5.0.14.0","2","37","trial1","naming","0","0","0","0","pneumatic drill","0","10000","1","White_Screen.jpg","12","107","AirCompressor.jpg","12"
"080819","11:02:17","3","3","5.0.14.0","2","38","trial1","naming","0","0","0","0","Enter Name","0","238","1","White_Screen.jpg","7","90","Clamp.jpg","7"
"080819","11:02:17","3","3","5.0.14.0","2","39","trial1","naming","0","0","0","0","ghost","0","4810","1","White_Screen.jpg","7","136","Ghost.jpg","7"
"080819","11:02:17","3","3","5.0.14.0","2","40","trial1","naming","0","0","0","0","plant","0","4159","1","White_Screen.jpg","9","96","Shrub_Boxwood.jpg","9"
"080819","11:02:17","3","3","5.0.14.0","2","41","trial1","naming","0","0","0","0","tools","0","6690","1","White_Screen.jpg","8","3","BicycleHandleGrip.jpg","8"
"080819","11:02:17","3","3","5.0.14.0","2","42","trial1","naming","0","0","0","0","statue","0","3674","1","White_Screen.jpg","8","20","Statue_Man.jpg","8"
"080819","11:02:17","3","3","5.0.14.0","2","43","trial1","naming","0","0","0","0","brain model","0","6839","1","White_Screen.jpg","9","153","BrainSagittal.jpg","9"
"080819","11:02:17","3","3","5.0.14.0","2","44","trial1","naming","0","0","0","0","puppet","0","4643","1","White_Screen.jpg","8","79","MonkeyPuppet.jpg","8"
"080819","11:02:17","3","3","5.0.14.0","2","45","trial1","naming","0","0","0","0","remote","0","2747","1","White_Screen.jpg","8","80","RemoteControl.jpg","8"
"080819","11:02:17","3","3","5.0.14.0","2","46","trial1","naming","0","0","0","0","measuring spoons","0","4972","1","White_Screen.jpg","12","23","Spoons_MeasuringDetached.jpg","12"
"080819","11:02:17","3","3","5.0.14.0","2","47","trial1","naming","0","0","0","0","fish hook","0","3952","1","White_Screen.jpg","6","22","Hook_Fishing.jpg","6"
"080819","11:02:17","3","3","5.0.14.0","2","48","trial1","naming","0","0","0","0","hard drive","0","4020","1","White_Screen.jpg","7","16","Computer_ExpansionCard.jpg","7"
"080819","11:02:17","3","3","5.0.14.0","2","49","trial1","naming","0","0","0","0","telephone","0","3824","1","White_Screen.jpg","10","42","Phone_Public.jpg","10"
"080819","11:02:17","3","3","5.0.14.0","2","50","trial1","naming","0","0","0","0","gas can","0","3205","1","White_Screen.jpg","6","11","Can_GasSpout.jpg","6"
"080819","11:02:17","3","3","5.0.14.0","2","52","trial1","naming","0","0","0","0","spiral pasta","0","4537","1","White_Screen.jpg","11","110","Pasta_Fusilli.jpg","11"
"080819","11:02:17","3","3","5.0.14.0","2","53","trial1","naming","0","0","0","0","bulldozer","0","3693","1","White_Screen.jpg","9","165","Backhoe.jpg","9"
"080819","11:02:17","3","3","5.0.14.0","2","54","trial1","naming","0","0","0","0","headphones","0","3418","1","White_Screen.jpg","9","141","Headset.jpg","9"
"080819","11:02:17","3","3","5.0.14.0","2","55","trial1","naming","0","0","0","0","skirt","0","2765","1","White_Screen.jpg","8","182","Skirt_Long.jpg","8"
"080819","11:02:17","3","3","5.0.14.0","2","56","trial1","naming","0","0","0","0","seahorse","0","3408","1","White_Screen.jpg","11","55","Seahorse.jpg","11"
"080819","11:02:17","3","3","5.0.14.0","2","57","trial1","naming","0","0","0","0","suitcase","0","3206","1","White_Screen.jpg","9","115","Suitcase.jpg","9"
"080819","11:02:17","3","3","5.0.14.0","2","58","trial1","naming","0","0","0","0","paint thinner","0","3971","1","White_Screen.jpg","8","51","Can_Oblong.jpg","8"
"080819","11:02:17","3","3","5.0.14.0","2","59","trial1","naming","0","0","0","0","play-doh","0","4821","1","White_Screen.jpg","10","86","Playdoh.jpg","10"
"080819","11:02:17","3","3","5.0.14.0","2","60","trial1","naming","0","0","0","0","stamp","0","3946","1","White_Screen.jpg","10","85","PostageStamps.jpg","10"
"080819","11:02:17","3","3","5.0.14.0","2","61","trial1","naming","0","0","0","0","tool box","0","3997","1","White_Screen.jpg","7","73","Can_Gas.jpg","7"
"080819","11:02:17","3","3","5.0.14.0","2","62","trial1","naming","0","0","0","0","spray bottle","0","3989","1","White_Screen.jpg","12","174","Bottle_Spray.jpg","12"
"080819","11:02:17","3","3","5.0.14.0","2","63","trial1","naming","0","0","0","0","roller","0","10000","1","White_Screen.jpg","9","143","Steamroller.jpg","9"
"080819","11:02:17","3","3","5.0.14.0","2","64","trial1","naming","0","0","0","0","meat grinder","0","4715","1","White_Screen.jpg","17","19","MeatGrinder.jpg","17"
"080819","11:02:17","3","3","5.0.14.0","2","65","trial1","naming","0","0","0","0","pickle","0","3342","1","White_Screen.jpg","10","104","Pickle.jpg","10"
"080819","11:02:17","3","3","5.0.14.0","2","66","trial1","naming","0","0","0","0","life preserver","0","4463","1","White_Screen.jpg","7","50","TubeRing.jpg","7"
"080819","11:02:17","3","3","5.0.14.0","2","67","trial1","naming","0","0","0","0","speed limit sign","0","6378","1","White_Screen.jpg","8","151","Sign_SpeedLimit30.jpg","8"
"080819","11:02:17","3","3","5.0.14.0","2","68","trial1","naming","0","0","0","0","soap dispenser","0","4115","1","White_Screen.jpg","10","186","SoapBottle.jpg","10"
"080819","11:02:17","3","3","5.0.14.0","2","69","trial1","naming","0","0","0","0","wardrobe","0","3612","1","White_Screen.jpg","11","31","Wardrobe.jpg","11"
"080819","11:02:17","3","3","5.0.14.0","2","70","trial1","naming","0","0","0","0","shoes","0","3945","1","White_Screen.jpg","11","108","Shoes_Sneakers.jpg","11"
"080819","11:02:17","3","3","5.0.14.0","2","71","trial1","naming","0","0","0","0","changing table","0","3718","1","White_Screen.jpg","10","118","DiaperChangingStation.jpg","10"
"080819","11:02:17","3","3","5.0.14.0","2","72","trial1","naming","0","0","0","0","four leaf clover","0","4145","1","White_Screen.jpg","7","70","Leaf_Clover.jpg","7"
"080819","11:02:17","3","3","5.0.14.0","2","73","trial1","naming","0","0","0","0","school bus","0","4195","1","White_Screen.jpg","8","113","Bus_School.jpg","8"
"080819","11:02:17","3","3","5.0.14.0","2","74","trial1","naming","0","0","0","0","tickets","0","2977","1","White_Screen.jpg","12","172","Tickets_Blank.jpg","12"
"080819","11:02:17","3","3","5.0.14.0","2","75","trial1","naming","0","0","0","0","bottle","0","6650","1","White_Screen.jpg","12","109","Glass_bottle.jpg","12"
"080819","11:02:17","3","3","5.0.14.0","2","76","trial1","naming","0","0","0","0","IV bag","0","6848","1","White_Screen.jpg","7","60","Bag_Saline.jpg","7"
"080819","11:02:17","3","3","5.0.14.0","2","77","trial1","naming","0","0","0","0","figurine","0","4322","1","White_Screen.jpg","9","18","Statue_Cat.jpg","9"
"080819","11:02:17","3","3","5.0.14.0","2","78","trial1","naming","0","0","0","0","barrell","0","4049","1","White_Screen.jpg","13","1","Barrel_Upright.jpg","13"
"080819","11:02:17","3","3","5.0.14.0","2","79","trial1","naming","0","0","0","0","salt shaker","0","4652","1","White_Screen.jpg","14","102","SaltShaker.jpg","14"
"080819","11:02:17","3","3","5.0.14.0","2","80","trial1","naming","0","0","0","0","green onion","0","4736","1","White_Screen.jpg","9","142","Leek.jpg","9"
"080819","11:02:17","3","3","5.0.14.0","2","81","trial1","naming","0","0","0","0","paint brush","0","3886","1","White_Screen.jpg","6","138","Brush_Paint.jpg","6"
"080819","11:02:17","3","3","5.0.14.0","2","82","trial1","naming","0","0","0","0","fan blade","0","4085","1","White_Screen.jpg","9","6","PropellerFan.jpg","9"
"080819","11:02:17","3","3","5.0.14.0","2","83","trial1","naming","0","0","0","0","china dishes","0","6808","1","White_Screen.jpg","10","72","Plate_Decorative.jpg","10"
"080819","11:02:17","3","3","5.0.14.0","2","84","trial1","naming","0","0","0","0","snow globe","0","3435","1","White_Screen.jpg","8","64","SnowGlobe.jpg","8"
"080819","11:02:17","3","3","5.0.14.0","2","85","trial1","naming","0","0","0","0","condom","0","5133","1","White_Screen.jpg","7","187","Condom.jpg","7"
"080819","11:02:17","3","3","5.0.14.0","2","86","trial1","naming","0","0","0","0","harp","0","2902","1","White_Screen.jpg","11","47","Harp.jpg","11"
"080819","11:02:17","3","3","5.0.14.0","2","87","trial1","naming","0","0","0","0","cash register","0","3536","1","White_Screen.jpg","8","13","CashRegister_Antique.jpg","8"
"080819","11:02:17","3","3","5.0.14.0","2","88","trial1","naming","0","0","0","0","canoe","0","3039","1","White_Screen.jpg","7","44","Boat_Row.jpg","7"
"080819","11:02:17","3","3","5.0.14.0","2","89","trial1","naming","0","0","0","0","rocks","0","3494","1","White_Screen.jpg","6","152","Stone_Spa.jpg","6"
"080819","11:02:17","3","3","5.0.14.0","2","90","trial1","naming","0","0","0","0","shield","0","3053","1","White_Screen.jpg","13","49","Shield_Antique.jpg","13"
"080819","11:02:17","3","3","5.0.14.0","2","91","trial1","naming","0","0","0","0","water bottle","0","4000","1","White_Screen.jpg","9","200","Bottle_Blue.jpg","9"
"080819","11:02:17","3","3","5.0.14.0","2","92","trial1","naming","0","0","0","0","life boat","0","6285","1","White_Screen.jpg","6","158","Boat_Dinghy.jpg","6"
"080819","11:02:17","3","3","5.0.14.0","2","93","trial1","naming","0","0","0","0","business suit","0","5960","1","White_Screen.jpg","7","97","Suit_Women.jpg","7"
"080819","11:02:17","3","3","5.0.14.0","2","94","trial1","naming","0","0","0","0","flame extinguisher","0","7313","1","White_Screen.jpg","8","116","CandleSnuffer.jpg","8"
"080819","11:02:17","3","3","5.0.14.0","2","95","trial1","naming","0","0","0","0","makeup","0","3975","1","White_Screen.jpg","12","71","Makeup_Eyeshadow.jpg","12"
"080819","11:02:17","3","3","5.0.14.0","2","96","trial1","naming","0","0","0","0","honey","0","3276","1","White_Screen.jpg","12","67","Jar_Honey.jpg","12"
"080819","11:02:17","3","3","5.0.14.0","2","97","trial1","naming","0","0","0","0","wine glass","0","3409","1","White_Screen.jpg","8","28","Glass_Martini.jpg","8"
"080819","11:02:17","3","3","5.0.14.0","2","98","trial1","naming","0","0","0","0","eggs","0","2314","1","White_Screen.jpg","10","30","CartonEggs.jpg","10"
"080819","11:02:17","3","3","5.0.14.0","2","99","trial1","naming","0","0","0","0","airbrush","0","5025","1","White_Screen.jpg","10","175","PaintSprayer.jpg","10"
"080819","11:02:17","3","3","5.0.14.0","2","100","trial1","naming","0","0","0","0","ice skates","0","3592","1","White_Screen.jpg","8","52","Skates.jpg","8"
"080819","11:02:17","3","3","5.0.14.0","2","101","trial1","naming","0","0","0","0","donkey","0","3134","1","White_Screen.jpg","7","135","Toy_DonkeyPlastic.jpg","7"
"080819","11:02:17","3","3","5.0.14.0","2","103","trial1","naming","0","0","0","0","onion rings","0","3523","1","White_Screen.jpg","12","161","OnionRings.jpg","12"
"080819","11:02:17","3","3","5.0.14.0","2","104","trial1","naming","0","0","0","0","rocking horse","0","3930","1","White_Screen.jpg","12","131","Toy_RockingHorseBeige.jpg","12"
"080819","11:02:17","3","3","5.0.14.0","2","105","trial1","naming","0","0","0","0","hospital bed","0","4296","1","White_Screen.jpg","10","122","Bed_Hospital.jpg","10"
"080819","11:02:17","3","3","5.0.14.0","2","106","trial1","naming","0","0","0","0","jersey","0","2771","1","White_Screen.jpg","8","12","Shirt_SportsJersey.jpg","8"
"080819","11:02:17","3","3","5.0.14.0","2","107","trial1","naming","0","0","0","0","syrup","0","2791","1","White_Screen.jpg","11","27","Syrup_Maple.jpg","11"
"080819","11:02:17","3","3","5.0.14.0","2","108","trial1","naming","0","0","0","0","hot dog","0","2610","1","White_Screen.jpg","8","114","Hotdog_WithBun.jpg","8"
"080819","11:02:17","3","3","5.0.14.0","2","109","trial1","naming","0","0","0","0","bike seat","0","3622","1","White_Screen.jpg","8","17","BicycleSeat.jpg","8"
"080819","11:02:17","3","3","5.0.14.0","2","110","trial1","naming","0","0","0","0","drum","0","2453","1","White_Screen.jpg","8","148","Drum_Ramadan.jpg","8"
"080819","11:02:17","3","3","5.0.14.0","2","111","trial1","naming","0","0","0","0","speed limit sign","0","5570","1","White_Screen.jpg","9","124","Sign_SpeedLimit25.jpg","9"
"080819","11:02:17","3","3","5.0.14.0","2","112","trial1","naming","0","0","0","0","red grapes","0","5665","1","White_Screen.jpg","7","95","Grape.jpg","7"
"080819","11:02:17","3","3","5.0.14.0","2","113","trial1","naming","0","0","0","0","tuner","0","5408","1","White_Screen.jpg","11","188","Pipe_Pitch.jpg","11"
"080819","11:02:17","3","3","5.0.14.0","2","114","trial1","naming","0","0","0","0","spinning wheel","0","6267","1","White_Screen.jpg","8","128","SpinningWheel.jpg","8"
"080819","11:02:17","3","3","5.0.14.0","2","115","trial1","naming","0","0","0","0","figurine","0","3686","1","White_Screen.jpg","9","150","Sculpture_MetalMan.jpg","9"
"080819","11:02:17","3","3","5.0.14.0","2","116","trial1","naming","0","0","0","0","gas can","0","2700","1","White_Screen.jpg","7","56","Canister_Oil.jpg","7"
"080819","11:02:17","3","3","5.0.14.0","2","117","trial1","naming","0","0","0","0","airport sign","0","4664","1","White_Screen.jpg","13","169","Sign_Airport.jpg","13"
"080819","11:02:17","3","3","5.0.14.0","2","118","trial1","naming","0","0","0","0","lock","0","2704","1","White_Screen.jpg","7","36","Keyhole.jpg","7"
"080819","11:02:17","3","3","5.0.14.0","2","119","trial1","naming","0","0","0","0","hamster","0","3689","1","White_Screen.jpg","8","76","GuineaPig.jpg","8"
"080819","11:02:17","3","3","5.0.14.0","2","120","trial1","naming","0","0","0","0","tassle","0","3902","1","White_Screen.jpg","7","130","Decoration_Chinese.jpg","7"
"080819","11:02:17","3","3","5.0.14.0","2","121","trial1","naming","0","0","0","0","feet","0","3021","1","White_Screen.jpg","11","194","Feet.jpg","11"
"080819","11:02:17","3","3","5.0.14.0","2","122","trial1","naming","0","0","0","0","bullet","0","3376","1","White_Screen.jpg","7","139","Bullet.jpg","7"
"080819","11:02:17","3","3","5.0.14.0","2","123","trial1","naming","0","0","0","0","gas can","0","4762","1","White_Screen.jpg","8","62","Jug_GallonRed.jpg","8"
"080819","11:02:17","3","3","5.0.14.0","2","124","trial1","naming","0","0","0","0","ruler","0","10000","1","White_Screen.jpg","10","8","Ruler_Triangle.jpg","10"
"080819","11:02:17","3","3","5.0.14.0","2","125","trial1","naming","0","0","0","0","dynamite","0","4217","1","White_Screen.jpg","8","38","Dynamite.jpg","8"
"080819","11:02:17","3","3","5.0.14.0","2","126","trial1","naming","0","0","0","0","liquid","0","5902","1","White_Screen.jpg","12","176","VialLab.jpg","12"
"080819","11:02:17","3","3","5.0.14.0","2","127","trial1","naming","0","0","0","0","evergreen tree","0","4548","1","White_Screen.jpg","9","7","Tree_Fir.jpg","9"
"080819","11:02:17","3","3","5.0.14.0","2","128","trial1","naming","0","0","0","0","spoon","0","4006","1","White_Screen.jpg","11","32","Spoon_Baby.jpg","11"
"080819","11:02:17","3","3","5.0.14.0","2","129","trial1","naming","0","0","0","0","boat","0","3593","1","White_Screen.jpg","7","159","Boat_Trailer.jpg","7"
"080819","11:02:17","3","3","5.0.14.0","2","130","trial1","naming","0","0","0","0","wrap","0","5452","1","White_Screen.jpg","9","57","Brace_Neck.jpg","9"
"080819","11:02:17","3","3","5.0.14.0","2","131","trial1","naming","0","0","0","0","tire","0","2622","1","White_Screen.jpg","7","48","Tire_Hollow.jpg","7"
"080819","11:02:17","3","3","5.0.14.0","2","132","trial1","naming","0","0","0","0","water colors","0","5341","1","White_Screen.jpg","6","190","WaterColorPaintset.jpg","6"
"080819","11:02:17","3","3","5.0.14.0","2","133","trial1","naming","0","0","0","0","cleaning brush","0","5947","1","White_Screen.jpg","10","15","Brush_Toilet.jpg","10"
"080819","11:02:17","3","3","5.0.14.0","2","134","trial1","naming","0","0","0","0","bird cage","0","3414","1","White_Screen.jpg","12","35","Cage_Bird.jpg","12"
"080819","11:02:17","3","3","5.0.14.0","2","135","trial1","naming","0","0","0","0","ice shovel","0","5786","1","White_Screen.jpg","7","155","Scoop_Flour.jpg","7"
"080819","11:02:17","3","3","5.0.14.0","2","136","trial1","naming","0","0","0","0","bat","0","10000","1","White_Screen.jpg","8","166","Bat_Cricket.jpg","8"
"080819","11:02:17","3","3","5.0.14.0","2","137","trial1","naming","0","0","0","0","baby monitor","0","4068","1","White_Screen.jpg","8","21","BabyMonitor.jpg","8"
"080819","11:02:17","3","3","5.0.14.0","2","138","trial1","naming","0","0","0","0","chain","0","3057","1","White_Screen.jpg","8","101","ChainRusty.jpg","8"
"080819","11:02:17","3","3","5.0.14.0","2","139","trial1","naming","0","0","0","0","spinning wheel","0","3808","1","White_Screen.jpg","8","189","Distaff.jpg","8"
"080819","11:02:17","3","3","5.0.14.0","2","140","trial1","naming","0","0","0","0","steak","0","3171","1","White_Screen.jpg","6","191","MeatRaw.jpg","6"
"080819","11:02:17","3","3","5.0.14.0","2","141","trial1","naming","0","0","0","0","iceberg lettuce","0","5288","1","White_Screen.jpg","13","94","Lettuce_Iceberg.jpg","13"
"080819","11:02:17","3","3","5.0.14.0","2","142","trial1","naming","0","0","0","0","potpourri","0","4691","1","White_Screen.jpg","7","129","Pouch_PotPourri.jpg","7"
"080819","11:02:17","3","3","5.0.14.0","2","143","trial1","naming","0","0","0","0","visor","0","3492","1","White_Screen.jpg","8","14","Hat_Visor.jpg","8"
"080819","11:02:17","3","3","5.0.14.0","2","144","trial1","naming","0","0","0","0","celery","0","3335","1","White_Screen.jpg","9","154","Celery.jpg","9"
"080819","11:02:17","3","3","5.0.14.0","2","145","trial1","naming","0","0","0","0","scorpion","0","3581","1","White_Screen.jpg","7","46","Scorpion.jpg","7"
"080819","11:02:17","3","3","5.0.14.0","2","146","trial1","naming","0","0","0","0","hookah","0","3278","1","White_Screen.jpg","8","120","Hookah.jpg","8"
"080819","11:02:17","3","3","5.0.14.0","2","147","trial1","naming","0","0","0","0","green peas","0","3887","1","White_Screen.jpg","9","164","Can_Peas.jpg","9"
"080819","11:02:17","3","3","5.0.14.0","2","148","trial1","naming","0","0","0","0","rosemary","0","5727","1","White_Screen.jpg","8","183","Dill.jpg","8"
"080819","11:02:17","3","3","5.0.14.0","2","149","trial1","naming","0","0","0","0","sled","0","4936","1","White_Screen.jpg","9","91","RickShaw.jpg","9"
"080819","11:02:17","3","3","5.0.14.0","2","150","trial1","naming","0","0","0","0","thermos","0","3240","1","White_Screen.jpg","7","82","Thermos_MetalSleek.jpg","7"
"080819","11:02:17","3","3","5.0.14.0","2","151","trial1","naming","0","0","0","0","axe","0","2513","1","White_Screen.jpg","8","58","Axe.jpg","8"
"080819","11:02:17","3","3","5.0.14.0","2","152","trial1","naming","0","0","0","0","witch","0","3384","1","White_Screen.jpg","11","160","Toy_Witch.jpg","11"
"080819","11:02:17","3","3","5.0.14.0","2","154","trial1","naming","0","0","0","0","branch","0","6808","1","White_Screen.jpg","7","53","Decoration_WallOrnament.jpg","7"
"080819","11:02:17","3","3","5.0.14.0","2","155","trial1","naming","0","0","0","0","legos","0","4632","1","White_Screen.jpg","12","88","Toys_Lego.jpg","12"
"080819","11:02:17","3","3","5.0.14.0","2","156","trial1","naming","0","0","0","0","rocking chair","0","3623","1","White_Screen.jpg","7","173","Chair_Rocking.jpg","7"
"080819","11:02:17","3","3","5.0.14.0","2","157","trial1","naming","0","0","0","0","snorkel gear","0","5506","1","White_Screen.jpg","7","74","Snorkle.jpg","7"
"080819","11:02:17","3","3","5.0.14.0","2","158","trial1","naming","0","0","0","0","hanging dice","0","3924","1","White_Screen.jpg","8","147","FuzzyDice.jpg","8"
"080819","11:02:17","3","3","5.0.14.0","2","159","trial1","naming","0","0","0","0","sconce","0","4022","1","White_Screen.jpg","9","24","Hook_Ceiling.jpg","9"
"080819","11:02:17","3","3","5.0.14.0","2","160","trial1","naming","0","0","0","0","groceries","0","3784","1","White_Screen.jpg","7","133","Bag_Groceries.jpg","7"
"080819","11:02:17","3","3","5.0.14.0","2","161","trial1","naming","0","0","0","0","construction","0","10000","1","White_Screen.jpg","8","126","CraneMachine.jpg","8"
"080819","11:02:17","3","3","5.0.14.0","2","162","trial1","naming","0","0","0","0","igloo","0","3511","1","White_Screen.jpg","12","184","Igloo.jpg","12"
"080819","11:02:17","3","3","5.0.14.0","2","163","trial1","naming","0","0","0","0","table","0","2981","1","White_Screen.jpg","7","43","Table_Side.jpg","7"
"080819","11:02:17","3","3","5.0.14.0","2","164","trial1","naming","0","0","0","0","otoscope","0","5622","1","White_Screen.jpg","12","195","Otoscope.jpg","12"
"080819","11:02:17","3","3","5.0.14.0","2","165","trial1","naming","0","0","0","0","dental light","0","4582","1","White_Screen.jpg","8","170","DentistOverheadLight.jpg","8"
"080819","11:02:17","3","3","5.0.14.0","2","166","trial1","naming","0","0","0","0","tv cable","0","10000","1","White_Screen.jpg","7","69","Cord_Ethernet.jpg","7"
"080819","11:02:17","3","3","5.0.14.0","2","167","trial1","naming","0","0","0","0","cookie jar","0","3820","1","White_Screen.jpg","12","198","Jar_Cookie.jpg","12"
"080819","11:02:17","3","3","5.0.14.0","2","168","trial1","naming","0","0","0","0","picture frame","0","10000","1","White_Screen.jpg","8","2","Frame_Oval.jpg","8"
"080819","11:02:17","3","3","5.0.14.0","2","169","trial1","naming","0","0","0","0","street light","0","10000","1","White_Screen.jpg","12","180","Light_Traffic.jpg","12"
"080819","11:02:17","3","3","5.0.14.0","2","170","trial1","naming","0","0","0","0","shoes","0","3243","1","White_Screen.jpg","7","117","Shoes_Pumps.jpg","7"
"080819","11:02:17","3","3","5.0.14.0","2","171","trial1","naming","0","0","0","0","party favor","0","4060","1","White_Screen.jpg","8","149","Noisemaker.jpg","8"
"080819","11:02:17","3","3","5.0.14.0","2","172","trial1","naming","0","0","0","0","shipping tape","0","4544","1","White_Screen.jpg","8","68","Tape_Dispenser.jpg","8"
"080819","11:02:17","3","3","5.0.14.0","2","173","trial1","naming","0","0","0","0","slippery floor sign","0","5385","1","White_Screen.jpg","12","77","Sign_Wetfloor.jpg","12"
"080819","11:02:17","3","3","5.0.14.0","2","174","trial1","naming","0","0","0","0","bull horn blower","0","7938","1","White_Screen.jpg","8","177","Horn_Hunting.jpg","8"
"080819","11:02:17","3","3","5.0.14.0","2","175","trial1","naming","0","0","0","0","peach","0","3655","1","White_Screen.jpg","13","29","Peach.jpg","13"
"080819","11:02:17","3","3","5.0.14.0","2","176","trial1","naming","0","0","0","0","stroller","0","2683","1","White_Screen.jpg","9","25","Stroller.jpg","9"
"080819","11:02:17","3","3","5.0.14.0","2","177","trial1","naming","0","0","0","0","daisy","0","2334","1","White_Screen.jpg","7","185","Flower_Daisy.jpg","7"
"080819","11:02:17","3","3","5.0.14.0","2","178","trial1","naming","0","0","0","0","glass mug","0","5026","1","White_Screen.jpg","8","156","Mug_Beer.jpg","8"
"080819","11:02:17","3","3","5.0.14.0","2","179","trial1","naming","0","0","0","0","television","0","4188","1","White_Screen.jpg","8","157","Television.jpg","8"
"080819","11:02:17","3","3","5.0.14.0","2","180","trial1","naming","0","0","0","0","mouthguard","0","6127","1","White_Screen.jpg","10","178","MouthGuard.jpg","10"
"080819","11:02:17","3","3","5.0.14.0","2","181","trial1","naming","0","0","0","0","gutter downspout","0","6836","1","White_Screen.jpg","7","4","Pipe_Drain.jpg","7"
"080819","11:02:17","3","3","5.0.14.0","2","182","trial1","naming","0","0","0","0","chair","0","2921","1","White_Screen.jpg","12","66","Chair_Dining.jpg","12"
"080819","11:02:17","3","3","5.0.14.0","2","183","trial1","naming","0","0","0","0","corn kernels","0","4316","1","White_Screen.jpg","12","45","Corn_Kernels.jpg","12"
"080819","11:02:17","3","3","5.0.14.0","2","184","trial1","naming","0","0","0","0","vest","0","2287","1","White_Screen.jpg","8","111","Vest.jpg","8"
"080819","11:02:17","3","3","5.0.14.0","2","185","trial1","naming","0","0","0","0","parachute","0","3669","1","White_Screen.jpg","7","134","Paratrooper.jpg","7"
"080819","11:02:17","3","3","5.0.14.0","2","186","trial1","naming","0","0","0","0","can telephone","0","4243","1","White_Screen.jpg","7","144","Telephone_TinCan.jpg","7"
"080819","11:02:17","3","3","5.0.14.0","2","187","trial1","naming","0","0","0","0","towel rack","0","4254","1","White_Screen.jpg","10","121","TowelRack_Metal.jpg","10"
"080819","11:02:17","3","3","5.0.14.0","2","188","trial1","naming","0","0","0","0","lipstick","0","3313","1","White_Screen.jpg","6","41","Lipstick.jpg","6"
"080819","11:02:17","3","3","5.0.14.0","2","189","trial1","naming","0","0","0","0","kiwi","0","3263","1","White_Screen.jpg","14","59","Kiwi.jpg","14"
"080819","11:02:17","3","3","5.0.14.0","2","190","trial1","naming","0","0","0","0","ramekin","0","3035","1","White_Screen.jpg","7","145","Ramekin.jpg","7"
"080819","11:02:17","3","3","5.0.14.0","2","191","trial1","naming","0","0","0","0","goose","0","2338","1","White_Screen.jpg","9","137","Goose_Canadian.jpg","9"
"080819","11:02:17","3","3","5.0.14.0","2","192","trial1","naming","0","0","0","0","fruit salad","0","3359","1","White_Screen.jpg","8","125","Cup_Fruits.jpg","8"
"080819","11:02:17","3","3","5.0.14.0","2","193","trial1","naming","0","0","0","0","blower","0","10000","1","White_Screen.jpg","11","140","CoolingFan_Engine2.jpg","11"
"080819","11:02:17","3","3","5.0.14.0","2","194","trial1","naming","0","0","0","0","construction paper","0","4471","1","White_Screen.jpg","11","98","OrigamiPaper.jpg","11"
"080819","11:02:17","3","3","5.0.14.0","2","195","trial1","naming","0","0","0","0","magnifying lens","0","3812","1","White_Screen.jpg","8","196","Magnifying_Glass.jpg","8"
"080819","11:02:17","3","3","5.0.14.0","2","196","trial1","naming","0","0","0","0","umbrella","0","3032","1","White_Screen.jpg","12","93","Umbrella_Classic.jpg","12"
"080819","11:02:17","3","3","5.0.14.0","2","197","trial1","naming","0","0","0","0","baseball bat","0","3364","1","White_Screen.jpg","13","87","Bat_Baseball.jpg","13"
"080819","11:02:17","3","3","5.0.14.0","2","198","trial1","naming","0","0","0","0","knife block","0","3380","1","White_Screen.jpg","7","163","KnifeHolder.jpg","7"
"080819","11:02:17","3","3","5.0.14.0","2","199","trial1","naming","0","0","0","0","man","0","3040","1","White_Screen.jpg","12","112","Man.jpg","12"
"080819","11:02:17","3","3","5.0.14.0","2","200","trial1","naming","0","0","0","0","sand castle","0","3340","1","White_Screen.jpg","8","103","Sandcastle.jpg","8"
"080819","11:02:17","3","3","5.0.14.0","2","201","trial1","naming","0","0","0","0","watch","0","2373","1","White_Screen.jpg","9","127","Watch.jpg","9"
"080819","11:02:17","3","3","5.0.14.0","2","202","trial1","naming","0","0","0","0","boiled egg","0","5537","1","White_Screen.jpg","7","37","Egg_Cup.jpg","7"
"080819","11:02:17","3","3","5.0.14.0","2","203","trial1","naming","0","0","0","0","broom","0","2612","1","White_Screen.jpg","10","75","Broom_Long.jpg","10"
"080819","11:02:17","3","3","5.0.14.0","3","1","demographics_block","gender","0","0","0","0","Female","1","34881","0","0","0","0","0","0"
"080819","11:02:17","3","3","5.0.14.0","3","1","demographics_block","age","0","0","0","0","38","1","34881","0","0","0","0","0","0"
"080819","11:02:17","3","3","5.0.14.0","3","1","demographics_block","education","0","0","0","0","16","1","34881","0","0","0","0","0","0"
"080819","11:02:17","3","3","5.0.14.0","3","2","demographics_block","left_right_handed","0","0","0","0","Right","1","9472","0","0","0","0","0","0"
"080819","11:02:17","3","3","5.0.14.0","3","2","demographics_block","raceoption1","0","0","0","0","0","1","9472","0","0","0","0","0","0"
"080819","11:02:17","3","3","5.0.14.0","3","2","demographics_block","raceoption2","0","0","0","0","","1","9472","0","0","0","0","0","0"
"080819","11:02:17","3","3","5.0.14.0","3","2","demographics_block","raceoption3","0","0","0","0","","1","9472","0","0","0","0","0","0"
"080819","11:02:17","3","3","5.0.14.0","3","2","demographics_block","raceoption4","0","0","0","0","","1","9472","0","0","0","0","0","0"
"080819","11:02:17","3","3","5.0.14.0","3","2","demographics_block","raceoption5","0","0","0","0","","1","9472","0","0","0","0","0","0"
"080819","11:02:17","3","3","5.0.14.0","3","2","demographics_block","raceoption6","0","0","0","0","","1","9472","0","0","0","0","0","0"
"080819","11:02:17","3","3","5.0.14.0","3","2","demographics_block","raceoption7","0","0","0","0","","1","9472","0","0","0","0","0","0"
"080819","11:02:17","3","3","5.0.14.0","3","2","demographics_block","raceoption8","0","0","0","0","","1","9472","0","0","0","0","0","0"
"080819","11:02:17","3","3","5.0.14.0","3","2","demographics_block","raceoption9","0","0","0","0","","1","9472","0","0","0","0","0","0"
"080819","11:02:17","3","3","5.0.14.0","3","2","demographics_block","raceother","0","0","0","0","","1","9472","0","0","0","0","0","0"
"080819","11:02:17","3","3","5.0.14.0","3","2","demographics_block","raceother","0","0","0","0","","1","9472","0","0","0","0","0","0"
"080819","11:02:17","3","3","5.0.14.0","3","2","demographics_block","english_language","0","0","0","0","Yes","1","9472","0","0","0","0","0","0"
"080819","11:02:17","3","3","5.0.14.0","3","2","demographics_block","english_languageother","0","0","0","0","","1","9472","0","0","0","0","0","0"
"080819","11:02:17","3","3","5.0.14.0","3","3","demographics_block","eyesight","0","0","0","0","Yes","1","4787","0","0","0","0","0","0"
"080819","11:02:17","3","3","5.0.14.0","3","3","demographics_block","colorblind","0","0","0","0","No","1","4787","0","0","0","0","0","0"
"080819","11:02:17","3","3","5.0.14.0","4","1","worker_id_block","worker_id_textbox","0","0","0","0","A34DR0CVUBDL1N","1","5710","0","0","0","0","0","0"
"080819","11:24:38","4","4","5.0.14.0","2","1","trial1","naming","0","0","0","0","ghost","0","9666","1","White_Screen.jpg","51","136","Ghost.jpg","51"
"080819","11:24:38","4","4","5.0.14.0","2","2","trial1","naming","0","0","0","0","umbrella","0","3875","1","White_Screen.jpg","7","93","Umbrella_Classic.jpg","7"
"080819","11:24:38","4","4","5.0.14.0","2","3","trial1","naming","0","0","0","0","brush","0","4025","1","White_Screen.jpg","10","138","Brush_Paint.jpg","10"
"080819","11:24:38","4","4","5.0.14.0","2","4","trial1","naming","0","0","0","0","razor","0","3471","1","White_Screen.jpg","8","84","Razor.jpg","8"
"080819","11:24:38","4","4","5.0.14.0","2","5","trial1","naming","0","0","0","0","dice","0","3091","1","White_Screen.jpg","6","147","FuzzyDice.jpg","6"
"080819","11:24:38","4","4","5.0.14.0","2","6","trial1","naming","0","0","0","0","cans","0","2769","1","White_Screen.jpg","9","144","Telephone_TinCan.jpg","9"
"080819","11:24:38","4","4","5.0.14.0","2","7","trial1","naming","0","0","0","0","mirror","0","6585","1","White_Screen.jpg","7","2","Frame_Oval.jpg","7"
"080819","11:24:38","4","4","5.0.14.0","2","8","trial1","naming","0","0","0","0","lentils","0","6456","1","White_Screen.jpg","5","89","PeasSplit.jpg","5"
"080819","11:24:38","4","4","5.0.14.0","2","9","trial1","naming","0","0","0","0","machine","0","6298","1","White_Screen.jpg","7","128","SpinningWheel.jpg","7"
"080819","11:24:38","4","4","5.0.14.0","2","10","trial1","naming","0","0","0","0","branch","0","5576","1","White_Screen.jpg","7","53","Decoration_WallOrnament.jpg","7"
"080819","11:24:38","4","4","5.0.14.0","2","11","trial1","naming","0","0","0","0","recorder","0","3802","1","White_Screen.jpg","6","83","RecorderCassette.jpg","6"
"080819","11:24:38","4","4","5.0.14.0","2","12","trial1","naming","0","0","0","0","cow","0","2501","1","White_Screen.jpg","8","9","Cow.jpg","8"
"080819","11:24:38","4","4","5.0.14.0","2","13","trial1","naming","0","0","0","0","tank","0","3290","1","White_Screen.jpg","8","56","Canister_Oil.jpg","8"
"080819","11:24:38","4","4","5.0.14.0","2","14","trial1","naming","0","0","0","0","hose ","0","10000","1","White_Screen.jpg","8","105","HoseNozzle.jpg","8"
"080819","11:24:38","4","4","5.0.14.0","2","15","trial1","naming","0","0","0","0","can","0","4667","1","White_Screen.jpg","5","51","Can_Oblong.jpg","5"
"080819","11:24:38","4","4","5.0.14.0","2","16","trial1","naming","0","0","0","0","bottle","0","4027","1","White_Screen.jpg","6","200","Bottle_Blue.jpg","6"
"080819","11:24:38","4","4","5.0.14.0","2","17","trial1","naming","0","0","0","0","hook","0","5648","1","White_Screen.jpg","6","22","Hook_Fishing.jpg","6"
"080819","11:24:38","4","4","5.0.14.0","2","18","trial1","naming","0","0","0","0","cookies","0","3823","1","White_Screen.jpg","6","198","Jar_Cookie.jpg","6"
"080819","11:24:38","4","4","5.0.14.0","2","19","trial1","naming","0","0","0","0","nozzle","0","4363","1","White_Screen.jpg","8","175","PaintSprayer.jpg","8"
"080819","11:24:38","4","4","5.0.14.0","2","20","trial1","naming","0","0","0","0","soap","0","8987","1","White_Screen.jpg","9","176","VialLab.jpg","9"
"080819","11:24:38","4","4","5.0.14.0","2","21","trial1","naming","0","0","0","0","brush","0","3361","1","White_Screen.jpg","7","15","Brush_Toilet.jpg","7"
"080819","11:24:38","4","4","5.0.14.0","2","22","trial1","naming","0","0","0","0","table","0","3718","1","White_Screen.jpg","6","43","Table_Side.jpg","6"
"080819","11:24:38","4","4","5.0.14.0","2","23","trial1","naming","0","0","0","0","remote","0","2610","1","White_Screen.jpg","8","80","RemoteControl.jpg","8"
"080819","11:24:38","4","4","5.0.14.0","2","24","trial1","naming","0","0","0","0","grapes","0","3122","1","White_Screen.jpg","8","95","Grape.jpg","8"
"080819","11:24:38","4","4","5.0.14.0","2","25","trial1","naming","0","0","0","0","flower","0","2922","1","White_Screen.jpg","7","185","Flower_Daisy.jpg","7"
"080819","11:24:38","4","4","5.0.14.0","2","26","trial1","naming","0","0","0","0","tube","0","6173","1","White_Screen.jpg","6","3","BicycleHandleGrip.jpg","6"
"080819","11:24:38","4","4","5.0.14.0","2","27","trial1","naming","0","0","0","0","fruit","0","4149","1","White_Screen.jpg","5","125","Cup_Fruits.jpg","5"
"080819","11:24:38","4","4","5.0.14.0","2","28","trial1","naming","0","0","0","0","english muffin","0","5069","1","White_Screen.jpg","8","34","EnglishMuffin.jpg","8"
"080819","11:24:38","4","4","5.0.14.0","2","29","trial1","naming","0","0","0","0","fire stop","0","5464","1","White_Screen.jpg","8","116","CandleSnuffer.jpg","8"
"080819","11:24:38","4","4","5.0.14.0","2","30","trial1","naming","0","0","0","0","crane","0","5678","1","White_Screen.jpg","8","165","Backhoe.jpg","8"
"080819","11:24:38","4","4","5.0.14.0","2","31","trial1","naming","0","0","0","0","bowl","0","2829","1","White_Screen.jpg","7","65","Glass_Bowl.jpg","7"
"080819","11:24:38","4","4","5.0.14.0","2","32","trial1","naming","0","0","0","0","paint","0","3606","1","White_Screen.jpg","6","190","WaterColorPaintset.jpg","6"
"080819","11:24:38","4","4","5.0.14.0","2","33","trial1","naming","0","0","0","0","bag","0","3341","1","White_Screen.jpg","7","26","Bag_Gym.jpg","7"
"080819","11:24:38","4","4","5.0.14.0","2","34","trial1","naming","0","0","0","0","notebook","0","3379","1","White_Screen.jpg","8","106","Notebook.jpg","8"
"080819","11:24:38","4","4","5.0.14.0","2","35","trial1","naming","0","0","0","0","sign","0","3161","1","White_Screen.jpg","9","151","Sign_SpeedLimit30.jpg","9"
"080819","11:24:38","4","4","5.0.14.0","2","36","trial1","naming","0","0","0","0","popori","0","6925","1","White_Screen.jpg","7","129","Pouch_PotPourri.jpg","7"
"080819","11:24:38","4","4","5.0.14.0","2","37","trial1","naming","0","0","0","0","Enter Name","0","10000","1","White_Screen.jpg","9","47","Harp.jpg","9"
"080819","11:24:38","4","4","5.0.14.0","2","38","trial1","naming","0","0","0","0","tank","0","4875","1","White_Screen.jpg","8","73","Can_Gas.jpg","8"
"080819","11:24:38","4","4","5.0.14.0","2","39","trial1","naming","0","0","0","0","wire","0","3913","1","White_Screen.jpg","8","69","Cord_Ethernet.jpg","8"
"080819","11:24:38","4","4","5.0.14.0","2","40","trial1","naming","0","0","0","0","chair","0","2928","1","White_Screen.jpg","7","173","Chair_Rocking.jpg","7"
"080819","11:24:38","4","4","5.0.14.0","2","41","trial1","naming","0","0","0","0","stairs","0","3855","1","White_Screen.jpg","10","197","Staircase_Straight.jpg","10"
"080819","11:24:38","4","4","5.0.14.0","2","42","trial1","naming","0","0","0","0","sign","0","4279","1","White_Screen.jpg","10","169","Sign_Airport.jpg","10"
"080819","11:24:38","4","4","5.0.14.0","2","43","trial1","naming","0","0","0","0","fuel container","0","9930","1","White_Screen.jpg","7","11","Can_GasSpout.jpg","7"
"080819","11:24:38","4","4","5.0.14.0","2","44","trial1","naming","0","0","0","0","bush","0","3895","1","White_Screen.jpg","5","96","Shrub_Boxwood.jpg","5"
"080819","11:24:38","4","4","5.0.14.0","2","45","trial1","naming","0","0","0","0","parachuter","0","5277","1","White_Screen.jpg","9","134","Paratrooper.jpg","9"
"080819","11:24:38","4","4","5.0.14.0","2","46","trial1","naming","0","0","0","0","stones","0","3503","1","White_Screen.jpg","10","152","Stone_Spa.jpg","10"
"080819","11:24:38","4","4","5.0.14.0","2","47","trial1","naming","0","0","0","0","earaser","0","4157","1","White_Screen.jpg","9","192","Eraser.jpg","9"
"080819","11:24:38","4","4","5.0.14.0","2","48","trial1","naming","0","0","0","0","peach","0","3013","1","White_Screen.jpg","10","29","Peach.jpg","10"
"080819","11:24:38","4","4","5.0.14.0","2","49","trial1","naming","0","0","0","0","phone","0","3325","1","White_Screen.jpg","7","42","Phone_Public.jpg","7"
"080819","11:24:38","4","4","5.0.14.0","2","50","trial1","naming","0","0","0","0","tweezer","0","9735","1","White_Screen.jpg","13","132","Tweezers.jpg","13"
"080819","11:24:38","4","4","5.0.14.0","2","52","trial1","naming","0","0","0","0","monitor","0","5000","1","White_Screen.jpg","5","21","BabyMonitor.jpg","5"
"080819","11:24:38","4","4","5.0.14.0","2","53","trial1","naming","0","0","0","0","shovel","0","3266","1","White_Screen.jpg","7","162","Trowel.jpg","7"
"080819","11:24:38","4","4","5.0.14.0","2","54","trial1","naming","0","0","0","0","stove","0","3340","1","White_Screen.jpg","7","92","Stove_WithOven.jpg","7"
"080819","11:24:38","4","4","5.0.14.0","2","55","trial1","naming","0","0","0","0","retainer","0","5410","1","White_Screen.jpg","7","178","MouthGuard.jpg","7"
"080819","11:24:38","4","4","5.0.14.0","2","56","trial1","naming","0","0","0","0","suit","0","2788","1","White_Screen.jpg","7","97","Suit_Women.jpg","7"
"080819","11:24:38","4","4","5.0.14.0","2","57","trial1","naming","0","0","0","0","horse","0","3776","1","White_Screen.jpg","6","131","Toy_RockingHorseBeige.jpg","6"
"080819","11:24:38","4","4","5.0.14.0","2","58","trial1","naming","0","0","0","0","makeup","0","4899","1","White_Screen.jpg","9","41","Lipstick.jpg","9"
"080819","11:24:38","4","4","5.0.14.0","2","59","trial1","naming","0","0","0","0","igloo","0","3180","1","White_Screen.jpg","10","184","Igloo.jpg","10"
"080819","11:24:38","4","4","5.0.14.0","2","60","trial1","naming","0","0","0","0","ruler","0","3015","1","White_Screen.jpg","7","8","Ruler_Triangle.jpg","7"
"080819","11:24:38","4","4","5.0.14.0","2","61","trial1","naming","0","0","0","0","fan","0","3337","1","White_Screen.jpg","5","6","PropellerFan.jpg","5"
"080819","11:24:38","4","4","5.0.14.0","2","62","trial1","naming","0","0","0","0","tape","0","2670","1","White_Screen.jpg","8","68","Tape_Dispenser.jpg","8"
"080819","11:24:38","4","4","5.0.14.0","2","63","trial1","naming","0","0","0","0","ham","0","10000","1","White_Screen.jpg","8","76","GuineaPig.jpg","8"
"080819","11:24:38","4","4","5.0.14.0","2","64","trial1","naming","0","0","0","0","lettuce","0","9675","1","White_Screen.jpg","8","94","Lettuce_Iceberg.jpg","8"
"080819","11:24:38","4","4","5.0.14.0","2","65","trial1","naming","0","0","0","0","soap","0","2570","1","White_Screen.jpg","8","186","SoapBottle.jpg","8"
"080819","11:24:38","4","4","5.0.14.0","2","66","trial1","naming","0","0","0","0","corn","0","2639","1","White_Screen.jpg","7","45","Corn_Kernels.jpg","7"
"080819","11:24:38","4","4","5.0.14.0","2","67","trial1","naming","0","0","0","0","boat","0","3642","1","White_Screen.jpg","7","78","Ship_Model.jpg","7"
"080819","11:24:38","4","4","5.0.14.0","2","68","trial1","naming","0","0","0","0","compressor","0","5158","1","White_Screen.jpg","9","107","AirCompressor.jpg","9"
"080819","11:24:38","4","4","5.0.14.0","2","69","trial1","naming","0","0","0","0","container","0","8542","1","White_Screen.jpg","12","62","Jug_GallonRed.jpg","12"
"080819","11:24:38","4","4","5.0.14.0","2","70","trial1","naming","0","0","0","0","bed","0","2624","1","White_Screen.jpg","6","122","Bed_Hospital.jpg","6"
"080819","11:24:38","4","4","5.0.14.0","2","71","trial1","naming","0","0","0","0","machine","0","3940","1","White_Screen.jpg","7","189","Distaff.jpg","7"
"080819","11:24:38","4","4","5.0.14.0","2","72","trial1","naming","0","0","0","0","spoom","0","2800","1","White_Screen.jpg","11","32","Spoon_Baby.jpg","11"
"080819","11:24:38","4","4","5.0.14.0","2","73","trial1","naming","0","0","0","0","brain","0","3761","1","White_Screen.jpg","11","153","BrainSagittal.jpg","11"
"080819","11:24:38","4","4","5.0.14.0","2","74","trial1","naming","0","0","0","0","shoe","0","3083","1","White_Screen.jpg","16","123","Shoe_Pink.jpg","16"
"080819","11:24:38","4","4","5.0.14.0","2","75","trial1","naming","0","0","0","0","paper","0","2870","1","White_Screen.jpg","8","98","OrigamiPaper.jpg","8"
"080819","11:24:38","4","4","5.0.14.0","2","76","trial1","naming","0","0","0","0","sea horse","0","3573","1","White_Screen.jpg","9","55","Seahorse.jpg","9"
"080819","11:24:38","4","4","5.0.14.0","2","77","trial1","naming","0","0","0","0","scorpion","0","4515","1","White_Screen.jpg","8","46","Scorpion.jpg","8"
"080819","11:24:38","4","4","5.0.14.0","2","78","trial1","naming","0","0","0","0","level","0","5674","1","White_Screen.jpg","8","167","Level.jpg","8"
"080819","11:24:38","4","4","5.0.14.0","2","79","trial1","naming","0","0","0","0","cat","0","3233","1","White_Screen.jpg","5","18","Statue_Cat.jpg","5"
"080819","11:24:38","4","4","5.0.14.0","2","80","trial1","naming","0","0","0","0","seat","0","3289","1","White_Screen.jpg","7","17","BicycleSeat.jpg","7"
"080819","11:24:38","4","4","5.0.14.0","2","81","trial1","naming","0","0","0","0","glass","0","3838","1","White_Screen.jpg","8","28","Glass_Martini.jpg","8"
"080819","11:24:38","4","4","5.0.14.0","2","82","trial1","naming","0","0","0","0","skirt","0","3074","1","White_Screen.jpg","8","182","Skirt_Long.jpg","8"
"080819","11:24:38","4","4","5.0.14.0","2","83","trial1","naming","0","0","0","0","boat","0","3974","1","White_Screen.jpg","8","44","Boat_Row.jpg","8"
"080819","11:24:38","4","4","5.0.14.0","2","84","trial1","naming","0","0","0","0","statue","0","6525","1","White_Screen.jpg","9","100","MannequinBust.jpg","9"
"080819","11:24:38","4","4","5.0.14.0","2","85","trial1","naming","0","0","0","0","bullet","0","3465","1","White_Screen.jpg","10","139","Bullet.jpg","10"
"080819","11:24:38","4","4","5.0.14.0","2","86","trial1","naming","0","0","0","0","crane","0","2872","1","White_Screen.jpg","7","126","CraneMachine.jpg","7"
"080819","11:24:38","4","4","5.0.14.0","2","87","trial1","naming","0","0","0","0","meat","0","2670","1","White_Screen.jpg","14","191","MeatRaw.jpg","14"
"080819","11:24:38","4","4","5.0.14.0","2","88","trial1","naming","0","0","0","0","kettle","0","3913","1","White_Screen.jpg","9","119","Kettle.jpg","9"
"080819","11:24:38","4","4","5.0.14.0","2","89","trial1","naming","0","0","0","0","sign","0","3817","1","White_Screen.jpg","10","124","Sign_SpeedLimit25.jpg","10"
"080819","11:24:38","4","4","5.0.14.0","2","90","trial1","naming","0","0","0","0","chair","0","3194","1","White_Screen.jpg","10","91","RickShaw.jpg","10"
"080819","11:24:38","4","4","5.0.14.0","2","91","trial1","naming","0","0","0","0","dryer","0","6063","1","White_Screen.jpg","9","168","DryingMachine.jpg","9"
"080819","11:24:38","4","4","5.0.14.0","2","92","trial1","naming","0","0","0","0","goose","0","4361","1","White_Screen.jpg","7","137","Goose_Canadian.jpg","7"
"080819","11:24:38","4","4","5.0.14.0","2","93","trial1","naming","0","0","0","0","onion ring","0","5707","1","White_Screen.jpg","10","161","OnionRings.jpg","10"
"080819","11:24:38","4","4","5.0.14.0","2","94","trial1","naming","0","0","0","0","pickle","0","3761","1","White_Screen.jpg","6","104","Pickle.jpg","6"
"080819","11:24:38","4","4","5.0.14.0","2","95","trial1","naming","0","0","0","0","closet","0","3835","1","White_Screen.jpg","7","31","Wardrobe.jpg","7"
"080819","11:24:38","4","4","5.0.14.0","2","96","trial1","naming","0","0","0","0","grinder","0","3715","1","White_Screen.jpg","11","19","MeatGrinder.jpg","11"
"080819","11:24:38","4","4","5.0.14.0","2","97","trial1","naming","0","0","0","0","drip","0","4651","1","White_Screen.jpg","9","60","Bag_Saline.jpg","9"
"080819","11:24:38","4","4","5.0.14.0","2","98","trial1","naming","0","0","0","0","hotdog","0","4682","1","White_Screen.jpg","6","63","Hotdog_Weiner.jpg","6"
"080819","11:24:38","4","4","5.0.14.0","2","99","trial1","naming","0","0","0","0","cage","0","3895","1","White_Screen.jpg","7","35","Cage_Bird.jpg","7"
"080819","11:24:38","4","4","5.0.14.0","2","100","trial1","naming","0","0","0","0","wheel","0","3719","1","White_Screen.jpg","9","48","Tire_Hollow.jpg","9"
"080819","11:24:38","4","4","5.0.14.0","2","101","trial1","naming","0","0","0","0","lego","0","3351","1","White_Screen.jpg","6","88","Toys_Lego.jpg","6"
"080819","11:24:38","4","4","5.0.14.0","2","103","trial1","naming","0","0","0","0","wood","0","4377","1","White_Screen.jpg","7","179","Plate_Wooden.jpg","7"
"080819","11:24:38","4","4","5.0.14.0","2","104","trial1","naming","0","0","0","0","toy","0","2643","1","White_Screen.jpg","11","79","MonkeyPuppet.jpg","11"
"080819","11:24:38","4","4","5.0.14.0","2","105","trial1","naming","0","0","0","0","leaf","0","4604","1","White_Screen.jpg","9","183","Dill.jpg","9"
"080819","11:24:38","4","4","5.0.14.0","2","106","trial1","naming","0","0","0","0","tool","0","3003","1","White_Screen.jpg","9","90","Clamp.jpg","9"
"080819","11:24:38","4","4","5.0.14.0","2","107","trial1","naming","0","0","0","0","light","0","3887","1","White_Screen.jpg","7","195","Otoscope.jpg","7"
"080819","11:24:38","4","4","5.0.14.0","2","108","trial1","naming","0","0","0","0","chain","0","2872","1","White_Screen.jpg","13","101","ChainRusty.jpg","13"
"080819","11:24:38","4","4","5.0.14.0","2","109","trial1","naming","0","0","0","0","boat","0","3660","1","White_Screen.jpg","6","158","Boat_Dinghy.jpg","6"
"080819","11:24:38","4","4","5.0.14.0","2","110","trial1","naming","0","0","0","0","jersey","0","4457","1","White_Screen.jpg","5","12","Shirt_SportsJersey.jpg","5"
"080819","11:24:38","4","4","5.0.14.0","2","111","trial1","naming","0","0","0","0","horn","0","2759","1","White_Screen.jpg","10","177","Horn_Hunting.jpg","10"
"080819","11:24:38","4","4","5.0.14.0","2","112","trial1","naming","0","0","0","0","snorkel","0","4127","1","White_Screen.jpg","7","74","Snorkle.jpg","7"
"080819","11:24:38","4","4","5.0.14.0","2","113","trial1","naming","0","0","0","0","hotdog","0","2903","1","White_Screen.jpg","9","114","Hotdog_WithBun.jpg","9"
"080819","11:24:38","4","4","5.0.14.0","2","114","trial1","naming","0","0","0","0","ice skate","0","9077","1","White_Screen.jpg","8","52","Skates.jpg","8"
"080819","11:24:38","4","4","5.0.14.0","2","115","trial1","naming","0","0","0","0","tree","0","3149","1","White_Screen.jpg","9","7","Tree_Fir.jpg","9"
"080819","11:24:38","4","4","5.0.14.0","2","116","trial1","naming","0","0","0","0","mug","0","3000","1","White_Screen.jpg","7","156","Mug_Beer.jpg","7"
"080819","11:24:38","4","4","5.0.14.0","2","117","trial1","naming","0","0","0","0","fan","0","3403","1","White_Screen.jpg","6","140","CoolingFan_Engine2.jpg","6"
"080819","11:24:38","4","4","5.0.14.0","2","118","trial1","naming","0","0","0","0","sign","0","2840","1","White_Screen.jpg","12","77","Sign_Wetfloor.jpg","12"
"080819","11:24:38","4","4","5.0.14.0","2","119","trial1","naming","0","0","0","0","goggle","0","4972","1","White_Screen.jpg","6","171","GogglesSwim.jpg","6"
"080819","11:24:38","4","4","5.0.14.0","2","120","trial1","naming","0","0","0","0","man","0","2335","1","White_Screen.jpg","7","112","Man.jpg","7"
"080819","11:24:38","4","4","5.0.14.0","2","121","trial1","naming","0","0","0","0","television","0","4182","1","White_Screen.jpg","11","157","Television.jpg","11"
"080819","11:24:38","4","4","5.0.14.0","2","122","trial1","naming","0","0","0","0","bus","0","2852","1","White_Screen.jpg","9","113","Bus_School.jpg","9"
"080819","11:24:38","4","4","5.0.14.0","2","123","trial1","naming","0","0","0","0","condom","0","5520","1","White_Screen.jpg","8","187","Condom.jpg","8"
"080819","11:24:38","4","4","5.0.14.0","2","124","trial1","naming","0","0","0","0","decor","0","4716","1","White_Screen.jpg","10","130","Decoration_Chinese.jpg","10"
"080819","11:24:38","4","4","5.0.14.0","2","125","trial1","naming","0","0","0","0","stroller","0","3308","1","White_Screen.jpg","12","25","Stroller.jpg","12"
"080819","11:24:38","4","4","5.0.14.0","2","126","trial1","naming","0","0","0","0","neck brace","0","5046","1","White_Screen.jpg","8","57","Brace_Neck.jpg","8"
"080819","11:24:38","4","4","5.0.14.0","2","127","trial1","naming","0","0","0","0","churn","0","2793","1","White_Screen.jpg","9","99","ButterChurn.jpg","9"
"080819","11:24:38","4","4","5.0.14.0","2","128","trial1","naming","0","0","0","0","roller","0","2708","1","White_Screen.jpg","8","39","PaintRoller.jpg","8"
"080819","11:24:38","4","4","5.0.14.0","2","129","trial1","naming","0","0","0","0","bowl","0","3584","1","White_Screen.jpg","6","145","Ramekin.jpg","6"
"080819","11:24:38","4","4","5.0.14.0","2","130","trial1","naming","0","0","0","0","equipment","0","6418","1","White_Screen.jpg","8","146","Exercise_HandTrainer.jpg","8"
"080819","11:24:38","4","4","5.0.14.0","2","131","trial1","naming","0","0","0","0","plates","0","5581","1","White_Screen.jpg","10","72","Plate_Decorative.jpg","10"
"080819","11:24:38","4","4","5.0.14.0","2","132","trial1","naming","0","0","0","0","ring","0","5246","1","White_Screen.jpg","9","110","Pasta_Fusilli.jpg","9"
"080819","11:24:38","4","4","5.0.14.0","2","133","trial1","naming","0","0","0","0","bat","0","4683","1","White_Screen.jpg","6","166","Bat_Cricket.jpg","6"
"080819","11:24:38","4","4","5.0.14.0","2","134","trial1","naming","0","0","0","0","block","0","5205","1","White_Screen.jpg","8","163","KnifeHolder.jpg","8"
"080819","11:24:38","4","4","5.0.14.0","2","135","trial1","naming","0","0","0","0","register","0","4638","1","White_Screen.jpg","8","13","CashRegister_Antique.jpg","8"
"080819","11:24:38","4","4","5.0.14.0","2","136","trial1","naming","0","0","0","0","spray bottle","0","5514","1","White_Screen.jpg","8","174","Bottle_Spray.jpg","8"
"080819","11:24:38","4","4","5.0.14.0","2","137","trial1","naming","0","0","0","0","clover","0","2954","1","White_Screen.jpg","9","70","Leaf_Clover.jpg","9"
"080819","11:24:38","4","4","5.0.14.0","2","138","trial1","naming","0","0","0","0","play doh","0","6383","1","White_Screen.jpg","7","86","Playdoh.jpg","7"
"080819","11:24:38","4","4","5.0.14.0","2","139","trial1","naming","0","0","0","0","thermas","0","4122","1","White_Screen.jpg","7","82","Thermos_MetalSleek.jpg","7"
"080819","11:24:38","4","4","5.0.14.0","2","140","trial1","naming","0","0","0","0","stamps","0","4359","1","White_Screen.jpg","6","85","PostageStamps.jpg","6"
"080819","11:24:38","4","4","5.0.14.0","2","141","trial1","naming","0","0","0","0","watch","0","3821","1","White_Screen.jpg","6","127","Watch.jpg","6"
"080819","11:24:38","4","4","5.0.14.0","2","142","trial1","naming","0","0","0","0","gutter","0","4690","1","White_Screen.jpg","6","4","Pipe_Drain.jpg","6"
"080819","11:24:38","4","4","5.0.14.0","2","143","trial1","naming","0","0","0","0","tickets","0","2907","1","White_Screen.jpg","10","172","Tickets_Blank.jpg","10"
"080819","11:24:38","4","4","5.0.14.0","2","144","trial1","naming","0","0","0","0","drum","0","3934","1","White_Screen.jpg","10","148","Drum_Ramadan.jpg","10"
"080819","11:24:38","4","4","5.0.14.0","2","145","trial1","naming","0","0","0","0","shield","0","3393","1","White_Screen.jpg","9","49","Shield_Antique.jpg","9"
"080819","11:24:38","4","4","5.0.14.0","2","146","trial1","naming","0","0","0","0","barrel","0","4186","1","White_Screen.jpg","12","1","Barrel_Upright.jpg","12"
"080819","11:24:38","4","4","5.0.14.0","2","147","trial1","naming","0","0","0","0","onion","0","7562","1","White_Screen.jpg","5","142","Leek.jpg","5"
"080819","11:24:38","4","4","5.0.14.0","2","148","trial1","naming","0","0","0","0","eggs","0","3277","1","White_Screen.jpg","11","30","CartonEggs.jpg","11"
"080819","11:24:38","4","4","5.0.14.0","2","149","trial1","naming","0","0","0","0","measuring spoons","0","7201","1","White_Screen.jpg","9","23","Spoons_MeasuringDetached.jpg","9"
"080819","11:24:38","4","4","5.0.14.0","2","150","trial1","naming","0","0","0","0","celery","0","2820","1","White_Screen.jpg","6","154","Celery.jpg","6"
"080819","11:24:38","4","4","5.0.14.0","2","151","trial1","naming","0","0","0","0","witch","0","3602","1","White_Screen.jpg","9","160","Toy_Witch.jpg","9"
"080819","11:24:38","4","4","5.0.14.0","2","152","trial1","naming","0","0","0","0","dynamite","0","4650","1","White_Screen.jpg","8","38","Dynamite.jpg","8"
"080819","11:24:38","4","4","5.0.14.0","2","154","trial1","naming","0","0","0","0","scoop","0","5676","1","White_Screen.jpg","10","155","Scoop_Flour.jpg","10"
"080819","11:24:38","4","4","5.0.14.0","2","155","trial1","naming","0","0","0","0","sand castle","0","3562","1","White_Screen.jpg","5","103","Sandcastle.jpg","5"
"080819","11:24:38","4","4","5.0.14.0","2","156","trial1","naming","0","0","0","0","pipe","0","3666","1","White_Screen.jpg","10","81","Tube.jpg","10"
"080819","11:24:38","4","4","5.0.14.0","2","157","trial1","naming","0","0","0","0","church","0","3112","1","White_Screen.jpg","9","199","Steeple.jpg","9"
"080819","11:24:38","4","4","5.0.14.0","2","158","trial1","naming","0","0","0","0","decor","0","6836","1","White_Screen.jpg","5","150","Sculpture_MetalMan.jpg","5"
"080819","11:24:38","4","4","5.0.14.0","2","159","trial1","naming","0","0","0","0","desk","0","3038","1","White_Screen.jpg","10","40","Chair_Student.jpg","10"
"080819","11:24:38","4","4","5.0.14.0","2","160","trial1","naming","0","0","0","0","globe","0","3207","1","White_Screen.jpg","6","64","SnowGlobe.jpg","6"
"080819","11:24:38","4","4","5.0.14.0","2","161","trial1","naming","0","0","0","0","syrup","0","3737","1","White_Screen.jpg","11","27","Syrup_Maple.jpg","11"
"080819","11:24:38","4","4","5.0.14.0","2","162","trial1","naming","0","0","0","0","egg","0","3256","1","White_Screen.jpg","8","37","Egg_Cup.jpg","8"
"080819","11:24:38","4","4","5.0.14.0","2","163","trial1","naming","0","0","0","0","sneakers","0","3645","1","White_Screen.jpg","6","108","Shoes_Sneakers.jpg","6"
"080819","11:24:38","4","4","5.0.14.0","2","164","trial1","naming","0","0","0","0","rollerblade","0","4069","1","White_Screen.jpg","9","54","RollerBlade.jpg","9"
"080819","11:24:38","4","4","5.0.14.0","2","165","trial1","naming","0","0","0","0","hookah","0","4418","1","White_Screen.jpg","11","120","Hookah.jpg","11"
"080819","11:24:38","4","4","5.0.14.0","2","166","trial1","naming","0","0","0","0","magnifier","0","6173","1","White_Screen.jpg","8","196","Magnifying_Glass.jpg","8"
"080819","11:24:38","4","4","5.0.14.0","2","167","trial1","naming","0","0","0","0","newspapers","0","6005","1","White_Screen.jpg","6","181","NewspaperStack.jpg","6"
"080819","11:24:38","4","4","5.0.14.0","2","168","trial1","naming","0","0","0","0","rod","0","3332","1","White_Screen.jpg","6","121","TowelRack_Metal.jpg","6"
"080819","11:24:38","4","4","5.0.14.0","2","169","trial1","naming","0","0","0","0","boat","0","3411","1","White_Screen.jpg","7","159","Boat_Trailer.jpg","7"
"080819","11:24:38","4","4","5.0.14.0","2","170","trial1","naming","0","0","0","0","glasses","0","5358","1","White_Screen.jpg","7","33","Lens_ColourFilter.jpg","7"
"080819","11:24:38","4","4","5.0.14.0","2","171","trial1","naming","0","0","0","0","pitch pipe","0","4283","1","White_Screen.jpg","6","188","Pipe_Pitch.jpg","6"
"080819","11:24:38","4","4","5.0.14.0","2","172","trial1","naming","0","0","0","0","axe","0","2494","1","White_Screen.jpg","4","58","Axe.jpg","4"
"080819","11:24:38","4","4","5.0.14.0","2","173","trial1","naming","0","0","0","0","birthday ","0","10000","1","White_Screen.jpg","7","149","Noisemaker.jpg","7"
"080819","11:24:38","4","4","5.0.14.0","2","174","trial1","naming","0","0","0","0","kiwi","0","3668","1","White_Screen.jpg","8","59","Kiwi.jpg","8"
"080819","11:24:38","4","4","5.0.14.0","2","175","trial1","naming","0","0","0","0","donkey","0","3363","1","White_Screen.jpg","10","135","Toy_DonkeyPlastic.jpg","10"
"080819","11:24:38","4","4","5.0.14.0","2","176","trial1","naming","0","0","0","0","vest","0","3499","1","White_Screen.jpg","5","111","Vest.jpg","5"
"080819","11:24:38","4","4","5.0.14.0","2","177","trial1","naming","0","0","0","0","traffic light","0","4701","1","White_Screen.jpg","12","180","Light_Traffic.jpg","12"
"080819","11:24:38","4","4","5.0.14.0","2","178","trial1","naming","0","0","0","0","life saver","0","4201","1","White_Screen.jpg","8","50","TubeRing.jpg","8"
"080819","11:24:38","4","4","5.0.14.0","2","179","trial1","naming","0","0","0","0","case","0","2997","1","White_Screen.jpg","6","115","Suitcase.jpg","6"
"080819","11:24:38","4","4","5.0.14.0","2","180","trial1","naming","0","0","0","0","feet","0","3468","1","White_Screen.jpg","6","194","Feet.jpg","6"
"080819","11:24:38","4","4","5.0.14.0","2","181","trial1","naming","0","0","0","0","light","0","4834","1","White_Screen.jpg","6","170","DentistOverheadLight.jpg","6"
"080819","11:24:38","4","4","5.0.14.0","2","182","trial1","naming","0","0","0","0","pencil","0","3121","1","White_Screen.jpg","8","5","Pencil.jpg","8"
"080819","11:24:38","4","4","5.0.14.0","2","183","trial1","naming","0","0","0","0","chicken","0","3353","1","White_Screen.jpg","6","193","Chicken_FriedWing.jpg","6"
"080819","11:24:38","4","4","5.0.14.0","2","184","trial1","naming","0","0","0","0","hook","0","3367","1","White_Screen.jpg","10","24","Hook_Ceiling.jpg","10"
"080819","11:24:38","4","4","5.0.14.0","2","185","trial1","naming","0","0","0","0","visor","0","3409","1","White_Screen.jpg","10","14","Hat_Visor.jpg","10"
"080819","11:24:38","4","4","5.0.14.0","2","186","trial1","naming","0","0","0","0","groceries","0","7399","1","White_Screen.jpg","6","133","Bag_Groceries.jpg","6"
"080819","11:24:38","4","4","5.0.14.0","2","187","trial1","naming","0","0","0","0","changing table","0","5248","1","White_Screen.jpg","8","118","DiaperChangingStation.jpg","8"
"080819","11:24:38","4","4","5.0.14.0","2","188","trial1","naming","0","0","0","0","makeup","0","3058","1","White_Screen.jpg","6","71","Makeup_Eyeshadow.jpg","6"
"080819","11:24:38","4","4","5.0.14.0","2","189","trial1","naming","0","0","0","0","shoes","0","2693","1","White_Screen.jpg","8","117","Shoes_Pumps.jpg","8"
"080819","11:24:38","4","4","5.0.14.0","2","190","trial1","naming","0","0","0","0","lock","0","2534","1","White_Screen.jpg","15","36","Keyhole.jpg","15"
"080819","11:24:38","4","4","5.0.14.0","2","191","trial1","naming","0","0","0","0","computer part","0","6006","1","White_Screen.jpg","7","16","Computer_ExpansionCard.jpg","7"
"080819","11:24:38","4","4","5.0.14.0","2","192","trial1","naming","0","0","0","0","tractor","0","5332","1","White_Screen.jpg","9","143","Steamroller.jpg","9"
"080819","11:24:38","4","4","5.0.14.0","2","193","trial1","naming","0","0","0","0","chaor","0","2867","1","White_Screen.jpg","7","61","Chair_MedicalToilet.jpg","7"
"080819","11:24:38","4","4","5.0.14.0","2","194","trial1","naming","0","0","0","0","bat","0","2971","1","White_Screen.jpg","9","87","Bat_Baseball.jpg","9"
"080819","11:24:38","4","4","5.0.14.0","2","195","trial1","naming","0","0","0","0","honey","0","4386","1","White_Screen.jpg","11","67","Jar_Honey.jpg","11"
"080819","11:24:38","4","4","5.0.14.0","2","196","trial1","naming","0","0","0","0","salt","0","3829","1","White_Screen.jpg","11","102","SaltShaker.jpg","11"
"080819","11:24:38","4","4","5.0.14.0","2","197","trial1","naming","0","0","0","0","pease","0","2809","1","White_Screen.jpg","10","164","Can_Peas.jpg","10"
"080819","11:24:38","4","4","5.0.14.0","2","198","trial1","naming","0","0","0","0","headset","0","4510","1","White_Screen.jpg","10","141","Headset.jpg","10"
"080819","11:24:38","4","4","5.0.14.0","2","199","trial1","naming","0","0","0","0","garlic","0","3637","1","White_Screen.jpg","8","10","Garlic_Clove.jpg","8"
"080819","11:24:38","4","4","5.0.14.0","2","200","trial1","naming","0","0","0","0","broom","0","4263","1","White_Screen.jpg","8","75","Broom_Long.jpg","8"
"080819","11:24:38","4","4","5.0.14.0","2","201","trial1","naming","0","0","0","0","statue","0","6029","1","White_Screen.jpg","9","20","Statue_Man.jpg","9"
"080819","11:24:38","4","4","5.0.14.0","2","202","trial1","naming","0","0","0","0","bottle","0","3007","1","White_Screen.jpg","9","109","Glass_bottle.jpg","9"
"080819","11:24:38","4","4","5.0.14.0","2","203","trial1","naming","0","0","0","0","chair","0","3104","1","White_Screen.jpg","9","66","Chair_Dining.jpg","9"
"080819","11:24:38","4","4","5.0.14.0","3","1","demographics_block","gender","0","0","0","0","Female","1","21707","0","0","0","0","0","0"
"080819","11:24:38","4","4","5.0.14.0","3","1","demographics_block","age","0","0","0","0","37","1","21707","0","0","0","0","0","0"
"080819","11:24:38","4","4","5.0.14.0","3","1","demographics_block","education","0","0","0","0","Bachelor Degree","1","21707","0","0","0","0","0","0"
"080819","11:24:38","4","4","5.0.14.0","3","2","demographics_block","left_right_handed","0","0","0","0","Right","1","6226","0","0","0","0","0","0"
"080819","11:24:38","4","4","5.0.14.0","3","2","demographics_block","raceoption1","0","0","0","0","0","1","6226","0","0","0","0","0","0"
"080819","11:24:38","4","4","5.0.14.0","3","2","demographics_block","raceoption2","0","0","0","0","","1","6226","0","0","0","0","0","0"
"080819","11:24:38","4","4","5.0.14.0","3","2","demographics_block","raceoption3","0","0","0","0","","1","6226","0","0","0","0","0","0"
"080819","11:24:38","4","4","5.0.14.0","3","2","demographics_block","raceoption4","0","0","0","0","","1","6226","0","0","0","0","0","0"
"080819","11:24:38","4","4","5.0.14.0","3","2","demographics_block","raceoption5","0","0","0","0","","1","6226","0","0","0","0","0","0"
"080819","11:24:38","4","4","5.0.14.0","3","2","demographics_block","raceoption6","0","0","0","0","","1","6226","0","0","0","0","0","0"
"080819","11:24:38","4","4","5.0.14.0","3","2","demographics_block","raceoption7","0","0","0","0","","1","6226","0","0","0","0","0","0"
"080819","11:24:38","4","4","5.0.14.0","3","2","demographics_block","raceoption8","0","0","0","0","","1","6226","0","0","0","0","0","0"
"080819","11:24:38","4","4","5.0.14.0","3","2","demographics_block","raceoption9","0","0","0","0","","1","6226","0","0","0","0","0","0"
"080819","11:24:38","4","4","5.0.14.0","3","2","demographics_block","raceother","0","0","0","0","","1","6226","0","0","0","0","0","0"
"080819","11:24:38","4","4","5.0.14.0","3","2","demographics_block","raceother","0","0","0","0","","1","6226","0","0","0","0","0","0"
"080819","11:24:38","4","4","5.0.14.0","3","2","demographics_block","english_language","0","0","0","0","Yes","1","6226","0","0","0","0","0","0"
"080819","11:24:38","4","4","5.0.14.0","3","2","demographics_block","english_languageother","0","0","0","0","","1","6226","0","0","0","0","0","0"
"080819","11:24:38","4","4","5.0.14.0","3","3","demographics_block","eyesight","0","0","0","0","Yes","1","6895","0","0","0","0","0","0"
"080819","11:24:38","4","4","5.0.14.0","3","3","demographics_block","colorblind","0","0","0","0","No","1","6895","0","0","0","0","0","0"
"080819","11:24:38","4","4","5.0.14.0","4","1","worker_id_block","worker_id_textbox","0","0","0","0","A2EI9E6EBZEZO1","1","6811","0","0","0","0","0","0"
"080819","11:46:26","6","6","5.0.14.0","2","1","trial1","naming","0","0","0","0","feet","0","9542","1","White_Screen.jpg","1500","194","Feet.jpg","1500"
"080819","11:46:26","6","6","5.0.14.0","2","2","trial1","naming","0","0","0","0","hospital bed","0","5270","1","White_Screen.jpg","12","122","Bed_Hospital.jpg","12"
"080819","11:46:26","6","6","5.0.14.0","2","3","trial1","naming","0","0","0","0","barrel","0","3053","1","White_Screen.jpg","13","1","Barrel_Upright.jpg","13"
"080819","11:46:26","6","6","5.0.14.0","2","4","trial1","naming","0","0","0","0","thermos","0","3528","1","White_Screen.jpg","20","82","Thermos_MetalSleek.jpg","20"
"080819","11:46:26","6","6","5.0.14.0","2","5","trial1","naming","0","0","0","0","statue","0","3297","1","White_Screen.jpg","15","150","Sculpture_MetalMan.jpg","15"
"080819","11:46:26","6","6","5.0.14.0","2","6","trial1","naming","0","0","0","0","headphones","0","3500","1","White_Screen.jpg","14","141","Headset.jpg","14"
"080819","11:46:26","6","6","5.0.14.0","2","7","trial1","naming","0","0","0","0","not sure","0","4574","1","White_Screen.jpg","15","126","CraneMachine.jpg","15"
"080819","11:46:26","6","6","5.0.14.0","2","8","trial1","naming","0","0","0","0","tower","0","3607","1","White_Screen.jpg","12","199","Steeple.jpg","12"
"080819","11:46:26","6","6","5.0.14.0","2","9","trial1","naming","0","0","0","0","rollerblade","0","4416","1","White_Screen.jpg","13","54","RollerBlade.jpg","13"
"080819","11:46:26","6","6","5.0.14.0","2","10","trial1","naming","0","0","0","0","rocks","0","2659","1","White_Screen.jpg","9","152","Stone_Spa.jpg","9"
"080819","11:46:26","6","6","5.0.14.0","2","11","trial1","naming","0","0","0","0","bicycle seat","0","5024","1","White_Screen.jpg","8","17","BicycleSeat.jpg","8"
"080819","11:46:26","6","6","5.0.14.0","2","12","trial1","naming","0","0","0","0","not sure","0","4246","1","White_Screen.jpg","20","140","CoolingFan_Engine2.jpg","20"
"080819","11:46:26","6","6","5.0.14.0","2","13","trial1","naming","0","0","0","0","ethernet cord","0","4262","1","White_Screen.jpg","12","69","Cord_Ethernet.jpg","12"
"080819","11:46:26","6","6","5.0.14.0","2","14","trial1","naming","0","0","0","0","boat","0","3068","1","White_Screen.jpg","12","159","Boat_Trailer.jpg","12"
"080819","11:46:26","6","6","5.0.14.0","2","15","trial1","naming","0","0","0","0","bar","0","3322","1","White_Screen.jpg","16","121","TowelRack_Metal.jpg","16"
"080819","11:46:26","6","6","5.0.14.0","2","16","trial1","naming","0","0","0","0","marionette","0","3490","1","White_Screen.jpg","12","79","MonkeyPuppet.jpg","12"
"080819","11:46:26","6","6","5.0.14.0","2","17","trial1","naming","0","0","0","0","construction equipment","0","6232","1","White_Screen.jpg","14","165","Backhoe.jpg","14"
"080819","11:46:26","6","6","5.0.14.0","2","18","trial1","naming","0","0","0","0","Enter Name","0","10000","1","White_Screen.jpg","16","31","Wardrobe.jpg","16"
"080819","11:46:26","6","6","5.0.14.0","2","19","trial1","naming","0","0","0","0","gas can","0","4229","1","White_Screen.jpg","11","73","Can_Gas.jpg","11"
"080819","11:46:26","6","6","5.0.14.0","2","20","trial1","naming","0","0","0","0","axe","0","2908","1","White_Screen.jpg","17","58","Axe.jpg","17"
"080819","11:46:26","6","6","5.0.14.0","2","21","trial1","naming","0","0","0","0","suit","0","3313","1","White_Screen.jpg","13","97","Suit_Women.jpg","13"
"080819","11:46:26","6","6","5.0.14.0","2","22","trial1","naming","0","0","0","0","changing table","0","3939","1","White_Screen.jpg","25","118","DiaperChangingStation.jpg","25"
"080819","11:46:26","6","6","5.0.14.0","2","23","trial1","naming","0","0","0","0","potpourri","0","3904","1","White_Screen.jpg","12","129","Pouch_PotPourri.jpg","12"
"080819","11:46:26","6","6","5.0.14.0","2","24","trial1","naming","0","0","0","0","Enter Name","0","1203","1","White_Screen.jpg","13","65","Glass_Bowl.jpg","13"
"080819","11:46:26","6","6","5.0.14.0","2","25","trial1","naming","0","0","0","0","meat grinder","0","5475","1","White_Screen.jpg","12","19","MeatGrinder.jpg","12"
"080819","11:46:26","6","6","5.0.14.0","2","26","trial1","naming","0","0","0","0","visor","0","2713","1","White_Screen.jpg","12","14","Hat_Visor.jpg","12"
"080819","11:46:26","6","6","5.0.14.0","2","27","trial1","naming","0","0","0","0","mannequin","0","3817","1","White_Screen.jpg","10","100","MannequinBust.jpg","10"
"080819","11:46:26","6","6","5.0.14.0","2","28","trial1","naming","0","0","0","0","steak","0","3821","1","White_Screen.jpg","14","191","MeatRaw.jpg","14"
"080819","11:46:26","6","6","5.0.14.0","2","29","trial1","naming","0","0","0","0","bullet","0","2693","1","White_Screen.jpg","10","139","Bullet.jpg","10"
"080819","11:46:26","6","6","5.0.14.0","2","30","trial1","naming","0","0","0","0","leaves","0","3348","1","White_Screen.jpg","17","53","Decoration_WallOrnament.jpg","17"
"080819","11:46:26","6","6","5.0.14.0","2","31","trial1","naming","0","0","0","0","chips","0","5055","1","White_Screen.jpg","10","89","PeasSplit.jpg","10"
"080819","11:46:26","6","6","5.0.14.0","2","32","trial1","naming","0","0","0","0","stairs","0","2500","1","White_Screen.jpg","9","197","Staircase_Straight.jpg","9"
"080819","11:46:26","6","6","5.0.14.0","2","33","trial1","naming","0","0","0","0","cow","0","2795","1","White_Screen.jpg","13","9","Cow.jpg","13"
"080819","11:46:26","6","6","5.0.14.0","2","34","trial1","naming","0","0","0","0","cutlery block","0","6657","1","White_Screen.jpg","11","163","KnifeHolder.jpg","11"
"080819","11:46:26","6","6","5.0.14.0","2","35","trial1","naming","0","0","0","0","wet floor sign","0","4513","1","White_Screen.jpg","14","77","Sign_Wetfloor.jpg","14"
"080819","11:46:26","6","6","5.0.14.0","2","36","trial1","naming","0","0","0","0","dont know","0","4325","1","White_Screen.jpg","13","175","PaintSprayer.jpg","13"
"080819","11:46:26","6","6","5.0.14.0","2","37","trial1","naming","0","0","0","0","celery","0","2817","1","White_Screen.jpg","12","154","Celery.jpg","12"
"080819","11:46:26","6","6","5.0.14.0","2","38","trial1","naming","0","0","0","0","leek","0","2928","1","White_Screen.jpg","14","142","Leek.jpg","14"
"080819","11:46:26","6","6","5.0.14.0","2","39","trial1","naming","0","0","0","0","snorkeling mask","0","6328","1","White_Screen.jpg","14","74","Snorkle.jpg","14"
"080819","11:46:26","6","6","5.0.14.0","2","40","trial1","naming","0","0","0","0","gym bag","0","2946","1","White_Screen.jpg","12","26","Bag_Gym.jpg","12"
"080819","11:46:26","6","6","5.0.14.0","2","41","trial1","naming","0","0","0","0","makeup","0","2904","1","White_Screen.jpg","14","71","Makeup_Eyeshadow.jpg","14"
"080819","11:46:26","6","6","5.0.14.0","2","42","trial1","naming","0","0","0","0","kiwi","0","2884","1","White_Screen.jpg","10","59","Kiwi.jpg","10"
"080819","11:46:26","6","6","5.0.14.0","2","43","trial1","naming","0","0","0","0","brain hemisphere","0","5609","1","White_Screen.jpg","10","153","BrainSagittal.jpg","10"
"080819","11:46:26","6","6","5.0.14.0","2","44","trial1","naming","0","0","0","0","pickle","0","3912","1","White_Screen.jpg","11","104","Pickle.jpg","11"
"080819","11:46:26","6","6","5.0.14.0","2","45","trial1","naming","0","0","0","0","desk/chair combo","0","5252","1","White_Screen.jpg","13","40","Chair_Student.jpg","13"
"080819","11:46:26","6","6","5.0.14.0","2","46","trial1","naming","0","0","0","0","can of peas","0","3814","1","White_Screen.jpg","10","164","Can_Peas.jpg","10"
"080819","11:46:26","6","6","5.0.14.0","2","47","trial1","naming","0","0","0","0","gas can","0","4163","1","White_Screen.jpg","13","11","Can_GasSpout.jpg","13"
"080819","11:46:26","6","6","5.0.14.0","2","48","trial1","naming","0","0","0","0","steam roller","0","3009","1","White_Screen.jpg","10","143","Steamroller.jpg","10"
"080819","11:46:26","6","6","5.0.14.0","2","49","trial1","naming","0","0","0","0","guinea pig","0","3665","1","White_Screen.jpg","13","76","GuineaPig.jpg","13"
"080819","11:46:26","6","6","5.0.14.0","2","50","trial1","naming","0","0","0","0","ice skates","0","5527","1","White_Screen.jpg","20","52","Skates.jpg","20"
"080819","11:46:26","6","6","5.0.14.0","2","52","trial1","naming","0","0","0","0","harp","0","2533","1","White_Screen.jpg","11","47","Harp.jpg","11"
"080819","11:46:26","6","6","5.0.14.0","2","53","trial1","naming","0","0","0","0","shield","0","3278","1","White_Screen.jpg","22","49","Shield_Antique.jpg","22"
"080819","11:46:26","6","6","5.0.14.0","2","54","trial1","naming","0","0","0","0","dont know what to call ti","0","8145","1","White_Screen.jpg","12","144","Telephone_TinCan.jpg","12"
"080819","11:46:26","6","6","5.0.14.0","2","55","trial1","naming","0","0","0","0","snowglobe","0","3206","1","White_Screen.jpg","16","64","SnowGlobe.jpg","16"
"080819","11:46:26","6","6","5.0.14.0","2","56","trial1","naming","0","0","0","0","briefcase","0","3584","1","White_Screen.jpg","10","115","Suitcase.jpg","10"
"080819","11:46:26","6","6","5.0.14.0","2","57","trial1","naming","0","0","0","0","christmas tree","0","3832","1","White_Screen.jpg","14","7","Tree_Fir.jpg","14"
"080819","11:46:26","6","6","5.0.14.0","2","58","trial1","naming","0","0","0","0","noodle","0","3808","1","White_Screen.jpg","15","110","Pasta_Fusilli.jpg","15"
"080819","11:46:26","6","6","5.0.14.0","2","59","trial1","naming","0","0","0","0","TNT","0","2589","1","White_Screen.jpg","11","38","Dynamite.jpg","11"
"080819","11:46:26","6","6","5.0.14.0","2","60","trial1","naming","0","0","0","0","cricket bat and ball","0","4946","1","White_Screen.jpg","12","166","Bat_Cricket.jpg","12"
"080819","11:46:26","6","6","5.0.14.0","2","61","trial1","naming","0","0","0","0","not sure","0","3600","1","White_Screen.jpg","14","33","Lens_ColourFilter.jpg","14"
"080819","11:46:26","6","6","5.0.14.0","2","62","trial1","naming","0","0","0","0","garlic","0","2510","1","White_Screen.jpg","14","10","Garlic_Clove.jpg","14"
"080819","11:46:26","6","6","5.0.14.0","2","63","trial1","naming","0","0","0","0","stroller","0","2780","1","White_Screen.jpg","12","25","Stroller.jpg","12"
"080819","11:46:26","6","6","5.0.14.0","2","64","trial1","naming","0","0","0","0","seahorse","0","3137","1","White_Screen.jpg","14","55","Seahorse.jpg","14"
"080819","11:46:26","6","6","5.0.14.0","2","65","trial1","naming","0","0","0","0","speed limit sign","0","3686","1","White_Screen.jpg","15","151","Sign_SpeedLimit30.jpg","15"
"080819","11:46:26","6","6","5.0.14.0","2","66","trial1","naming","0","0","0","0","hot dog in bun","0","3693","1","White_Screen.jpg","20","114","Hotdog_WithBun.jpg","20"
"080819","11:46:26","6","6","5.0.14.0","2","67","trial1","naming","0","0","0","0","iceberg lettuce","0","4591","1","White_Screen.jpg","15","94","Lettuce_Iceberg.jpg","15"
"080819","11:46:26","6","6","5.0.14.0","2","68","trial1","naming","0","0","0","0","fuzzy die","0","4573","1","White_Screen.jpg","17","147","FuzzyDice.jpg","17"
"080819","11:46:26","6","6","5.0.14.0","2","69","trial1","naming","0","0","0","0","colored pencil","0","4248","1","White_Screen.jpg","13","5","Pencil.jpg","13"
"080819","11:46:26","6","6","5.0.14.0","2","70","trial1","naming","0","0","0","0","not sure","0","3138","1","White_Screen.jpg","13","130","Decoration_Chinese.jpg","13"
"080819","11:46:26","6","6","5.0.14.0","2","71","trial1","naming","0","0","0","0","snuffer","0","2974","1","White_Screen.jpg","13","116","CandleSnuffer.jpg","13"
"080819","11:46:26","6","6","5.0.14.0","2","72","trial1","naming","0","0","0","0","iv bag","0","4023","1","White_Screen.jpg","13","60","Bag_Saline.jpg","13"
"080819","11:46:26","6","6","5.0.14.0","2","73","trial1","naming","0","0","0","0","stove","0","2888","1","White_Screen.jpg","17","92","Stove_WithOven.jpg","17"
"080819","11:46:26","6","6","5.0.14.0","2","74","trial1","naming","0","0","0","0","toilet brush","0","6541","1","White_Screen.jpg","10","15","Brush_Toilet.jpg","10"
"080819","11:46:26","6","6","5.0.14.0","2","75","trial1","naming","0","0","0","0","liquid in a glass","0","5148","1","White_Screen.jpg","13","176","VialLab.jpg","13"
"080819","11:46:26","6","6","5.0.14.0","2","76","trial1","naming","0","0","0","0","onion rings","0","4899","1","White_Screen.jpg","13","161","OnionRings.jpg","13"
"080819","11:46:26","6","6","5.0.14.0","2","77","trial1","naming","0","0","0","0","tweezers","0","2833","1","White_Screen.jpg","17","132","Tweezers.jpg","17"
"080819","11:46:26","6","6","5.0.14.0","2","78","trial1","naming","0","0","0","0","tickets","0","4412","1","White_Screen.jpg","10","172","Tickets_Blank.jpg","10"
"080819","11:46:26","6","6","5.0.14.0","2","79","trial1","naming","0","0","0","0","spinning wheel","0","5294","1","White_Screen.jpg","11","128","SpinningWheel.jpg","11"
"080819","11:46:26","6","6","5.0.14.0","2","80","trial1","naming","0","0","0","0","honey","0","3502","1","White_Screen.jpg","24","67","Jar_Honey.jpg","24"
"080819","11:46:26","6","6","5.0.14.0","2","81","trial1","naming","0","0","0","0","boat","0","4009","1","White_Screen.jpg","13","158","Boat_Dinghy.jpg","13"
"080819","11:46:26","6","6","5.0.14.0","2","82","trial1","naming","0","0","0","0","spray bottle","0","3951","1","White_Screen.jpg","23","174","Bottle_Spray.jpg","23"
"080819","11:46:26","6","6","5.0.14.0","2","83","trial1","naming","0","0","0","0","generator","0","3117","1","White_Screen.jpg","17","107","AirCompressor.jpg","17"
"080819","11:46:26","6","6","5.0.14.0","2","84","trial1","naming","0","0","0","0","watercolor paints","0","4625","1","White_Screen.jpg","11","190","WaterColorPaintset.jpg","11"
"080819","11:46:26","6","6","5.0.14.0","2","85","trial1","naming","0","0","0","0","jersey","0","2982","1","White_Screen.jpg","17","12","Shirt_SportsJersey.jpg","17"
"080819","11:46:26","6","6","5.0.14.0","2","86","trial1","naming","0","0","0","0","clamp","0","3727","1","White_Screen.jpg","14","90","Clamp.jpg","14"
"080819","11:46:26","6","6","5.0.14.0","2","87","trial1","naming","0","0","0","0","4 leaf clover","0","3799","1","White_Screen.jpg","13","70","Leaf_Clover.jpg","13"
"080819","11:46:26","6","6","5.0.14.0","2","88","trial1","naming","0","0","0","0","magnifying glass","0","4898","1","White_Screen.jpg","9","196","Magnifying_Glass.jpg","9"
"080819","11:46:26","6","6","5.0.14.0","2","89","trial1","naming","0","0","0","0","garden hose sprayer","0","5245","1","White_Screen.jpg","18","105","HoseNozzle.jpg","18"
"080819","11:46:26","6","6","5.0.14.0","2","90","trial1","naming","0","0","0","0","eye scope","0","3960","1","White_Screen.jpg","14","195","Otoscope.jpg","14"
"080819","11:46:26","6","6","5.0.14.0","2","91","trial1","naming","0","0","0","0","english muffin","0","3580","1","White_Screen.jpg","13","34","EnglishMuffin.jpg","13"
"080819","11:46:26","6","6","5.0.14.0","2","92","trial1","naming","0","0","0","0","canadian goose","0","4115","1","White_Screen.jpg","11","137","Goose_Canadian.jpg","11"
"080819","11:46:26","6","6","5.0.14.0","2","93","trial1","naming","0","0","0","0","egg","0","2977","1","White_Screen.jpg","11","37","Egg_Cup.jpg","11"
"080819","11:46:26","6","6","5.0.14.0","2","94","trial1","naming","0","0","0","0","canoe","0","4188","1","White_Screen.jpg","18","44","Boat_Row.jpg","18"
"080819","11:46:26","6","6","5.0.14.0","2","95","trial1","naming","0","0","0","0","running sneakers","0","3850","1","White_Screen.jpg","15","108","Shoes_Sneakers.jpg","15"
"080819","11:46:26","6","6","5.0.14.0","2","96","trial1","naming","0","0","0","0","ramekin","0","4292","1","White_Screen.jpg","11","145","Ramekin.jpg","11"
"080819","11:46:26","6","6","5.0.14.0","2","97","trial1","naming","0","0","0","0","blowy party thing","0","5250","1","White_Screen.jpg","10","149","Noisemaker.jpg","10"
"080819","11:46:26","6","6","5.0.14.0","2","98","trial1","naming","0","0","0","0","rocking horse","0","3304","1","White_Screen.jpg","12","131","Toy_RockingHorseBeige.jpg","12"
"080819","11:46:26","6","6","5.0.14.0","2","99","trial1","naming","0","0","0","0","paint roller","0","3312","1","White_Screen.jpg","13","39","PaintRoller.jpg","13"
"080819","11:46:26","6","6","5.0.14.0","2","100","trial1","naming","0","0","0","0","hand soap","0","3729","1","White_Screen.jpg","13","186","SoapBottle.jpg","13"
"080819","11:46:26","6","6","5.0.14.0","2","101","trial1","naming","0","0","0","0","holds weight","0","5194","1","White_Screen.jpg","15","146","Exercise_HandTrainer.jpg","15"
"080819","11:46:26","6","6","5.0.14.0","2","103","trial1","naming","0","0","0","0","igloo","0","2685","1","White_Screen.jpg","10","184","Igloo.jpg","10"
"080819","11:46:26","6","6","5.0.14.0","2","104","trial1","naming","0","0","0","0","glass bottle","0","3666","1","White_Screen.jpg","9","109","Glass_bottle.jpg","9"
"080819","11:46:26","6","6","5.0.14.0","2","105","trial1","naming","0","0","0","0","vest","0","2832","1","White_Screen.jpg","15","111","Vest.jpg","15"
"080819","11:46:26","6","6","5.0.14.0","2","106","trial1","naming","0","0","0","0","water spout","0","5172","1","White_Screen.jpg","14","4","Pipe_Drain.jpg","14"
"080819","11:46:26","6","6","5.0.14.0","2","107","trial1","naming","0","0","0","0","witch","0","3448","1","White_Screen.jpg","21","160","Toy_Witch.jpg","21"
"080819","11:46:26","6","6","5.0.14.0","2","108","trial1","naming","0","0","0","0","paint brush","0","4110","1","White_Screen.jpg","14","138","Brush_Paint.jpg","14"
"080819","11:46:26","6","6","5.0.14.0","2","109","trial1","naming","0","0","0","0","ghost","0","2575","1","White_Screen.jpg","14","136","Ghost.jpg","14"
"080819","11:46:26","6","6","5.0.14.0","2","110","trial1","naming","0","0","0","0","cat","0","2424","1","White_Screen.jpg","13","18","Statue_Cat.jpg","13"
"080819","11:46:26","6","6","5.0.14.0","2","111","trial1","naming","0","0","0","0","butter churner","0","4378","1","White_Screen.jpg","14","99","ButterChurn.jpg","14"
"080819","11:46:26","6","6","5.0.14.0","2","112","trial1","naming","0","0","0","0","level","0","2871","1","White_Screen.jpg","12","167","Level.jpg","12"
"080819","11:46:26","6","6","5.0.14.0","2","113","trial1","naming","0","0","0","0","notebook","0","3286","1","White_Screen.jpg","10","106","Notebook.jpg","10"
"080819","11:46:26","6","6","5.0.14.0","2","114","trial1","naming","0","0","0","0","statue","0","2739","1","White_Screen.jpg","14","20","Statue_Man.jpg","14"
"080819","11:46:26","6","6","5.0.14.0","2","115","trial1","naming","0","0","0","0","ice cream scoop","0","4379","1","White_Screen.jpg","14","32","Spoon_Baby.jpg","14"
"080819","11:46:26","6","6","5.0.14.0","2","116","trial1","naming","0","0","0","0","lipstick","0","3383","1","White_Screen.jpg","13","41","Lipstick.jpg","13"
"080819","11:46:26","6","6","5.0.14.0","2","117","trial1","naming","0","0","0","0","propeller","0","4234","1","White_Screen.jpg","11","6","PropellerFan.jpg","11"
"080819","11:46:26","6","6","5.0.14.0","2","118","trial1","naming","0","0","0","0","can","0","3035","1","White_Screen.jpg","13","51","Can_Oblong.jpg","13"
"080819","11:46:26","6","6","5.0.14.0","2","119","trial1","naming","0","0","0","0","mirror","0","4706","1","White_Screen.jpg","12","2","Frame_Oval.jpg","12"
"080819","11:46:26","6","6","5.0.14.0","2","120","trial1","naming","0","0","0","0","watch","0","2391","1","White_Screen.jpg","12","127","Watch.jpg","12"
"080819","11:46:26","6","6","5.0.14.0","2","121","trial1","naming","0","0","0","0","man","0","3523","1","White_Screen.jpg","14","112","Man.jpg","14"
"080819","11:46:26","6","6","5.0.14.0","2","122","trial1","naming","0","0","0","0","dont know","0","3523","1","White_Screen.jpg","13","13","CashRegister_Antique.jpg","13"
"080819","11:46:26","6","6","5.0.14.0","2","123","trial1","naming","0","0","0","0","dil","0","3002","1","White_Screen.jpg","13","183","Dill.jpg","13"
"080819","11:46:26","6","6","5.0.14.0","2","124","trial1","naming","0","0","0","0","eggs","0","3514","1","White_Screen.jpg","10","30","CartonEggs.jpg","10"
"080819","11:46:26","6","6","5.0.14.0","2","125","trial1","naming","0","0","0","0","mouthguard","0","4527","1","White_Screen.jpg","13","178","MouthGuard.jpg","13"
"080819","11:46:26","6","6","5.0.14.0","2","126","trial1","naming","0","0","0","0","tv","0","2566","1","White_Screen.jpg","12","157","Television.jpg","12"
"080819","11:46:26","6","6","5.0.14.0","2","127","trial1","naming","0","0","0","0","tire","0","2036","1","White_Screen.jpg","18","48","Tire_Hollow.jpg","18"
"080819","11:46:26","6","6","5.0.14.0","2","128","trial1","naming","0","0","0","0","eraser","0","2999","1","White_Screen.jpg","14","192","Eraser.jpg","14"
"080819","11:46:26","6","6","5.0.14.0","2","129","trial1","naming","0","0","0","0","ice scoop","0","3547","1","White_Screen.jpg","13","155","Scoop_Flour.jpg","13"
"080819","11:46:26","6","6","5.0.14.0","2","130","trial1","naming","0","0","0","0","legos","0","2770","1","White_Screen.jpg","11","88","Toys_Lego.jpg","11"
"080819","11:46:26","6","6","5.0.14.0","2","131","trial1","naming","0","0","0","0","speed limit sign","0","4220","1","White_Screen.jpg","13","124","Sign_SpeedLimit25.jpg","13"
"080819","11:46:26","6","6","5.0.14.0","2","132","trial1","naming","0","0","0","0","broom","0","3199","1","White_Screen.jpg","10","75","Broom_Long.jpg","10"
"080819","11:46:26","6","6","5.0.14.0","2","133","trial1","naming","0","0","0","0","gas can","0","3145","1","White_Screen.jpg","16","56","Canister_Oil.jpg","16"
"080819","11:46:26","6","6","5.0.14.0","2","134","trial1","naming","0","0","0","0","popcorn","0","3673","1","White_Screen.jpg","16","45","Corn_Kernels.jpg","16"
"080819","11:46:26","6","6","5.0.14.0","2","135","trial1","naming","0","0","0","0","measuring spoons","0","4944","1","White_Screen.jpg","13","23","Spoons_MeasuringDetached.jpg","13"
"080819","11:46:26","6","6","5.0.14.0","2","136","trial1","naming","0","0","0","0","life saver","0","6118","1","White_Screen.jpg","18","50","TubeRing.jpg","18"
"080819","11:46:26","6","6","5.0.14.0","2","137","trial1","naming","0","0","0","0","sand castle","0","3403","1","White_Screen.jpg","11","103","Sandcastle.jpg","11"
"080819","11:46:26","6","6","5.0.14.0","2","138","trial1","naming","0","0","0","0","chicken wing","0","3343","1","White_Screen.jpg","9","193","Chicken_FriedWing.jpg","9"
"080819","11:46:26","6","6","5.0.14.0","2","139","trial1","naming","0","0","0","0","stop light","0","3544","1","White_Screen.jpg","17","180","Light_Traffic.jpg","17"
"080819","11:46:26","6","6","5.0.14.0","2","140","trial1","naming","0","0","0","0","cornucopia","0","5208","1","White_Screen.jpg","15","177","Horn_Hunting.jpg","15"
"080819","11:46:26","6","6","5.0.14.0","2","141","trial1","naming","0","0","0","0","lock","0","2768","1","White_Screen.jpg","15","36","Keyhole.jpg","15"
"080819","11:46:26","6","6","5.0.14.0","2","142","trial1","naming","0","0","0","0","spinning wheel","0","4745","1","White_Screen.jpg","14","189","Distaff.jpg","14"
"080819","11:46:26","6","6","5.0.14.0","2","143","trial1","naming","0","0","0","0","daisy","0","2559","1","White_Screen.jpg","13","185","Flower_Daisy.jpg","13"
"080819","11:46:26","6","6","5.0.14.0","2","144","trial1","naming","0","0","0","0","glass mug","0","4183","1","White_Screen.jpg","11","156","Mug_Beer.jpg","11"
"080819","11:46:26","6","6","5.0.14.0","2","145","trial1","naming","0","0","0","0","airport sign","0","3803","1","White_Screen.jpg","15","169","Sign_Airport.jpg","15"
"080819","11:46:26","6","6","5.0.14.0","2","146","trial1","naming","0","0","0","0","bat","0","2336","1","White_Screen.jpg","12","87","Bat_Baseball.jpg","12"
"080819","11:46:26","6","6","5.0.14.0","2","147","trial1","naming","0","0","0","0","dont know","0","3954","1","White_Screen.jpg","15","24","Hook_Ceiling.jpg","15"
"080819","11:46:26","6","6","5.0.14.0","2","148","trial1","naming","0","0","0","0","high heeled shoe","0","4685","1","White_Screen.jpg","14","123","Shoe_Pink.jpg","14"
"080819","11:46:26","6","6","5.0.14.0","2","149","trial1","naming","0","0","0","0","assistive device","0","4736","1","White_Screen.jpg","12","61","Chair_MedicalToilet.jpg","12"
"080819","11:46:26","6","6","5.0.14.0","2","150","trial1","naming","0","0","0","0","traingle","0","2851","1","White_Screen.jpg","11","8","Ruler_Triangle.jpg","11"
"080819","11:46:26","6","6","5.0.14.0","2","151","trial1","naming","0","0","0","0","scorpion","0","2800","1","White_Screen.jpg","9","46","Scorpion.jpg","9"
"080819","11:46:26","6","6","5.0.14.0","2","152","trial1","naming","0","0","0","0","dentist light","0","5715","1","White_Screen.jpg","29","170","DentistOverheadLight.jpg","29"
"080819","11:46:26","6","6","5.0.14.0","2","154","trial1","naming","0","0","0","0","dryer","0","3466","1","White_Screen.jpg","9","168","DryingMachine.jpg","9"
"080819","11:46:26","6","6","5.0.14.0","2","155","trial1","naming","0","0","0","0","grapes","0","2809","1","White_Screen.jpg","10","95","Grape.jpg","10"
"080819","11:46:26","6","6","5.0.14.0","2","156","trial1","naming","0","0","0","0","drum","0","2705","1","White_Screen.jpg","13","148","Drum_Ramadan.jpg","13"
"080819","11:46:26","6","6","5.0.14.0","2","157","trial1","naming","0","0","0","0","tube","0","2817","1","White_Screen.jpg","12","81","Tube.jpg","12"
"080819","11:46:26","6","6","5.0.14.0","2","158","trial1","naming","0","0","0","0","plates","0","3165","1","White_Screen.jpg","12","72","Plate_Decorative.jpg","12"
"080819","11:46:26","6","6","5.0.14.0","2","159","trial1","naming","0","0","0","0","packing tape","0","4167","1","White_Screen.jpg","11","68","Tape_Dispenser.jpg","11"
"080819","11:46:26","6","6","5.0.14.0","2","160","trial1","naming","0","0","0","0","tea kettle","0","3319","1","White_Screen.jpg","13","119","Kettle.jpg","13"
"080819","11:46:26","6","6","5.0.14.0","2","161","trial1","naming","0","0","0","0","martini glass","0","3750","1","White_Screen.jpg","15","28","Glass_Martini.jpg","15"
"080819","11:46:26","6","6","5.0.14.0","2","162","trial1","naming","0","0","0","0","topiary","0","3110","1","White_Screen.jpg","11","96","Shrub_Boxwood.jpg","11"
"080819","11:46:26","6","6","5.0.14.0","2","163","trial1","naming","0","0","0","0","paraglider","0","4130","1","White_Screen.jpg","13","134","Paratrooper.jpg","13"
"080819","11:46:26","6","6","5.0.14.0","2","164","trial1","naming","0","0","0","0","construction paper","0","6398","1","White_Screen.jpg","11","98","OrigamiPaper.jpg","11"
"080819","11:46:26","6","6","5.0.14.0","2","165","trial1","naming","0","0","0","0","hot dog","0","3182","1","White_Screen.jpg","17","63","Hotdog_Weiner.jpg","17"
"080819","11:46:26","6","6","5.0.14.0","2","166","trial1","naming","0","0","0","0","school bus","0","3145","1","White_Screen.jpg","12","113","Bus_School.jpg","12"
"080819","11:46:26","6","6","5.0.14.0","2","167","trial1","naming","0","0","0","0","high heeled shoes","0","6928","1","White_Screen.jpg","13","117","Shoes_Pumps.jpg","13"
"080819","11:46:26","6","6","5.0.14.0","2","168","trial1","naming","0","0","0","0","fishing hook","0","4458","1","White_Screen.jpg","12","22","Hook_Fishing.jpg","12"
"080819","11:46:26","6","6","5.0.14.0","2","169","trial1","naming","0","0","0","0","circuit board","0","3358","1","White_Screen.jpg","14","16","Computer_ExpansionCard.jpg","14"
"080819","11:46:26","6","6","5.0.14.0","2","170","trial1","naming","0","0","0","0","playdoh","0","3318","1","White_Screen.jpg","12","86","Playdoh.jpg","12"
"080819","11:46:26","6","6","5.0.14.0","2","171","trial1","naming","0","0","0","0","razor","0","2724","1","White_Screen.jpg","13","84","Razor.jpg","13"
"080819","11:46:26","6","6","5.0.14.0","2","172","trial1","naming","0","0","0","0","hookah","0","4229","1","White_Screen.jpg","14","120","Hookah.jpg","14"
"080819","11:46:26","6","6","5.0.14.0","2","173","trial1","naming","0","0","0","0","fruit cup","0","3545","1","White_Screen.jpg","12","125","Cup_Fruits.jpg","12"
"080819","11:46:26","6","6","5.0.14.0","2","174","trial1","naming","0","0","0","0","stamps","0","2892","1","White_Screen.jpg","10","85","PostageStamps.jpg","10"
"080819","11:46:26","6","6","5.0.14.0","2","175","trial1","naming","0","0","0","0","trowel","0","4179","1","White_Screen.jpg","20","162","Trowel.jpg","20"
"080819","11:46:26","6","6","5.0.14.0","2","176","trial1","naming","0","0","0","0","dont know","0","3770","1","White_Screen.jpg","15","3","BicycleHandleGrip.jpg","15"
"080819","11:46:26","6","6","5.0.14.0","2","177","trial1","naming","0","0","0","0","umbrella","0","3425","1","White_Screen.jpg","15","93","Umbrella_Classic.jpg","15"
"080819","11:46:26","6","6","5.0.14.0","2","178","trial1","naming","0","0","0","0","cookie jar","0","4241","1","White_Screen.jpg","10","198","Jar_Cookie.jpg","10"
"080819","11:46:26","6","6","5.0.14.0","2","179","trial1","naming","0","0","0","0","dont know","0","3854","1","White_Screen.jpg","13","91","RickShaw.jpg","13"
"080819","11:46:26","6","6","5.0.14.0","2","180","trial1","naming","0","0","0","0","bird cage","0","3952","1","White_Screen.jpg","21","35","Cage_Bird.jpg","21"
"080819","11:46:26","6","6","5.0.14.0","2","181","trial1","naming","0","0","0","0","peach","0","3676","1","White_Screen.jpg","18","29","Peach.jpg","18"
"080819","11:46:26","6","6","5.0.14.0","2","182","trial1","naming","0","0","0","0","skirt","0","2951","1","White_Screen.jpg","22","182","Skirt_Long.jpg","22"
"080819","11:46:26","6","6","5.0.14.0","2","183","trial1","naming","0","0","0","0","tape recorder","0","4640","1","White_Screen.jpg","12","83","RecorderCassette.jpg","12"
