date,time,group,subject,build,blocknum,trialnum,blockcode,trialcode,pretrialpause,posttrialpause,trialduration,trialtimeout,response,correct,latency,stimulusnumber1,stimulusitem1,stimulusonset1,stimulusnumber2,stimulusitem2,stimulusonset2
22420,14:06:06,34,34,5.0.14.0,2,1,trial1,naming,0,0,0,0,san castle,0,6607,1,White_Screen.jpg,41,103,Sandcastle.jpg,41
22420,14:06:06,34,34,5.0.14.0,2,2,trial1,naming,0,0,0,0,water bottle,0,7203,1,White_Screen.jpg,7,200,Bottle_Blue.jpg,7
22420,14:06:06,34,34,5.0.14.0,2,3,trial1,naming,0,0,0,0,geadphone,0,3660,1,White_Screen.jpg,7,141,Headset.jpg,7
22420,14:06:06,34,34,5.0.14.0,2,4,trial1,naming,0,0,0,0,stove,0,4347,1,White_Screen.jpg,5,92,Stove_WithOven.jpg,5
22420,14:06:06,34,34,5.0.14.0,2,5,trial1,naming,0,0,0,0,crane,0,3630,1,White_Screen.jpg,5,126,CraneMachine.jpg,5
22420,14:06:06,34,34,5.0.14.0,2,6,trial1,naming,0,0,0,0,brace,0,5918,1,White_Screen.jpg,3,57,Brace_Neck.jpg,3
22420,14:06:06,34,34,5.0.14.0,2,7,trial1,naming,0,0,0,0,shield,0,4680,1,White_Screen.jpg,9,49,Shield_Antique.jpg,9
22420,14:06:06,34,34,5.0.14.0,2,8,trial1,naming,0,0,0,0,glass,0,3241,1,White_Screen.jpg,8,156,Mug_Beer.jpg,8
22420,14:06:06,34,34,5.0.14.0,2,9,trial1,naming,0,0,0,0,vine,0,4442,1,White_Screen.jpg,7,53,Decoration_WallOrnament.jpg,7
22420,14:06:06,34,34,5.0.14.0,2,10,trial1,naming,0,0,0,0,water spigot,0,9702,1,White_Screen.jpg,7,175,PaintSprayer.jpg,7
22420,14:06:06,34,34,5.0.14.0,2,11,trial1,naming,0,0,0,0,steak,0,2779,1,White_Screen.jpg,7,191,MeatRaw.jpg,7
22420,14:06:06,34,34,5.0.14.0,2,12,trial1,naming,0,0,0,0,gas can,0,2930,1,White_Screen.jpg,2,11,Can_GasSpout.jpg,2
22420,14:06:06,34,34,5.0.14.0,2,13,trial1,naming,0,0,0,0,flower,0,2706,1,White_Screen.jpg,5,185,Flower_Daisy.jpg,5
22420,14:06:06,34,34,5.0.14.0,2,14,trial1,naming,0,0,0,0,boat,0,3562,1,White_Screen.jpg,6,158,Boat_Dinghy.jpg,6
22420,14:06:06,34,34,5.0.14.0,2,15,trial1,naming,0,0,0,0,lettuce,0,3614,1,White_Screen.jpg,6,94,Lettuce_Iceberg.jpg,6
22420,14:06:06,34,34,5.0.14.0,2,16,trial1,naming,0,0,0,0,syrup,0,5015,1,White_Screen.jpg,3,27,Syrup_Maple.jpg,3
22420,14:06:06,34,34,5.0.14.0,2,17,trial1,naming,0,0,0,0,engine,0,5749,1,White_Screen.jpg,4,107,AirCompressor.jpg,4
22420,14:06:06,34,34,5.0.14.0,2,18,trial1,naming,0,0,0,0,rocking chair,0,4087,1,White_Screen.jpg,2,173,Chair_Rocking.jpg,2
22420,14:06:06,34,34,5.0.14.0,2,19,trial1,naming,0,0,0,0,parachute,0,6241,1,White_Screen.jpg,7,134,Paratrooper.jpg,7
22420,14:06:06,34,34,5.0.14.0,2,20,trial1,naming,0,0,0,0,straw,0,3852,1,White_Screen.jpg,5,81,Tube.jpg,5
22420,14:06:06,34,34,5.0.14.0,2,21,trial1,naming,0,0,0,0,scoop,0,3742,1,White_Screen.jpg,8,155,Scoop_Flour.jpg,8
22420,14:06:06,34,34,5.0.14.0,2,22,trial1,naming,0,0,0,0,t shirt,0,3802,1,White_Screen.jpg,4,12,Shirt_SportsJersey.jpg,4
22420,14:06:06,34,34,5.0.14.0,2,23,trial1,naming,0,0,0,0,fruit cup,0,4628,1,White_Screen.jpg,8,125,Cup_Fruits.jpg,8
22420,14:06:06,34,34,5.0.14.0,2,24,trial1,naming,0,0,0,0,rickshaw,0,4869,1,White_Screen.jpg,3,91,RickShaw.jpg,3
22420,14:06:06,34,34,5.0.14.0,2,25,trial1,naming,0,0,0,0,play doh,0,5985,1,White_Screen.jpg,9,86,Playdoh.jpg,9
22420,14:06:06,34,34,5.0.14.0,2,26,trial1,naming,0,0,0,0,towel rack,0,6274,1,White_Screen.jpg,7,121,TowelRack_Metal.jpg,7
22420,14:06:06,34,34,5.0.14.0,2,27,trial1,naming,0,0,0,0,bowl,0,3102,1,White_Screen.jpg,7,65,Glass_Bowl.jpg,7
22420,14:06:06,34,34,5.0.14.0,2,28,trial1,naming,0,0,0,0,ticket,0,3210,1,White_Screen.jpg,8,172,Tickets_Blank.jpg,8
22420,14:06:06,34,34,5.0.14.0,2,29,trial1,naming,0,0,0,0,grapes,0,2512,1,White_Screen.jpg,4,95,Grape.jpg,4
22420,14:06:06,34,34,5.0.14.0,2,30,trial1,naming,0,0,0,0,hospital bed,0,4881,1,White_Screen.jpg,4,122,Bed_Hospital.jpg,4
22420,14:06:06,34,34,5.0.14.0,2,31,trial1,naming,0,0,0,0,mouth guard,0,6981,1,White_Screen.jpg,3,178,MouthGuard.jpg,3
22420,14:06:06,34,34,5.0.14.0,2,32,trial1,naming,0,0,0,0,honey,0,2901,1,White_Screen.jpg,3,67,Jar_Honey.jpg,3
22420,14:06:06,34,34,5.0.14.0,2,33,trial1,naming,0,0,0,0,plate,0,3186,1,White_Screen.jpg,5,179,Plate_Wooden.jpg,5
22420,14:06:06,34,34,5.0.14.0,2,34,trial1,naming,0,0,0,0,vest,0,2700,1,White_Screen.jpg,7,111,Vest.jpg,7
22420,14:06:06,34,34,5.0.14.0,2,35,trial1,naming,0,0,0,0,tv,0,3486,1,White_Screen.jpg,11,157,Television.jpg,11
22420,14:06:06,34,34,5.0.14.0,2,36,trial1,naming,0,0,0,0,razor,0,2548,1,White_Screen.jpg,8,84,Razor.jpg,8
22420,14:06:06,34,34,5.0.14.0,2,37,trial1,naming,0,0,0,0,meat grinder,0,7580,1,White_Screen.jpg,8,19,MeatGrinder.jpg,8
22420,14:06:06,34,34,5.0.14.0,2,38,trial1,naming,0,0,0,0,speed sign,0,5580,1,White_Screen.jpg,5,124,Sign_SpeedLimit25.jpg,5
22420,14:06:06,34,34,5.0.14.0,2,39,trial1,naming,0,0,0,0,grain,0,5438,1,White_Screen.jpg,4,89,PeasSplit.jpg,4
22420,14:06:06,34,34,5.0.14.0,2,40,trial1,naming,0,0,0,0,ruler,0,2652,1,White_Screen.jpg,9,8,Ruler_Triangle.jpg,9
22420,14:06:06,34,34,5.0.14.0,2,41,trial1,naming,0,0,0,0,umbrella,0,2810,1,White_Screen.jpg,8,93,Umbrella_Classic.jpg,8
22420,14:06:06,34,34,5.0.14.0,2,42,trial1,naming,0,0,0,0,ear light,0,5270,1,White_Screen.jpg,3,195,Otoscope.jpg,3
22420,14:06:06,34,34,5.0.14.0,2,43,trial1,naming,0,0,0,0,bottle,0,4057,1,White_Screen.jpg,9,109,Glass_bottle.jpg,9
22420,14:06:06,34,34,5.0.14.0,2,44,trial1,naming,0,0,0,0,floor wet sign,0,9952,1,White_Screen.jpg,5,77,Sign_Wetfloor.jpg,5
22420,14:06:06,34,34,5.0.14.0,2,45,trial1,naming,0,0,0,0,paint roller,0,3423,1,White_Screen.jpg,6,39,PaintRoller.jpg,6
22420,14:06:06,34,34,5.0.14.0,2,46,trial1,naming,0,0,0,0,toilet brush,0,5247,1,White_Screen.jpg,6,15,Brush_Toilet.jpg,6
22420,14:06:06,34,34,5.0.14.0,2,47,trial1,naming,0,0,0,0,legos,0,2486,1,White_Screen.jpg,3,88,Toys_Lego.jpg,3
22420,14:06:06,34,34,5.0.14.0,2,48,trial1,naming,0,0,0,0,tea pot,0,4516,1,White_Screen.jpg,6,119,Kettle.jpg,6
22420,14:06:06,34,34,5.0.14.0,2,49,trial1,naming,0,0,0,0,drum,0,2399,1,White_Screen.jpg,7,148,Drum_Ramadan.jpg,7
22420,14:06:06,34,34,5.0.14.0,2,50,trial1,naming,0,0,0,0,bat,0,2106,1,White_Screen.jpg,9,87,Bat_Baseball.jpg,9
22420,14:06:06,34,34,5.0.14.0,2,52,trial1,naming,0,0,0,0,cricket,0,5480,1,White_Screen.jpg,8,166,Bat_Cricket.jpg,8
22420,14:06:06,34,34,5.0.14.0,2,53,trial1,naming,0,0,0,0,eggs,0,2722,1,White_Screen.jpg,4,30,CartonEggs.jpg,4
22420,14:06:06,34,34,5.0.14.0,2,54,trial1,naming,0,0,0,0,salt shaker,0,3757,1,White_Screen.jpg,9,102,SaltShaker.jpg,9
22420,14:06:06,34,34,5.0.14.0,2,55,trial1,naming,0,0,0,0,bike seat,0,3618,1,White_Screen.jpg,5,17,BicycleSeat.jpg,5
22420,14:06:06,34,34,5.0.14.0,2,56,trial1,naming,0,0,0,0,ghost,0,2681,1,White_Screen.jpg,8,136,Ghost.jpg,8
22420,14:06:06,34,34,5.0.14.0,2,57,trial1,naming,0,0,0,0,boat,0,2028,1,White_Screen.jpg,7,159,Boat_Trailer.jpg,7
22420,14:06:06,34,34,5.0.14.0,2,58,trial1,naming,0,0,0,0,barrel,0,2617,1,White_Screen.jpg,2,1,Barrel_Upright.jpg,2
22420,14:06:06,34,34,5.0.14.0,2,59,trial1,naming,0,0,0,0,remote,0,2286,1,White_Screen.jpg,4,80,RemoteControl.jpg,4
22420,14:06:06,34,34,5.0.14.0,2,60,trial1,naming,0,0,0,0,hot dog,0,3582,1,White_Screen.jpg,7,63,Hotdog_Weiner.jpg,7
22420,14:06:06,34,34,5.0.14.0,2,61,trial1,naming,0,0,0,0,mirror,0,3101,1,White_Screen.jpg,8,2,Frame_Oval.jpg,8
22420,14:06:06,34,34,5.0.14.0,2,62,trial1,naming,0,0,0,0,notebook,0,3488,1,White_Screen.jpg,8,106,Notebook.jpg,8
22420,14:06:06,34,34,5.0.14.0,2,63,trial1,naming,0,0,0,0,stroller,0,2989,1,White_Screen.jpg,9,25,Stroller.jpg,9
22420,14:06:06,34,34,5.0.14.0,2,64,trial1,naming,0,0,0,0,rocking horse,0,3782,1,White_Screen.jpg,5,131,Toy_RockingHorseBeige.jpg,5
22420,14:06:06,34,34,5.0.14.0,2,65,trial1,naming,0,0,0,0,pasta,0,4595,1,White_Screen.jpg,5,110,Pasta_Fusilli.jpg,5
22420,14:06:06,34,34,5.0.14.0,2,66,trial1,naming,0,0,0,0,peach,0,2844,1,White_Screen.jpg,4,29,Peach.jpg,4
22420,14:06:06,34,34,5.0.14.0,2,67,trial1,naming,0,0,0,0,cat,0,5101,1,White_Screen.jpg,7,18,Statue_Cat.jpg,7
22420,14:06:06,34,34,5.0.14.0,2,68,trial1,naming,0,0,0,0,water colors,0,5601,1,White_Screen.jpg,8,190,WaterColorPaintset.jpg,8
22420,14:06:06,34,34,5.0.14.0,2,69,trial1,naming,0,0,0,0,tweezers,0,3152,1,White_Screen.jpg,8,132,Tweezers.jpg,8
22420,14:06:06,34,34,5.0.14.0,2,70,trial1,naming,0,0,0,0,lucky charm,0,5602,1,White_Screen.jpg,8,130,Decoration_Chinese.jpg,8
22420,14:06:06,34,34,5.0.14.0,2,71,trial1,naming,0,0,0,0,grip,0,6644,1,White_Screen.jpg,8,3,BicycleHandleGrip.jpg,8
22420,14:06:06,34,34,5.0.14.0,2,72,trial1,naming,0,0,0,0,bullet,0,2512,1,White_Screen.jpg,9,139,Bullet.jpg,9
22420,14:06:06,34,34,5.0.14.0,2,73,trial1,naming,0,0,0,0,life ring,0,3300,1,White_Screen.jpg,8,50,TubeRing.jpg,8
22420,14:06:06,34,34,5.0.14.0,2,74,trial1,naming,0,0,0,0,clover,0,3305,1,White_Screen.jpg,8,70,Leaf_Clover.jpg,8
22420,14:06:06,34,34,5.0.14.0,2,75,trial1,naming,0,0,0,0,backhoe,0,8206,1,White_Screen.jpg,9,165,Backhoe.jpg,9
22420,14:06:06,34,34,5.0.14.0,2,76,trial1,naming,0,0,0,0,lego,0,5438,1,White_Screen.jpg,4,188,Pipe_Pitch.jpg,4
22420,14:06:06,34,34,5.0.14.0,2,77,trial1,naming,0,0,0,0,sewing wheel,0,5356,1,White_Screen.jpg,7,128,SpinningWheel.jpg,7
22420,14:06:06,34,34,5.0.14.0,2,78,trial1,naming,0,0,0,0,tree,0,3566,1,White_Screen.jpg,9,96,Shrub_Boxwood.jpg,9
22420,14:06:06,34,34,5.0.14.0,2,79,trial1,naming,0,0,0,0,saline,0,4328,1,White_Screen.jpg,8,60,Bag_Saline.jpg,8
22420,14:06:06,34,34,5.0.14.0,2,80,trial1,naming,0,0,0,0,figurine,0,6305,1,White_Screen.jpg,4,150,Sculpture_MetalMan.jpg,4
22420,14:06:06,34,34,5.0.14.0,2,81,trial1,naming,0,0,0,0,vice grip,0,4783,1,White_Screen.jpg,8,90,Clamp.jpg,8
22420,14:06:06,34,34,5.0.14.0,2,82,trial1,naming,0,0,0,0,knife block,0,4508,1,White_Screen.jpg,9,163,KnifeHolder.jpg,9
22420,14:06:06,34,34,5.0.14.0,2,83,trial1,naming,0,0,0,0,hooka,0,2994,1,White_Screen.jpg,8,120,Hookah.jpg,8
22420,14:06:06,34,34,5.0.14.0,2,84,trial1,naming,0,0,0,0,street sign,0,4237,1,White_Screen.jpg,3,169,Sign_Airport.jpg,3
22420,14:06:06,34,34,5.0.14.0,2,85,trial1,naming,0,0,0,0,table,0,2504,1,White_Screen.jpg,9,43,Table_Side.jpg,9
22420,14:06:06,34,34,5.0.14.0,2,86,trial1,naming,0,0,0,0,snorkle,0,4235,1,White_Screen.jpg,8,74,Snorkle.jpg,8
22420,14:06:06,34,34,5.0.14.0,2,87,trial1,naming,0,0,0,0,igloo,0,2533,1,White_Screen.jpg,7,184,Igloo.jpg,7
22420,14:06:06,34,34,5.0.14.0,2,88,trial1,naming,0,0,0,0,dental light,0,6197,1,White_Screen.jpg,9,170,DentistOverheadLight.jpg,9
22420,14:06:06,34,34,5.0.14.0,2,89,trial1,naming,0,0,0,0,stamp,0,2771,1,White_Screen.jpg,5,85,PostageStamps.jpg,5
22420,14:06:06,34,34,5.0.14.0,2,90,trial1,naming,0,0,0,0,armour,0,3899,1,White_Screen.jpg,8,31,Wardrobe.jpg,8
22420,14:06:06,34,34,5.0.14.0,2,91,trial1,naming,0,0,0,0,tape,0,3850,1,White_Screen.jpg,8,68,Tape_Dispenser.jpg,8
22420,14:06:06,34,34,5.0.14.0,2,92,trial1,naming,0,0,0,0,dynamite,0,4028,1,White_Screen.jpg,8,38,Dynamite.jpg,8
22420,14:06:06,34,34,5.0.14.0,2,93,trial1,naming,0,0,0,0,walker,0,7404,1,White_Screen.jpg,6,61,Chair_MedicalToilet.jpg,6
22420,14:06:06,34,34,5.0.14.0,2,94,trial1,naming,0,0,0,0,washer,0,2959,1,White_Screen.jpg,7,168,DryingMachine.jpg,7
22420,14:06:06,34,34,5.0.14.0,2,95,trial1,naming,0,0,0,0,stones,0,3668,1,White_Screen.jpg,6,152,Stone_Spa.jpg,6
22420,14:06:06,34,34,5.0.14.0,2,96,trial1,naming,0,0,0,0,business man,0,4267,1,White_Screen.jpg,8,112,Man.jpg,8
22420,14:06:06,34,34,5.0.14.0,2,97,trial1,naming,0,0,0,0,groceries,0,4177,1,White_Screen.jpg,8,133,Bag_Groceries.jpg,8
22420,14:06:06,34,34,5.0.14.0,2,98,trial1,naming,0,0,0,0,paint thinner,0,3549,1,White_Screen.jpg,3,51,Can_Oblong.jpg,3
22420,14:06:06,34,34,5.0.14.0,2,99,trial1,naming,0,0,0,0,hot dog,0,2720,1,White_Screen.jpg,3,114,Hotdog_WithBun.jpg,3
22420,14:06:06,34,34,5.0.14.0,2,100,trial1,naming,0,0,0,0,level,0,3275,1,White_Screen.jpg,8,167,Level.jpg,8
22420,14:06:06,34,34,5.0.14.0,2,101,trial1,naming,0,0,0,0,stop light,0,3893,1,White_Screen.jpg,5,180,Light_Traffic.jpg,5
22420,14:06:06,34,34,5.0.14.0,2,103,trial1,naming,0,0,0,0,duffle bag,0,4592,1,White_Screen.jpg,9,26,Bag_Gym.jpg,9
22420,14:06:06,34,34,5.0.14.0,2,104,trial1,naming,0,0,0,0,church,0,3622,1,White_Screen.jpg,5,199,Steeple.jpg,5
22420,14:06:06,34,34,5.0.14.0,2,105,trial1,naming,0,0,0,0,china plate,0,6187,1,White_Screen.jpg,8,72,Plate_Decorative.jpg,8
22420,14:06:06,34,34,5.0.14.0,2,106,trial1,naming,0,0,0,0,old cash register,0,7340,1,White_Screen.jpg,8,13,CashRegister_Antique.jpg,8
22420,14:06:06,34,34,5.0.14.0,2,107,trial1,naming,0,0,0,0,horn,0,3180,1,White_Screen.jpg,5,177,Horn_Hunting.jpg,5
22420,14:06:06,34,34,5.0.14.0,2,108,trial1,naming,0,0,0,0,ice skate,0,3819,1,White_Screen.jpg,3,52,Skates.jpg,3
22420,14:06:06,34,34,5.0.14.0,2,109,trial1,naming,0,0,0,0,gas can,0,3019,1,White_Screen.jpg,8,56,Canister_Oil.jpg,8
22420,14:06:06,34,34,5.0.14.0,2,110,trial1,naming,0,0,0,0,luggage,0,4273,1,White_Screen.jpg,8,115,Suitcase.jpg,8
22420,14:06:06,34,34,5.0.14.0,2,111,trial1,naming,0,0,0,0,boat,0,1917,1,White_Screen.jpg,8,44,Boat_Row.jpg,8
22420,14:06:06,34,34,5.0.14.0,2,112,trial1,naming,0,0,0,0,visor,0,2841,1,White_Screen.jpg,3,14,Hat_Visor.jpg,3
22420,14:06:06,34,34,5.0.14.0,2,113,trial1,naming,0,0,0,0,heels,0,3297,1,White_Screen.jpg,8,117,Shoes_Pumps.jpg,8
22420,14:06:06,34,34,5.0.14.0,2,114,trial1,naming,0,0,0,0,makeup,0,2946,1,White_Screen.jpg,8,71,Makeup_Eyeshadow.jpg,8
22420,14:06:06,34,34,5.0.14.0,2,115,trial1,naming,0,0,0,0,liquid,0,8140,1,White_Screen.jpg,4,176,VialLab.jpg,4
22420,14:06:06,34,34,5.0.14.0,2,116,trial1,naming,0,0,0,0,scorpion,0,3559,1,White_Screen.jpg,8,46,Scorpion.jpg,8
22420,14:06:06,34,34,5.0.14.0,2,117,trial1,naming,0,0,0,0,pickle,0,2803,1,White_Screen.jpg,3,104,Pickle.jpg,3
22420,14:06:06,34,34,5.0.14.0,2,118,trial1,naming,0,0,0,0,broom,0,1980,1,White_Screen.jpg,9,75,Broom_Long.jpg,9
22420,14:06:06,34,34,5.0.14.0,2,119,trial1,naming,0,0,0,0,statue,0,2776,1,White_Screen.jpg,4,20,Statue_Man.jpg,4
22420,14:06:06,34,34,5.0.14.0,2,120,trial1,naming,0,0,0,0,corn,0,2968,1,White_Screen.jpg,5,45,Corn_Kernels.jpg,5
22420,14:06:06,34,34,5.0.14.0,2,121,trial1,naming,0,0,0,0,brain,0,5216,1,White_Screen.jpg,8,153,BrainSagittal.jpg,8
22420,14:06:06,34,34,5.0.14.0,2,122,trial1,naming,0,0,0,0,walkie talkie,0,5125,1,White_Screen.jpg,8,21,BabyMonitor.jpg,8
22420,14:06:06,34,34,5.0.14.0,2,123,trial1,naming,0,0,0,0,pencil,0,2817,1,White_Screen.jpg,3,5,Pencil.jpg,3
22420,14:06:06,34,34,5.0.14.0,2,124,trial1,naming,0,0,0,0,cookie jar,0,3415,1,White_Screen.jpg,5,198,Jar_Cookie.jpg,5
22420,14:06:06,34,34,5.0.14.0,2,125,trial1,naming,0,0,0,0,eraser,0,3726,1,White_Screen.jpg,6,192,Eraser.jpg,6
22420,14:06:06,34,34,5.0.14.0,2,126,trial1,naming,0,0,0,0,donkey,0,2921,1,White_Screen.jpg,3,135,Toy_DonkeyPlastic.jpg,3
22420,14:06:06,34,34,5.0.14.0,2,127,trial1,naming,0,0,0,0,school chair,0,5573,1,White_Screen.jpg,9,40,Chair_Student.jpg,9
22420,14:06:06,34,34,5.0.14.0,2,128,trial1,naming,0,0,0,0,door lock,0,3604,1,White_Screen.jpg,8,36,Keyhole.jpg,8
22420,14:06:06,34,34,5.0.14.0,2,129,trial1,naming,0,0,0,0,lens,0,3315,1,White_Screen.jpg,9,33,Lens_ColourFilter.jpg,9
22420,14:06:06,34,34,5.0.14.0,2,130,trial1,naming,0,0,0,0,kiwi,0,2939,1,White_Screen.jpg,9,59,Kiwi.jpg,9
22420,14:06:06,34,34,5.0.14.0,2,131,trial1,naming,0,0,0,0,duck,0,2434,1,White_Screen.jpg,8,137,Goose_Canadian.jpg,8
22420,14:06:06,34,34,5.0.14.0,2,132,trial1,naming,0,0,0,0,soap dispenser,0,5963,1,White_Screen.jpg,9,186,SoapBottle.jpg,9
22420,14:06:06,34,34,5.0.14.0,2,133,trial1,naming,0,0,0,0,egg,0,2985,1,White_Screen.jpg,8,37,Egg_Cup.jpg,8
22420,14:06:06,34,34,5.0.14.0,2,134,trial1,naming,0,0,0,0,mother board,0,5268,1,White_Screen.jpg,9,16,Computer_ExpansionCard.jpg,9
22420,14:06:06,34,34,5.0.14.0,2,135,trial1,naming,0,0,0,0,lipstick,0,3354,1,White_Screen.jpg,8,41,Lipstick.jpg,8
22420,14:06:06,34,34,5.0.14.0,2,136,trial1,naming,0,0,0,0,tape recorder,0,4750,1,White_Screen.jpg,8,83,RecorderCassette.jpg,8
22420,14:06:06,34,34,5.0.14.0,2,137,trial1,naming,0,0,0,0,candle extinguisher,0,7849,1,White_Screen.jpg,8,116,CandleSnuffer.jpg,8
22420,14:06:06,34,34,5.0.14.0,2,138,trial1,naming,0,0,0,0,ship,0,3826,1,White_Screen.jpg,9,78,Ship_Model.jpg,9
22420,14:06:06,34,34,5.0.14.0,2,139,trial1,naming,0,0,0,0,traffic sign,0,5166,1,White_Screen.jpg,5,151,Sign_SpeedLimit30.jpg,5
22420,14:06:06,34,34,5.0.14.0,2,140,trial1,naming,0,0,0,0,cow,0,3363,1,White_Screen.jpg,4,9,Cow.jpg,4
22420,14:06:06,34,34,5.0.14.0,2,141,trial1,naming,0,0,0,0,tire,0,2000,1,White_Screen.jpg,4,48,Tire_Hollow.jpg,4
22420,14:06:06,34,34,5.0.14.0,2,142,trial1,naming,0,0,0,0,monkey,0,7102,1,White_Screen.jpg,8,79,MonkeyPuppet.jpg,8
22420,14:06:06,34,34,5.0.14.0,2,143,trial1,naming,0,0,0,0,sconce,0,3694,1,White_Screen.jpg,8,24,Hook_Ceiling.jpg,8
22420,14:06:06,34,34,5.0.14.0,2,144,trial1,naming,0,0,0,0,payphone,0,4356,1,White_Screen.jpg,2,42,Phone_Public.jpg,2
22420,14:06:06,34,34,5.0.14.0,2,145,trial1,naming,0,0,0,0,sweing wheel,0,6003,1,White_Screen.jpg,8,189,Distaff.jpg,8
22420,14:06:06,34,34,5.0.14.0,2,146,trial1,naming,0,0,0,0,magnifying glass,0,7825,1,White_Screen.jpg,9,196,Magnifying_Glass.jpg,9
22420,14:06:06,34,34,5.0.14.0,2,147,trial1,naming,0,0,0,0,telephone,0,6418,1,White_Screen.jpg,4,144,Telephone_TinCan.jpg,4
22420,14:06:06,34,34,5.0.14.0,2,148,trial1,naming,0,0,0,0,christmas tree,0,6052,1,White_Screen.jpg,9,7,Tree_Fir.jpg,9
22420,14:06:06,34,34,5.0.14.0,2,149,trial1,naming,0,0,0,0,skirt,0,2691,1,White_Screen.jpg,8,182,Skirt_Long.jpg,8
22420,14:06:06,34,34,5.0.14.0,2,150,trial1,naming,0,0,0,0,chair,0,2012,1,White_Screen.jpg,2,66,Chair_Dining.jpg,2
22420,14:06:06,34,34,5.0.14.0,2,151,trial1,naming,0,0,0,0,paint brush,0,3680,1,White_Screen.jpg,5,138,Brush_Paint.jpg,5
22420,14:06:06,34,34,5.0.14.0,2,152,trial1,naming,0,0,0,0,funions,0,3876,1,White_Screen.jpg,3,161,OnionRings.jpg,3
22420,14:06:06,34,34,5.0.14.0,2,154,trial1,naming,0,0,0,0,spade,0,3675,1,White_Screen.jpg,5,162,Trowel.jpg,5
22420,14:06:06,34,34,5.0.14.0,2,155,trial1,naming,0,0,0,0,chain,0,2777,1,White_Screen.jpg,8,101,ChainRusty.jpg,8
22420,14:06:06,34,34,5.0.14.0,2,156,trial1,naming,0,0,0,0,witch,0,2903,1,White_Screen.jpg,4,160,Toy_Witch.jpg,4
22420,14:06:06,34,34,5.0.14.0,2,157,trial1,naming,0,0,0,0,tailor model,0,9155,1,White_Screen.jpg,8,100,MannequinBust.jpg,8
22420,14:06:06,34,34,5.0.14.0,2,158,trial1,naming,0,0,0,0,roller blade,0,4518,1,White_Screen.jpg,8,54,RollerBlade.jpg,8
22420,14:06:06,34,34,5.0.14.0,2,159,trial1,naming,0,0,0,0,spray bottle,0,4229,1,White_Screen.jpg,8,174,Bottle_Spray.jpg,8
22420,14:06:06,34,34,5.0.14.0,2,160,trial1,naming,0,0,0,0,roller,0,6000,1,White_Screen.jpg,7,143,Steamroller.jpg,7
22420,14:06:06,34,34,5.0.14.0,2,161,trial1,naming,0,0,0,0,butter churn,0,4545,1,White_Screen.jpg,8,99,ButterChurn.jpg,8
22420,14:06:06,34,34,5.0.14.0,2,162,trial1,naming,0,0,0,0,party favor,0,5081,1,White_Screen.jpg,4,149,Noisemaker.jpg,4
22420,14:06:06,34,34,5.0.14.0,2,163,trial1,naming,0,0,0,0,suit,0,2211,1,White_Screen.jpg,5,97,Suit_Women.jpg,5
22420,14:06:06,34,34,5.0.14.0,2,164,trial1,naming,0,0,0,0,measuring spoon,0,5418,1,White_Screen.jpg,4,23,Spoons_MeasuringDetached.jpg,4
22420,14:06:06,34,34,5.0.14.0,2,165,trial1,naming,0,0,0,0,bird cage,0,3342,1,White_Screen.jpg,5,35,Cage_Bird.jpg,5
22420,14:06:06,34,34,5.0.14.0,2,166,trial1,naming,0,0,0,0,dice,0,2610,1,White_Screen.jpg,5,147,FuzzyDice.jpg,5
22420,14:06:06,34,34,5.0.14.0,2,167,trial1,naming,0,0,0,0,chicken,0,3064,1,White_Screen.jpg,8,193,Chicken_FriedWing.jpg,8
22420,14:06:06,34,34,5.0.14.0,2,168,trial1,naming,0,0,0,0,tennis shoes,0,4279,1,White_Screen.jpg,4,108,Shoes_Sneakers.jpg,4
22420,14:06:06,34,34,5.0.14.0,2,169,trial1,naming,0,0,0,0,spoon,0,2971,1,White_Screen.jpg,4,32,Spoon_Baby.jpg,4
22420,14:06:06,34,34,5.0.14.0,2,170,trial1,naming,0,0,0,0,leek,0,2835,1,White_Screen.jpg,8,142,Leek.jpg,8
22420,14:06:06,34,34,5.0.14.0,2,171,trial1,naming,0,0,0,0,rosemary,0,4569,1,White_Screen.jpg,7,183,Dill.jpg,7
22420,14:06:06,34,34,5.0.14.0,2,172,trial1,naming,0,0,0,0,celery,0,4478,1,White_Screen.jpg,8,154,Celery.jpg,8
22420,14:06:06,34,34,5.0.14.0,2,173,trial1,naming,0,0,0,0,feet,0,2266,1,White_Screen.jpg,2,194,Feet.jpg,2
22420,14:06:06,34,34,5.0.14.0,2,174,trial1,naming,0,0,0,0,goggles,0,7138,1,White_Screen.jpg,3,171,GogglesSwim.jpg,3
22420,14:06:06,34,34,5.0.14.0,2,175,trial1,naming,0,0,0,0,seahorse,0,3494,1,White_Screen.jpg,4,55,Seahorse.jpg,4
22420,14:06:06,34,34,5.0.14.0,2,176,trial1,naming,0,0,0,0,globe,0,2658,1,White_Screen.jpg,6,64,SnowGlobe.jpg,6
22420,14:06:06,34,34,5.0.14.0,2,177,trial1,naming,0,0,0,0,bus,0,1866,1,White_Screen.jpg,6,113,Bus_School.jpg,6
22420,14:06:06,34,34,5.0.14.0,2,178,trial1,naming,0,0,0,0,fan blade,0,4187,1,White_Screen.jpg,5,6,PropellerFan.jpg,5
22420,14:06:06,34,34,5.0.14.0,2,179,trial1,naming,0,0,0,0,grip strengthener,0,7065,1,White_Screen.jpg,8,146,Exercise_HandTrainer.jpg,8
22420,14:06:06,34,34,5.0.14.0,2,180,trial1,naming,0,0,0,0,data cable,0,8653,1,White_Screen.jpg,9,69,Cord_Ethernet.jpg,9
22420,14:06:06,34,34,5.0.14.0,2,181,trial1,naming,0,0,0,0,harp,0,3729,1,White_Screen.jpg,8,47,Harp.jpg,8
22420,14:06:06,34,34,5.0.14.0,2,182,trial1,naming,0,0,0,0,newspapers,0,3310,1,White_Screen.jpg,4,181,NewspaperStack.jpg,4
22420,14:06:06,34,34,5.0.14.0,2,183,trial1,naming,0,0,0,0,martini glass,0,6133,1,White_Screen.jpg,6,28,Glass_Martini.jpg,6
22420,14:06:06,34,34,5.0.14.0,2,184,trial1,naming,0,0,0,0,hose sprayer,0,5884,1,White_Screen.jpg,9,105,HoseNozzle.jpg,9
22420,14:06:06,34,34,5.0.14.0,2,185,trial1,naming,0,0,0,0,gutter,0,4803,1,White_Screen.jpg,8,4,Pipe_Drain.jpg,8
22420,14:06:06,34,34,5.0.14.0,2,186,trial1,naming,0,0,0,0,garlic,0,3078,1,White_Screen.jpg,9,10,Garlic_Clove.jpg,9
22420,14:06:06,34,34,5.0.14.0,2,187,trial1,naming,0,0,0,0,thermous,0,3236,1,White_Screen.jpg,3,82,Thermos_MetalSleek.jpg,3
22420,14:06:06,34,34,5.0.14.0,2,188,trial1,naming,0,0,0,0,potpouri,0,6341,1,White_Screen.jpg,8,129,Pouch_PotPourri.jpg,8
22420,14:06:06,34,34,5.0.14.0,2,189,trial1,naming,0,0,0,0,heel,0,3571,1,White_Screen.jpg,8,123,Shoe_Pink.jpg,8
22420,14:06:06,34,34,5.0.14.0,2,190,trial1,naming,0,0,0,0,gerbil,0,4553,1,White_Screen.jpg,8,76,GuineaPig.jpg,8
22420,14:06:06,34,34,5.0.14.0,2,191,trial1,naming,0,0,0,0,blower,0,6027,1,White_Screen.jpg,8,140,CoolingFan_Engine2.jpg,8
22420,14:06:06,34,34,5.0.14.0,2,192,trial1,naming,0,0,0,0,english muffin,0,7491,1,White_Screen.jpg,4,34,EnglishMuffin.jpg,4
22420,14:06:06,34,34,5.0.14.0,2,193,trial1,naming,0,0,0,0,axe,0,2070,1,White_Screen.jpg,5,58,Axe.jpg,5
22420,14:06:06,34,34,5.0.14.0,2,194,trial1,naming,0,0,0,0,gas can,0,4856,1,White_Screen.jpg,8,73,Can_Gas.jpg,8
22420,14:06:06,34,34,5.0.14.0,2,195,trial1,naming,0,0,0,0,baby changing table,0,6642,1,White_Screen.jpg,8,118,DiaperChangingStation.jpg,8
22420,14:06:06,34,34,5.0.14.0,2,196,trial1,naming,0,0,0,0,peas,0,2033,1,White_Screen.jpg,6,164,Can_Peas.jpg,6
22420,14:06:06,34,34,5.0.14.0,2,197,trial1,naming,0,0,0,0,paper,0,2529,1,White_Screen.jpg,5,98,OrigamiPaper.jpg,5
22420,14:06:06,34,34,5.0.14.0,2,198,trial1,naming,0,0,0,0,hook,0,3147,1,White_Screen.jpg,4,22,Hook_Fishing.jpg,4
22420,14:06:06,34,34,5.0.14.0,2,199,trial1,naming,0,0,0,0,stairs,0,2745,1,White_Screen.jpg,5,197,Staircase_Straight.jpg,5
22420,14:06:06,34,34,5.0.14.0,2,200,trial1,naming,0,0,0,0,gas can,0,3991,1,White_Screen.jpg,6,62,Jug_GallonRed.jpg,6
22420,14:06:06,34,34,5.0.14.0,2,201,trial1,naming,0,0,0,0,remakin,0,7533,1,White_Screen.jpg,8,145,Ramekin.jpg,8
22420,14:06:06,34,34,5.0.14.0,2,202,trial1,naming,0,0,0,0,condom,0,8568,1,White_Screen.jpg,8,187,Condom.jpg,8
22420,14:06:06,34,34,5.0.14.0,2,203,trial1,naming,0,0,0,0,watch,0,2484,1,White_Screen.jpg,7,127,Watch.jpg,7
22420,14:06:06,34,34,5.0.14.0,3,1,demographics_block,gender,0,0,0,0,female,1,20529,0,0,0,0,0,0
22420,14:06:06,34,34,5.0.14.0,3,1,demographics_block,age,0,0,0,0,42,1,20529,0,0,0,0,0,0
22420,14:06:06,34,34,5.0.14.0,3,1,demographics_block,education,0,0,0,0,18,1,20529,0,0,0,0,0,0
22420,14:06:06,34,34,5.0.14.0,3,2,demographics_block,left_right_handed,0,0,0,0,Right,1,6850,0,0,0,0,0,0
22420,14:06:06,34,34,5.0.14.0,3,2,demographics_block,raceoption1,0,0,0,0,0,1,6850,0,0,0,0,0,0
22420,14:06:06,34,34,5.0.14.0,3,2,demographics_block,raceoption2,0,0,0,0,,1,6850,0,0,0,0,0,0
22420,14:06:06,34,34,5.0.14.0,3,2,demographics_block,raceoption3,0,0,0,0,,1,6850,0,0,0,0,0,0
22420,14:06:06,34,34,5.0.14.0,3,2,demographics_block,raceoption4,0,0,0,0,,1,6850,0,0,0,0,0,0
22420,14:06:06,34,34,5.0.14.0,3,2,demographics_block,raceoption5,0,0,0,0,,1,6850,0,0,0,0,0,0
22420,14:06:06,34,34,5.0.14.0,3,2,demographics_block,raceoption6,0,0,0,0,,1,6850,0,0,0,0,0,0
22420,14:06:06,34,34,5.0.14.0,3,2,demographics_block,raceoption7,0,0,0,0,,1,6850,0,0,0,0,0,0
22420,14:06:06,34,34,5.0.14.0,3,2,demographics_block,raceoption8,0,0,0,0,,1,6850,0,0,0,0,0,0
22420,14:06:06,34,34,5.0.14.0,3,2,demographics_block,raceoption9,0,0,0,0,,1,6850,0,0,0,0,0,0
22420,14:06:06,34,34,5.0.14.0,3,2,demographics_block,raceother,0,0,0,0,,1,6850,0,0,0,0,0,0
22420,14:06:06,34,34,5.0.14.0,3,2,demographics_block,raceother,0,0,0,0,,1,6850,0,0,0,0,0,0
22420,14:06:06,34,34,5.0.14.0,3,2,demographics_block,english_language,0,0,0,0,Yes,1,6850,0,0,0,0,0,0
22420,14:06:06,34,34,5.0.14.0,3,2,demographics_block,english_languageother,0,0,0,0,,1,6850,0,0,0,0,0,0
22420,14:06:06,34,34,5.0.14.0,3,3,demographics_block,eyesight,0,0,0,0,Yes,1,6075,0,0,0,0,0,0
22420,14:06:06,34,34,5.0.14.0,3,3,demographics_block,colorblind,0,0,0,0,No,1,6075,0,0,0,0,0,0
22420,14:06:06,34,34,5.0.14.0,4,1,worker_id_block,worker_id_textbox,0,0,0,0,A2OZF756R5JSG4,1,4688,0,0,0,0,0,0
22420,15:12:20,36,36,5.0.14.0,2,1,trial1,naming,0,0,0,0,traffic sign,0,8768,1,White_Screen.jpg,62,124,Sign_SpeedLimit25.jpg,62
22420,15:12:20,36,36,5.0.14.0,2,2,trial1,naming,0,0,0,0,drawer,0,9803,1,White_Screen.jpg,6,31,Wardrobe.jpg,6
22420,15:12:20,36,36,5.0.14.0,2,3,trial1,naming,0,0,0,0,tin can cell phone,0,8729,1,White_Screen.jpg,4,144,Telephone_TinCan.jpg,4
22420,15:12:20,36,36,5.0.14.0,2,4,trial1,naming,0,0,0,0,magnifying glass,0,5757,1,White_Screen.jpg,4,196,Magnifying_Glass.jpg,4
22420,15:12:20,36,36,5.0.14.0,2,5,trial1,naming,0,0,0,0,stopwatch,0,6063,1,White_Screen.jpg,5,21,BabyMonitor.jpg,5
22420,15:12:20,36,36,5.0.14.0,2,6,trial1,naming,0,0,0,0,apple,0,2591,1,White_Screen.jpg,5,29,Peach.jpg,5
22420,15:12:20,36,36,5.0.14.0,2,7,trial1,naming,0,0,0,0,,0,10000,1,White_Screen.jpg,5,89,PeasSplit.jpg,5
22420,15:12:20,36,36,5.0.14.0,2,8,trial1,naming,0,0,0,0,rocking horse,0,5036,1,White_Screen.jpg,7,131,Toy_RockingHorseBeige.jpg,7
22420,15:12:20,36,36,5.0.14.0,2,9,trial1,naming,0,0,0,0,sneaker,0,2780,1,White_Screen.jpg,4,108,Shoes_Sneakers.jpg,4
22420,15:12:20,36,36,5.0.14.0,2,10,trial1,naming,0,0,0,0,coach bag,0,3318,1,White_Screen.jpg,4,26,Bag_Gym.jpg,4
22420,15:12:20,36,36,5.0.14.0,2,11,trial1,naming,0,0,0,0,perfume,0,3935,1,White_Screen.jpg,5,186,SoapBottle.jpg,5
22420,15:12:20,36,36,5.0.14.0,2,12,trial1,naming,0,0,0,0,chain,0,2957,1,White_Screen.jpg,4,101,ChainRusty.jpg,4
22420,15:12:20,36,36,5.0.14.0,2,13,trial1,naming,0,0,0,0,blow horn,0,5627,1,White_Screen.jpg,5,177,Horn_Hunting.jpg,5
22420,15:12:20,36,36,5.0.14.0,2,14,trial1,naming,0,0,0,0,water bottle can,0,6271,1,White_Screen.jpg,4,200,Bottle_Blue.jpg,4
22420,15:12:20,36,36,5.0.14.0,2,15,trial1,naming,0,0,0,0,grip trainers,0,5472,1,White_Screen.jpg,3,146,Exercise_HandTrainer.jpg,3
22420,15:12:20,36,36,5.0.14.0,2,16,trial1,naming,0,0,0,0,floatation device,0,6206,1,White_Screen.jpg,4,50,TubeRing.jpg,4
22420,15:12:20,36,36,5.0.14.0,2,17,trial1,naming,0,0,0,0,flashlight,0,10000,1,White_Screen.jpg,4,3,BicycleHandleGrip.jpg,4
22420,15:12:20,36,36,5.0.14.0,2,18,trial1,naming,0,0,0,0,sEnter Name,0,190,1,White_Screen.jpg,6,191,MeatRaw.jpg,6
22420,15:12:20,36,36,5.0.14.0,2,19,trial1,naming,0,0,0,0,broom,0,5090,1,White_Screen.jpg,4,84,Razor.jpg,4
22420,15:12:20,36,36,5.0.14.0,2,20,trial1,naming,0,0,0,0,scuba gear,0,3491,1,White_Screen.jpg,4,74,Snorkle.jpg,4
22420,15:12:20,36,36,5.0.14.0,2,21,trial1,naming,0,0,0,0,model ship,0,3193,1,White_Screen.jpg,4,78,Ship_Model.jpg,4
22420,15:12:20,36,36,5.0.14.0,2,22,trial1,naming,0,0,0,0,suit,0,3034,1,White_Screen.jpg,4,97,Suit_Women.jpg,4
22420,15:12:20,36,36,5.0.14.0,2,23,trial1,naming,0,0,0,0,engine ,0,6311,1,White_Screen.jpg,6,140,CoolingFan_Engine2.jpg,6
22420,15:12:20,36,36,5.0.14.0,2,24,trial1,naming,0,0,0,0,notebook,0,3436,1,White_Screen.jpg,5,106,Notebook.jpg,5
22420,15:12:20,36,36,5.0.14.0,2,25,trial1,naming,0,0,0,0,eraser,0,2313,1,White_Screen.jpg,4,192,Eraser.jpg,4
22420,15:12:20,36,36,5.0.14.0,2,26,trial1,naming,0,0,0,0,figurine,0,3328,1,White_Screen.jpg,4,150,Sculpture_MetalMan.jpg,4
22420,15:12:20,36,36,5.0.14.0,2,27,trial1,naming,0,0,0,0,bed,0,2662,1,White_Screen.jpg,4,57,Brace_Neck.jpg,4
22420,15:12:20,36,36,5.0.14.0,2,28,trial1,naming,0,0,0,0,fuzzy dice,0,3128,1,White_Screen.jpg,4,147,FuzzyDice.jpg,4
22420,15:12:20,36,36,5.0.14.0,2,29,trial1,naming,0,0,0,0,airport sign,0,4051,1,White_Screen.jpg,5,169,Sign_Airport.jpg,5
22420,15:12:20,36,36,5.0.14.0,2,30,trial1,naming,0,0,0,0,heels,0,2689,1,White_Screen.jpg,6,117,Shoes_Pumps.jpg,6
22420,15:12:20,36,36,5.0.14.0,2,31,trial1,naming,0,0,0,0,high heels,0,2821,1,White_Screen.jpg,5,123,Shoe_Pink.jpg,5
22420,15:12:20,36,36,5.0.14.0,2,32,trial1,naming,0,0,0,0,tickets,0,2594,1,White_Screen.jpg,4,172,Tickets_Blank.jpg,4
22420,15:12:20,36,36,5.0.14.0,2,33,trial1,naming,0,0,0,0,telephone,0,4774,1,White_Screen.jpg,4,42,Phone_Public.jpg,4
22420,15:12:20,36,36,5.0.14.0,2,34,trial1,naming,0,0,0,0,tape gun,0,3059,1,White_Screen.jpg,4,68,Tape_Dispenser.jpg,4
22420,15:12:20,36,36,5.0.14.0,2,35,trial1,naming,0,0,0,0,canteen,0,2992,1,White_Screen.jpg,5,56,Canister_Oil.jpg,5
22420,15:12:20,36,36,5.0.14.0,2,36,trial1,naming,0,0,0,0,bar,0,3933,1,White_Screen.jpg,4,121,TowelRack_Metal.jpg,4
22420,15:12:20,36,36,5.0.14.0,2,37,trial1,naming,0,0,0,0,can,0,3031,1,White_Screen.jpg,4,51,Can_Oblong.jpg,4
22420,15:12:20,36,36,5.0.14.0,2,38,trial1,naming,0,0,0,0,motherboard,0,4044,1,White_Screen.jpg,5,16,Computer_ExpansionCard.jpg,5
22420,15:12:20,36,36,5.0.14.0,2,39,trial1,naming,0,0,0,0,paint,0,3527,1,White_Screen.jpg,5,190,WaterColorPaintset.jpg,5
22420,15:12:20,36,36,5.0.14.0,2,40,trial1,naming,0,0,0,0,jersey,0,2725,1,White_Screen.jpg,4,12,Shirt_SportsJersey.jpg,4
22420,15:12:20,36,36,5.0.14.0,2,41,trial1,naming,0,0,0,0,googles,0,3205,1,White_Screen.jpg,4,171,GogglesSwim.jpg,4
22420,15:12:20,36,36,5.0.14.0,2,42,trial1,naming,0,0,0,0,boat,0,4163,1,White_Screen.jpg,4,159,Boat_Trailer.jpg,4
22420,15:12:20,36,36,5.0.14.0,2,43,trial1,naming,0,0,0,0,fan blades,0,2988,1,White_Screen.jpg,5,6,PropellerFan.jpg,5
22420,15:12:20,36,36,5.0.14.0,2,44,trial1,naming,0,0,0,0,fried chicken,0,5124,1,White_Screen.jpg,4,193,Chicken_FriedWing.jpg,4
22420,15:12:20,36,36,5.0.14.0,2,45,trial1,naming,0,0,0,0,old cashier,0,4304,1,White_Screen.jpg,4,13,CashRegister_Antique.jpg,4
22420,15:12:20,36,36,5.0.14.0,2,46,trial1,naming,0,0,0,0,dentist light,0,7814,1,White_Screen.jpg,5,170,DentistOverheadLight.jpg,5
22420,15:12:20,36,36,5.0.14.0,2,47,trial1,naming,0,0,0,0,black bar,0,6122,1,White_Screen.jpg,6,167,Level.jpg,6
22420,15:12:20,36,36,5.0.14.0,2,48,trial1,naming,0,0,0,0,traffic lights,0,3842,1,White_Screen.jpg,4,180,Light_Traffic.jpg,4
22420,15:12:20,36,36,5.0.14.0,2,49,trial1,naming,0,0,0,0,bird cage,0,2772,1,White_Screen.jpg,5,35,Cage_Bird.jpg,5
22420,15:12:20,36,36,5.0.14.0,2,50,trial1,naming,0,0,0,0,kiwi,0,3170,1,White_Screen.jpg,4,59,Kiwi.jpg,4
22420,15:12:20,36,36,5.0.14.0,2,52,trial1,naming,0,0,0,0,salt shaker ,0,5294,1,White_Screen.jpg,4,102,SaltShaker.jpg,4
22420,15:12:20,36,36,5.0.14.0,2,53,trial1,naming,0,0,0,0,plastic container,0,5010,1,White_Screen.jpg,4,178,MouthGuard.jpg,4
22420,15:12:20,36,36,5.0.14.0,2,54,trial1,naming,0,0,0,0,wet floor sign,0,4175,1,White_Screen.jpg,4,77,Sign_Wetfloor.jpg,4
22420,15:12:20,36,36,5.0.14.0,2,55,trial1,naming,0,0,0,0,onion ring chips,0,6746,1,White_Screen.jpg,4,161,OnionRings.jpg,4
22420,15:12:20,36,36,5.0.14.0,2,56,trial1,naming,0,0,0,0,igloo,0,2680,1,White_Screen.jpg,5,184,Igloo.jpg,5
22420,15:12:20,36,36,5.0.14.0,2,57,trial1,naming,0,0,0,0,cpw,0,2691,1,White_Screen.jpg,5,9,Cow.jpg,5
22420,15:12:20,36,36,5.0.14.0,2,58,trial1,naming,0,0,0,0,peasEnter Name,0,2212,1,White_Screen.jpg,4,164,Can_Peas.jpg,4
22420,15:12:20,36,36,5.0.14.0,2,59,trial1,naming,0,0,0,0,lipstick,0,3867,1,White_Screen.jpg,4,41,Lipstick.jpg,4
22420,15:12:20,36,36,5.0.14.0,2,60,trial1,naming,0,0,0,0,honey,0,3069,1,White_Screen.jpg,5,67,Jar_Honey.jpg,5
22420,15:12:20,36,36,5.0.14.0,2,61,trial1,naming,0,0,0,0,cookie jar,0,2995,1,White_Screen.jpg,4,198,Jar_Cookie.jpg,4
22420,15:12:20,36,36,5.0.14.0,2,62,trial1,naming,0,0,0,0,school bus,0,2966,1,White_Screen.jpg,5,113,Bus_School.jpg,5
22420,15:12:20,36,36,5.0.14.0,2,63,trial1,naming,0,0,0,0,egg,0,3472,1,White_Screen.jpg,7,37,Egg_Cup.jpg,7
22420,15:12:20,36,36,5.0.14.0,2,64,trial1,naming,0,0,0,0,ghot,0,2889,1,White_Screen.jpg,4,136,Ghost.jpg,4
22420,15:12:20,36,36,5.0.14.0,2,65,trial1,naming,0,0,0,0,plate,0,2744,1,White_Screen.jpg,4,72,Plate_Decorative.jpg,4
22420,15:12:20,36,36,5.0.14.0,2,66,trial1,naming,0,0,0,0,hospital bed,0,4061,1,White_Screen.jpg,5,122,Bed_Hospital.jpg,5
22420,15:12:20,36,36,5.0.14.0,2,67,trial1,naming,0,0,0,0,flower,0,3445,1,White_Screen.jpg,6,185,Flower_Daisy.jpg,6
22420,15:12:20,36,36,5.0.14.0,2,68,trial1,naming,0,0,0,0,barrel,0,2645,1,White_Screen.jpg,5,1,Barrel_Upright.jpg,5
22420,15:12:20,36,36,5.0.14.0,2,69,trial1,naming,0,0,0,0,dental pick,0,6414,1,White_Screen.jpg,5,132,Tweezers.jpg,5
22420,15:12:20,36,36,5.0.14.0,2,70,trial1,naming,0,0,0,0,desk,0,2659,1,White_Screen.jpg,6,40,Chair_Student.jpg,6
22420,15:12:20,36,36,5.0.14.0,2,71,trial1,naming,0,0,0,0,ice skates,0,5387,1,White_Screen.jpg,5,52,Skates.jpg,5
22420,15:12:20,36,36,5.0.14.0,2,72,trial1,naming,0,0,0,0,corn,0,4043,1,White_Screen.jpg,5,45,Corn_Kernels.jpg,5
22420,15:12:20,36,36,5.0.14.0,2,73,trial1,naming,0,0,0,0,speed limit sign,0,4630,1,White_Screen.jpg,4,151,Sign_SpeedLimit30.jpg,4
22420,15:12:20,36,36,5.0.14.0,2,74,trial1,naming,0,0,0,0,snow globe,0,3022,1,White_Screen.jpg,6,64,SnowGlobe.jpg,6
22420,15:12:20,36,36,5.0.14.0,2,75,trial1,naming,0,0,0,0,shield and sword,0,4214,1,White_Screen.jpg,4,49,Shield_Antique.jpg,4
22420,15:12:20,36,36,5.0.14.0,2,76,trial1,naming,0,0,0,0,mallet,0,5681,1,White_Screen.jpg,5,116,CandleSnuffer.jpg,5
22420,15:12:20,36,36,5.0.14.0,2,77,trial1,naming,0,0,0,0,green onion,0,5508,1,White_Screen.jpg,7,142,Leek.jpg,7
22420,15:12:20,36,36,5.0.14.0,2,78,trial1,naming,0,0,0,0,cricket bat,0,3310,1,White_Screen.jpg,6,166,Bat_Cricket.jpg,6
22420,15:12:20,36,36,5.0.14.0,2,79,trial1,naming,0,0,0,0,makeup,0,3247,1,White_Screen.jpg,6,71,Makeup_Eyeshadow.jpg,6
22420,15:12:20,36,36,5.0.14.0,2,80,trial1,naming,0,0,0,0,green color pencil,0,5900,1,White_Screen.jpg,6,5,Pencil.jpg,6
22420,15:12:20,36,36,5.0.14.0,2,81,trial1,naming,0,0,0,0,pump blade,0,4624,1,White_Screen.jpg,10,90,Clamp.jpg,10
22420,15:12:20,36,36,5.0.14.0,2,82,trial1,naming,0,0,0,0,ethernet cabel,0,4016,1,White_Screen.jpg,5,69,Cord_Ethernet.jpg,5
22420,15:12:20,36,36,5.0.14.0,2,83,trial1,naming,0,0,0,0,paint roller,0,4283,1,White_Screen.jpg,5,39,PaintRoller.jpg,5
22420,15:12:20,36,36,5.0.14.0,2,84,trial1,naming,0,0,0,0,bullet,0,2705,1,White_Screen.jpg,4,139,Bullet.jpg,4
22420,15:12:20,36,36,5.0.14.0,2,85,trial1,naming,0,0,0,0,monkey puppet,0,5394,1,White_Screen.jpg,4,79,MonkeyPuppet.jpg,4
22420,15:12:20,36,36,5.0.14.0,2,86,trial1,naming,0,0,0,0,4 leaf clover,0,3381,1,White_Screen.jpg,7,70,Leaf_Clover.jpg,7
22420,15:12:20,36,36,5.0.14.0,2,87,trial1,naming,0,0,0,0,party blower,0,5789,1,White_Screen.jpg,6,149,Noisemaker.jpg,6
22420,15:12:20,36,36,5.0.14.0,2,88,trial1,naming,0,0,0,0,model brain,0,4815,1,White_Screen.jpg,4,153,BrainSagittal.jpg,4
22420,15:12:20,36,36,5.0.14.0,2,89,trial1,naming,0,0,0,0,spinning wheel,0,4948,1,White_Screen.jpg,5,128,SpinningWheel.jpg,5
22420,15:12:20,36,36,5.0.14.0,2,90,trial1,naming,0,0,0,0,faucet device,0,6384,1,White_Screen.jpg,5,19,MeatGrinder.jpg,5
22420,15:12:20,36,36,5.0.14.0,2,91,trial1,naming,0,0,0,0,mixing bowl,0,4201,1,White_Screen.jpg,7,65,Glass_Bowl.jpg,7
22420,15:12:20,36,36,5.0.14.0,2,92,trial1,naming,0,0,0,0,boat,0,4918,1,White_Screen.jpg,4,158,Boat_Dinghy.jpg,4
22420,15:12:20,36,36,5.0.14.0,2,93,trial1,naming,0,0,0,0,tub,0,4273,1,White_Screen.jpg,6,44,Boat_Row.jpg,6
22420,15:12:20,36,36,5.0.14.0,2,94,trial1,naming,0,0,0,0,axe,0,2187,1,White_Screen.jpg,4,58,Axe.jpg,4
22420,15:12:20,36,36,5.0.14.0,2,95,trial1,naming,0,0,0,0,doctor light,0,5975,1,White_Screen.jpg,6,195,Otoscope.jpg,6
22420,15:12:20,36,36,5.0.14.0,2,96,trial1,naming,0,0,0,0,cloth wheel,0,4550,1,White_Screen.jpg,6,189,Distaff.jpg,6
22420,15:12:20,36,36,5.0.14.0,2,97,trial1,naming,0,0,0,0,grapes,0,3022,1,White_Screen.jpg,5,95,Grape.jpg,5
22420,15:12:20,36,36,5.0.14.0,2,98,trial1,naming,0,0,0,0,eggs,0,2892,1,White_Screen.jpg,4,30,CartonEggs.jpg,4
22420,15:12:20,36,36,5.0.14.0,2,99,trial1,naming,0,0,0,0,newspapers,0,2984,1,White_Screen.jpg,4,181,NewspaperStack.jpg,4
22420,15:12:20,36,36,5.0.14.0,2,100,trial1,naming,0,0,0,0,duck,0,3011,1,White_Screen.jpg,5,137,Goose_Canadian.jpg,5
22420,15:12:20,36,36,5.0.14.0,2,101,trial1,naming,0,0,0,0,metal gear,0,7933,1,White_Screen.jpg,4,175,PaintSprayer.jpg,4
22420,15:12:20,36,36,5.0.14.0,2,103,trial1,naming,0,0,0,0,tape recorder,0,6020,1,White_Screen.jpg,5,83,RecorderCassette.jpg,5
22420,15:12:20,36,36,5.0.14.0,2,104,trial1,naming,0,0,0,0,color paper,0,3439,1,White_Screen.jpg,3,98,OrigamiPaper.jpg,3
22420,15:12:20,36,36,5.0.14.0,2,105,trial1,naming,0,0,0,0,gas canteen,0,3438,1,White_Screen.jpg,4,73,Can_Gas.jpg,4
22420,15:12:20,36,36,5.0.14.0,2,106,trial1,naming,0,0,0,0,pickle,0,3408,1,White_Screen.jpg,3,104,Pickle.jpg,3
22420,15:12:20,36,36,5.0.14.0,2,107,trial1,naming,0,0,0,0,broom,0,2826,1,White_Screen.jpg,5,75,Broom_Long.jpg,5
22420,15:12:20,36,36,5.0.14.0,2,108,trial1,naming,0,0,0,0,condom,0,3083,1,White_Screen.jpg,5,187,Condom.jpg,5
22420,15:12:20,36,36,5.0.14.0,2,109,trial1,naming,0,0,0,0,drum,0,3159,1,White_Screen.jpg,5,148,Drum_Ramadan.jpg,5
22420,15:12:20,36,36,5.0.14.0,2,110,trial1,naming,0,0,0,0,makeup,0,7184,1,White_Screen.jpg,5,176,VialLab.jpg,5
22420,15:12:20,36,36,5.0.14.0,2,111,trial1,naming,0,0,0,0,watch,0,2902,1,White_Screen.jpg,6,127,Watch.jpg,6
22420,15:12:20,36,36,5.0.14.0,2,112,trial1,naming,0,0,0,0,chair,0,2335,1,White_Screen.jpg,7,66,Chair_Dining.jpg,7
22420,15:12:20,36,36,5.0.14.0,2,113,trial1,naming,0,0,0,0,garlic clove,0,3697,1,White_Screen.jpg,5,10,Garlic_Clove.jpg,5
22420,15:12:20,36,36,5.0.14.0,2,114,trial1,naming,0,0,0,0,metal pipe,0,5297,1,White_Screen.jpg,4,81,Tube.jpg,4
22420,15:12:20,36,36,5.0.14.0,2,115,trial1,naming,0,0,0,0,chair,0,2433,1,White_Screen.jpg,4,173,Chair_Rocking.jpg,4
22420,15:12:20,36,36,5.0.14.0,2,116,trial1,naming,0,0,0,0,chive,0,3273,1,White_Screen.jpg,5,183,Dill.jpg,5
22420,15:12:20,36,36,5.0.14.0,2,117,trial1,naming,0,0,0,0,wine glass,0,4114,1,White_Screen.jpg,4,28,Glass_Martini.jpg,4
22420,15:12:20,36,36,5.0.14.0,2,118,trial1,naming,0,0,0,0,scorpion,0,3038,1,White_Screen.jpg,5,46,Scorpion.jpg,5
22420,15:12:20,36,36,5.0.14.0,2,119,trial1,naming,0,0,0,0,egyptian cat,0,4393,1,White_Screen.jpg,4,18,Statue_Cat.jpg,4
22420,15:12:20,36,36,5.0.14.0,2,120,trial1,naming,0,0,0,0,stamps,0,2673,1,White_Screen.jpg,5,85,PostageStamps.jpg,5
22420,15:12:20,36,36,5.0.14.0,2,121,trial1,naming,0,0,0,0,glass rings,0,5941,1,White_Screen.jpg,4,33,Lens_ColourFilter.jpg,4
22420,15:12:20,36,36,5.0.14.0,2,122,trial1,naming,0,0,0,0,sand castle,0,2993,1,White_Screen.jpg,4,103,Sandcastle.jpg,4
22420,15:12:20,36,36,5.0.14.0,2,123,trial1,naming,0,0,0,0,cap,0,3368,1,White_Screen.jpg,4,14,Hat_Visor.jpg,4
22420,15:12:20,36,36,5.0.14.0,2,124,trial1,naming,0,0,0,0,fishing hook,0,4260,1,White_Screen.jpg,6,22,Hook_Fishing.jpg,6
22420,15:12:20,36,36,5.0.14.0,2,125,trial1,naming,0,0,0,0,witch doll,0,3950,1,White_Screen.jpg,5,160,Toy_Witch.jpg,5
22420,15:12:20,36,36,5.0.14.0,2,126,trial1,naming,0,0,0,0,maple syrup,0,4851,1,White_Screen.jpg,6,27,Syrup_Maple.jpg,6
22420,15:12:20,36,36,5.0.14.0,2,127,trial1,naming,0,0,0,0,fruit cup,0,3724,1,White_Screen.jpg,4,125,Cup_Fruits.jpg,4
22420,15:12:20,36,36,5.0.14.0,2,128,trial1,naming,0,0,0,0,wooden bowl,0,4736,1,White_Screen.jpg,4,179,Plate_Wooden.jpg,4
22420,15:12:20,36,36,5.0.14.0,2,129,trial1,naming,0,0,0,0,water spray,0,3284,1,White_Screen.jpg,5,174,Bottle_Spray.jpg,5
22420,15:12:20,36,36,5.0.14.0,2,130,trial1,naming,0,0,0,0,spoon,0,3001,1,White_Screen.jpg,6,32,Spoon_Baby.jpg,6
22420,15:12:20,36,36,5.0.14.0,2,131,trial1,naming,0,0,0,0,vest,0,2176,1,White_Screen.jpg,6,111,Vest.jpg,6
22420,15:12:20,36,36,5.0.14.0,2,132,trial1,naming,0,0,0,0,long skirt,0,3663,1,White_Screen.jpg,5,182,Skirt_Long.jpg,5
22420,15:12:20,36,36,5.0.14.0,2,133,trial1,naming,0,0,0,0,cabbage,0,2984,1,White_Screen.jpg,5,94,Lettuce_Iceberg.jpg,5
22420,15:12:20,36,36,5.0.14.0,2,134,trial1,naming,0,0,0,0,tire,0,2291,1,White_Screen.jpg,6,48,Tire_Hollow.jpg,6
22420,15:12:20,36,36,5.0.14.0,2,135,trial1,naming,0,0,0,0,plant,0,2870,1,White_Screen.jpg,6,96,Shrub_Boxwood.jpg,6
22420,15:12:20,36,36,5.0.14.0,2,136,trial1,naming,0,0,0,0,clock tower,0,4114,1,White_Screen.jpg,5,199,Steeple.jpg,5
22420,15:12:20,36,36,5.0.14.0,2,137,trial1,naming,0,0,0,0,Play-Doh,0,4138,1,White_Screen.jpg,5,86,Playdoh.jpg,5
22420,15:12:20,36,36,5.0.14.0,2,138,trial1,naming,0,0,0,0,water pump,0,5388,1,White_Screen.jpg,5,105,HoseNozzle.jpg,5
22420,15:12:20,36,36,5.0.14.0,2,139,trial1,naming,0,0,0,0,grocery,0,3475,1,White_Screen.jpg,5,133,Bag_Groceries.jpg,5
22420,15:12:20,36,36,5.0.14.0,2,140,trial1,naming,0,0,0,0,hook,0,4276,1,White_Screen.jpg,4,24,Hook_Ceiling.jpg,4
22420,15:12:20,36,36,5.0.14.0,2,141,trial1,naming,0,0,0,0,celery,0,2968,1,White_Screen.jpg,4,154,Celery.jpg,4
22420,15:12:20,36,36,5.0.14.0,2,142,trial1,naming,0,0,0,0,churner,0,3608,1,White_Screen.jpg,8,99,ButterChurn.jpg,8
22420,15:12:20,36,36,5.0.14.0,2,143,trial1,naming,0,0,0,0,hotdog,0,2578,1,White_Screen.jpg,5,114,Hotdog_WithBun.jpg,5
22420,15:12:20,36,36,5.0.14.0,2,144,trial1,naming,0,0,0,0,paint brush,0,3604,1,White_Screen.jpg,6,138,Brush_Paint.jpg,6
22420,15:12:20,36,36,5.0.14.0,2,145,trial1,naming,0,0,0,0,wooden bat,0,2863,1,White_Screen.jpg,3,87,Bat_Baseball.jpg,3
22420,15:12:20,36,36,5.0.14.0,2,146,trial1,naming,0,0,0,0,hot stones,0,4123,1,White_Screen.jpg,5,152,Stone_Spa.jpg,5
22420,15:12:20,36,36,5.0.14.0,2,147,trial1,naming,0,0,0,0,scoper,0,3785,1,White_Screen.jpg,5,155,Scoop_Flour.jpg,5
22420,15:12:20,36,36,5.0.14.0,2,148,trial1,naming,0,0,0,0,harp,0,2337,1,White_Screen.jpg,6,47,Harp.jpg,6
22420,15:12:20,36,36,5.0.14.0,2,149,trial1,naming,0,0,0,0,baby strap,0,6157,1,White_Screen.jpg,4,118,DiaperChangingStation.jpg,4
22420,15:12:20,36,36,5.0.14.0,2,150,trial1,naming,0,0,0,0,door hole,0,4371,1,White_Screen.jpg,5,36,Keyhole.jpg,5
22420,15:12:20,36,36,5.0.14.0,2,151,trial1,naming,0,0,0,0,feet,0,2118,1,White_Screen.jpg,5,194,Feet.jpg,5
22420,15:12:20,36,36,5.0.14.0,2,152,trial1,naming,0,0,0,0,bullet,0,3258,1,White_Screen.jpg,6,82,Thermos_MetalSleek.jpg,6
22420,15:12:20,36,36,5.0.14.0,2,154,trial1,naming,0,0,0,0,tree,0,5880,1,White_Screen.jpg,4,7,Tree_Fir.jpg,4
22420,15:12:20,36,36,5.0.14.0,2,155,trial1,naming,0,0,0,0,gas canteen,0,5634,1,White_Screen.jpg,6,11,Can_GasSpout.jpg,6
22420,15:12:20,36,36,5.0.14.0,2,156,trial1,naming,0,0,0,0,business man,0,4079,1,White_Screen.jpg,7,112,Man.jpg,7
22420,15:12:20,36,36,5.0.14.0,2,157,trial1,naming,0,0,0,0,chariot,0,5025,1,White_Screen.jpg,4,91,RickShaw.jpg,4
22420,15:12:20,36,36,5.0.14.0,2,158,trial1,naming,0,0,0,0,measuring spoons,0,5757,1,White_Screen.jpg,5,23,Spoons_MeasuringDetached.jpg,5
22420,15:12:20,36,36,5.0.14.0,2,159,trial1,naming,0,0,0,0,oven,0,2684,1,White_Screen.jpg,5,92,Stove_WithOven.jpg,5
22420,15:12:20,36,36,5.0.14.0,2,160,trial1,naming,0,0,0,0,pitcher,0,2838,1,White_Screen.jpg,7,119,Kettle.jpg,7
22420,15:12:20,36,36,5.0.14.0,2,161,trial1,naming,0,0,0,0,glass bottle,0,3224,1,White_Screen.jpg,5,109,Glass_bottle.jpg,5
22420,15:12:20,36,36,5.0.14.0,2,162,trial1,naming,0,0,0,0,dynamite,0,2938,1,White_Screen.jpg,5,38,Dynamite.jpg,5
22420,15:12:20,36,36,5.0.14.0,2,163,trial1,naming,0,0,0,0,leafs,0,3016,1,White_Screen.jpg,4,53,Decoration_WallOrnament.jpg,4
22420,15:12:20,36,36,5.0.14.0,2,164,trial1,naming,0,0,0,0,mirror,0,3065,1,White_Screen.jpg,5,2,Frame_Oval.jpg,5
22420,15:12:20,36,36,5.0.14.0,2,165,trial1,naming,0,0,0,0,knife holder,0,4123,1,White_Screen.jpg,4,163,KnifeHolder.jpg,4
22420,15:12:20,36,36,5.0.14.0,2,166,trial1,naming,0,0,0,0,walking chair,0,5225,1,White_Screen.jpg,5,61,Chair_MedicalToilet.jpg,5
22420,15:12:20,36,36,5.0.14.0,2,167,trial1,naming,0,0,0,0,washing machine,0,4710,1,White_Screen.jpg,5,168,DryingMachine.jpg,5
22420,15:12:20,36,36,5.0.14.0,2,168,trial1,naming,0,0,0,0,bike seat,0,2777,1,White_Screen.jpg,5,17,BicycleSeat.jpg,5
22420,15:12:20,36,36,5.0.14.0,2,169,trial1,naming,0,0,0,0,construction machine,0,5949,1,White_Screen.jpg,5,165,Backhoe.jpg,5
22420,15:12:20,36,36,5.0.14.0,2,170,trial1,naming,0,0,0,0,headset,0,2618,1,White_Screen.jpg,5,141,Headset.jpg,5
22420,15:12:20,36,36,5.0.14.0,2,171,trial1,naming,0,0,0,0,hamster,0,4528,1,White_Screen.jpg,6,76,GuineaPig.jpg,6
22420,15:12:20,36,36,5.0.14.0,2,172,trial1,naming,0,0,0,0,medical water bottle,0,6309,1,White_Screen.jpg,6,60,Bag_Saline.jpg,6
22420,15:12:20,36,36,5.0.14.0,2,173,trial1,naming,0,0,0,0,donkey,0,2749,1,White_Screen.jpg,8,135,Toy_DonkeyPlastic.jpg,8
22420,15:12:20,36,36,5.0.14.0,2,174,trial1,naming,0,0,0,0,light,0,7464,1,White_Screen.jpg,8,100,MannequinBust.jpg,8
22420,15:12:20,36,36,5.0.14.0,2,175,trial1,naming,0,0,0,0,scooper,0,4614,1,White_Screen.jpg,6,162,Trowel.jpg,6
22420,15:12:20,36,36,5.0.14.0,2,176,trial1,naming,0,0,0,0,biscuit,0,3412,1,White_Screen.jpg,4,34,EnglishMuffin.jpg,4
22420,15:12:20,36,36,5.0.14.0,2,177,trial1,naming,0,0,0,0,roller,0,5848,1,White_Screen.jpg,5,143,Steamroller.jpg,5
22420,15:12:20,36,36,5.0.14.0,2,178,trial1,naming,0,0,0,0,umbrella,0,3264,1,White_Screen.jpg,4,93,Umbrella_Classic.jpg,4
22420,15:12:20,36,36,5.0.14.0,2,179,trial1,naming,0,0,0,0,water pipe,0,6807,1,White_Screen.jpg,5,4,Pipe_Drain.jpg,5
22420,15:12:20,36,36,5.0.14.0,2,180,trial1,naming,0,0,0,0,pitch pipe,0,4653,1,White_Screen.jpg,4,188,Pipe_Pitch.jpg,4
22420,15:12:20,36,36,5.0.14.0,2,181,trial1,naming,0,0,0,0,broom,0,2773,1,White_Screen.jpg,3,15,Brush_Toilet.jpg,3
22420,15:12:20,36,36,5.0.14.0,2,182,trial1,naming,0,0,0,0,lego blocks,0,3332,1,White_Screen.jpg,4,88,Toys_Lego.jpg,4
22420,15:12:20,36,36,5.0.14.0,2,183,trial1,naming,0,0,0,0,construction machine,0,5438,1,White_Screen.jpg,7,126,CraneMachine.jpg,7
22420,15:12:20,36,36,5.0.14.0,2,184,trial1,naming,0,0,0,0,parachute,0,3456,1,White_Screen.jpg,5,134,Paratrooper.jpg,5
22420,15:12:20,36,36,5.0.14.0,2,185,trial1,naming,0,0,0,0,brief case,0,4517,1,White_Screen.jpg,5,115,Suitcase.jpg,5
22420,15:12:20,36,36,5.0.14.0,2,186,trial1,naming,0,0,0,0,statue,0,2972,1,White_Screen.jpg,6,20,Statue_Man.jpg,6
22420,15:12:20,36,36,5.0.14.0,2,187,trial1,naming,0,0,0,0,baby stroller,0,3342,1,White_Screen.jpg,4,25,Stroller.jpg,4
22420,15:12:20,36,36,5.0.14.0,2,188,trial1,naming,0,0,0,0,baking cuo,0,5191,1,White_Screen.jpg,6,145,Ramekin.jpg,6
22420,15:12:20,36,36,5.0.14.0,2,189,trial1,naming,0,0,0,0,engine,0,3795,1,White_Screen.jpg,4,107,AirCompressor.jpg,4
22420,15:12:20,36,36,5.0.14.0,2,190,trial1,naming,0,0,0,0,table,0,3194,1,White_Screen.jpg,5,43,Table_Side.jpg,5
22420,15:12:20,36,36,5.0.14.0,2,191,trial1,naming,0,0,0,0,hotdog,0,2936,1,White_Screen.jpg,6,63,Hotdog_Weiner.jpg,6
22420,15:12:20,36,36,5.0.14.0,2,192,trial1,naming,0,0,0,0,remote controller,0,3518,1,White_Screen.jpg,4,80,RemoteControl.jpg,4
22420,15:12:20,36,36,5.0.14.0,2,193,trial1,naming,0,0,0,0,gas canteen,0,3394,1,White_Screen.jpg,7,62,Jug_GallonRed.jpg,7
22420,15:12:20,36,36,5.0.14.0,2,194,trial1,naming,0,0,0,0,cup,0,3097,1,White_Screen.jpg,5,156,Mug_Beer.jpg,5
22420,15:12:20,36,36,5.0.14.0,2,195,trial1,naming,0,0,0,0,ruler,0,3591,1,White_Screen.jpg,6,8,Ruler_Triangle.jpg,6
22420,15:12:20,36,36,5.0.14.0,2,196,trial1,naming,0,0,0,0,chinese ornament ,0,4855,1,White_Screen.jpg,4,130,Decoration_Chinese.jpg,4
22420,15:12:20,36,36,5.0.14.0,2,197,trial1,naming,0,0,0,0,vegetable,0,4529,1,White_Screen.jpg,4,110,Pasta_Fusilli.jpg,4
22420,15:12:20,36,36,5.0.14.0,2,198,trial1,naming,0,0,0,0,roller skates,0,3130,1,White_Screen.jpg,5,54,RollerBlade.jpg,5
22420,15:12:20,36,36,5.0.14.0,2,199,trial1,naming,0,0,0,0,stairs,0,2357,1,White_Screen.jpg,7,197,Staircase_Straight.jpg,7
22420,15:12:20,36,36,5.0.14.0,2,200,trial1,naming,0,0,0,0,exotic cup,0,6233,1,White_Screen.jpg,5,120,Hookah.jpg,5
22420,15:12:20,36,36,5.0.14.0,2,201,trial1,naming,0,0,0,0,bag of flowers,0,5357,1,White_Screen.jpg,6,129,Pouch_PotPourri.jpg,6
22420,15:12:20,36,36,5.0.14.0,2,202,trial1,naming,0,0,0,0,sea horse,0,3544,1,White_Screen.jpg,5,55,Seahorse.jpg,5
22420,15:12:20,36,36,5.0.14.0,2,203,trial1,naming,0,0,0,0,tv,0,2130,1,White_Screen.jpg,6,157,Television.jpg,6
22420,15:12:20,36,36,5.0.14.0,3,1,demographics_block,gender,0,0,0,0,male,1,11238,0,0,0,0,0,0
22420,15:12:20,36,36,5.0.14.0,3,1,demographics_block,age,0,0,0,0,23,1,11238,0,0,0,0,0,0
22420,15:12:20,36,36,5.0.14.0,3,1,demographics_block,education,0,0,0,0,17,1,11238,0,0,0,0,0,0
22420,15:12:20,36,36,5.0.14.0,3,2,demographics_block,left_right_handed,0,0,0,0,Right,1,6861,0,0,0,0,0,0
22420,15:12:20,36,36,5.0.14.0,3,2,demographics_block,raceoption1,0,0,0,0,,1,6861,0,0,0,0,0,0
22420,15:12:20,36,36,5.0.14.0,3,2,demographics_block,raceoption2,0,0,0,0,,1,6861,0,0,0,0,0,0
22420,15:12:20,36,36,5.0.14.0,3,2,demographics_block,raceoption3,0,0,0,0,,1,6861,0,0,0,0,0,0
22420,15:12:20,36,36,5.0.14.0,3,2,demographics_block,raceoption4,0,0,0,0,,1,6861,0,0,0,0,0,0
22420,15:12:20,36,36,5.0.14.0,3,2,demographics_block,raceoption5,0,0,0,0,,1,6861,0,0,0,0,0,0
22420,15:12:20,36,36,5.0.14.0,3,2,demographics_block,raceoption6,0,0,0,0,,1,6861,0,0,0,0,0,0
22420,15:12:20,36,36,5.0.14.0,3,2,demographics_block,raceoption7,0,0,0,0,6,1,6861,0,0,0,0,0,0
22420,15:12:20,36,36,5.0.14.0,3,2,demographics_block,raceoption8,0,0,0,0,,1,6861,0,0,0,0,0,0
22420,15:12:20,36,36,5.0.14.0,3,2,demographics_block,raceoption9,0,0,0,0,,1,6861,0,0,0,0,0,0
22420,15:12:20,36,36,5.0.14.0,3,2,demographics_block,raceother,0,0,0,0,,1,6861,0,0,0,0,0,0
22420,15:12:20,36,36,5.0.14.0,3,2,demographics_block,raceother,0,0,0,0,,1,6861,0,0,0,0,0,0
22420,15:12:20,36,36,5.0.14.0,3,2,demographics_block,english_language,0,0,0,0,Yes,1,6861,0,0,0,0,0,0
22420,15:12:20,36,36,5.0.14.0,3,2,demographics_block,english_languageother,0,0,0,0,,1,6861,0,0,0,0,0,0
22420,15:12:20,36,36,5.0.14.0,3,3,demographics_block,eyesight,0,0,0,0,Yes,1,3361,0,0,0,0,0,0
22420,15:12:20,36,36,5.0.14.0,3,3,demographics_block,colorblind,0,0,0,0,No,1,3361,0,0,0,0,0,0
22420,15:12:20,36,36,5.0.14.0,4,1,worker_id_block,worker_id_textbox,0,0,0,0,A1UZXOMO6BS6I2,1,34553,0,0,0,0,0,0
22420,15:16:04,37,37,5.0.14.0,2,1,trial1,naming,0,0,0,0,Enter Name,0,4875,1,White_Screen.jpg,72,24,Hook_Ceiling.jpg,72
22420,15:16:04,37,37,5.0.14.0,2,2,trial1,naming,0,0,0,0,Enter Name,0,8618,1,White_Screen.jpg,10,143,Steamroller.jpg,10
22420,15:16:04,37,37,5.0.14.0,2,3,trial1,naming,0,0,0,0,remote control,0,9475,1,White_Screen.jpg,10,80,RemoteControl.jpg,10
22420,15:16:04,37,37,5.0.14.0,2,4,trial1,naming,0,0,0,0,spray bottle,0,7564,1,White_Screen.jpg,14,174,Bottle_Spray.jpg,14
22420,15:16:04,37,37,5.0.14.0,2,5,trial1,naming,0,0,0,0,flashlight,0,5489,1,White_Screen.jpg,11,3,BicycleHandleGrip.jpg,11
22420,15:16:04,37,37,5.0.14.0,2,6,trial1,naming,0,0,0,0,ethernet cable,0,5495,1,White_Screen.jpg,10,69,Cord_Ethernet.jpg,10
22420,15:16:04,37,37,5.0.14.0,2,7,trial1,naming,0,0,0,0,Enter Name,0,2206,1,White_Screen.jpg,15,188,Pipe_Pitch.jpg,15
22420,15:16:04,37,37,5.0.14.0,2,8,trial1,naming,0,0,0,0,colored pencil,0,6438,1,White_Screen.jpg,14,5,Pencil.jpg,14
22420,15:16:04,37,37,5.0.14.0,2,9,trial1,naming,0,0,0,0,garlic,0,6047,1,White_Screen.jpg,12,10,Garlic_Clove.jpg,12
22420,15:16:04,37,37,5.0.14.0,2,10,trial1,naming,0,0,0,0,umbrella,0,4055,1,White_Screen.jpg,9,93,Umbrella_Classic.jpg,9
22420,15:16:04,37,37,5.0.14.0,2,11,trial1,naming,0,0,0,0,maple syrup,0,5100,1,White_Screen.jpg,11,27,Syrup_Maple.jpg,11
22420,15:16:04,37,37,5.0.14.0,2,12,trial1,naming,0,0,0,0,onion,0,6479,1,White_Screen.jpg,11,142,Leek.jpg,11
22420,15:16:04,37,37,5.0.14.0,2,13,trial1,naming,0,0,0,0,headphone,0,5893,1,White_Screen.jpg,10,141,Headset.jpg,10
22420,15:16:04,37,37,5.0.14.0,2,14,trial1,naming,0,0,0,0,toy pony,0,4136,1,White_Screen.jpg,12,131,Toy_RockingHorseBeige.jpg,12
22420,15:16:04,37,37,5.0.14.0,2,15,trial1,naming,0,0,0,0,salt shaker,0,4243,1,White_Screen.jpg,10,102,SaltShaker.jpg,10
22420,15:16:04,37,37,5.0.14.0,2,16,trial1,naming,0,0,0,0,cup,0,3151,1,White_Screen.jpg,13,156,Mug_Beer.jpg,13
22420,15:16:04,37,37,5.0.14.0,2,17,trial1,naming,0,0,0,0,hot dog,0,4131,1,White_Screen.jpg,10,63,Hotdog_Weiner.jpg,10
22420,15:16:04,37,37,5.0.14.0,2,18,trial1,naming,0,0,0,0,kernals ,0,7949,1,White_Screen.jpg,11,89,PeasSplit.jpg,11
22420,15:16:04,37,37,5.0.14.0,2,19,trial1,naming,0,0,0,0,steps,0,2728,1,White_Screen.jpg,11,197,Staircase_Straight.jpg,11
22420,15:16:04,37,37,5.0.14.0,2,20,trial1,naming,0,0,0,0,measuring spoons ,0,8929,1,White_Screen.jpg,11,23,Spoons_MeasuringDetached.jpg,11
22420,15:16:04,37,37,5.0.14.0,2,21,trial1,naming,0,0,0,0,desk/chair,0,6967,1,White_Screen.jpg,8,40,Chair_Student.jpg,8
22420,15:16:04,37,37,5.0.14.0,2,22,trial1,naming,0,0,0,0,plate,0,3135,1,White_Screen.jpg,10,72,Plate_Decorative.jpg,10
22420,15:16:04,37,37,5.0.14.0,2,23,trial1,naming,0,0,0,0,broom,0,3208,1,White_Screen.jpg,10,75,Broom_Long.jpg,10
22420,15:16:04,37,37,5.0.14.0,2,24,trial1,naming,0,0,0,0,apple,0,3263,1,White_Screen.jpg,10,29,Peach.jpg,10
22420,15:16:04,37,37,5.0.14.0,2,25,trial1,naming,0,0,0,0,statue,0,3430,1,White_Screen.jpg,8,20,Statue_Man.jpg,8
22420,15:16:04,37,37,5.0.14.0,2,26,trial1,naming,0,0,0,0,sand castle,0,5904,1,White_Screen.jpg,13,103,Sandcastle.jpg,13
22420,15:16:04,37,37,5.0.14.0,2,27,trial1,naming,0,0,0,0,explosives,0,4127,1,White_Screen.jpg,10,38,Dynamite.jpg,10
22420,15:16:04,37,37,5.0.14.0,2,28,trial1,naming,0,0,0,0,lego,0,4224,1,White_Screen.jpg,12,88,Toys_Lego.jpg,12
22420,15:16:04,37,37,5.0.14.0,2,29,trial1,naming,0,0,0,0,cow,0,2766,1,White_Screen.jpg,12,9,Cow.jpg,12
22420,15:16:04,37,37,5.0.14.0,2,30,trial1,naming,0,0,0,0,magnify glass,0,8954,1,White_Screen.jpg,10,196,Magnifying_Glass.jpg,10
22420,15:16:04,37,37,5.0.14.0,2,31,trial1,naming,0,0,0,0,dresser,0,4100,1,White_Screen.jpg,10,31,Wardrobe.jpg,10
22420,15:16:04,37,37,5.0.14.0,2,32,trial1,naming,0,0,0,0,coconut,0,5728,1,White_Screen.jpg,10,59,Kiwi.jpg,10
22420,15:16:04,37,37,5.0.14.0,2,33,trial1,naming,0,0,0,0,,0,4315,1,White_Screen.jpg,14,100,MannequinBust.jpg,14
22420,15:16:04,37,37,5.0.14.0,2,34,trial1,naming,0,0,0,0,egg,0,3645,1,White_Screen.jpg,10,37,Egg_Cup.jpg,10
22420,15:16:04,37,37,5.0.14.0,2,35,trial1,naming,0,0,0,0,sunflower,0,3621,1,White_Screen.jpg,8,185,Flower_Daisy.jpg,8
22420,15:16:04,37,37,5.0.14.0,2,36,trial1,naming,0,0,0,0,building,0,3672,1,White_Screen.jpg,11,199,Steeple.jpg,11
22420,15:16:04,37,37,5.0.14.0,2,37,trial1,naming,0,0,0,0,tire,0,2846,1,White_Screen.jpg,10,48,Tire_Hollow.jpg,10
22420,15:16:04,37,37,5.0.14.0,2,38,trial1,naming,0,0,0,0,Enter Name,0,1732,1,White_Screen.jpg,15,195,Otoscope.jpg,15
22420,15:16:04,37,37,5.0.14.0,2,39,trial1,naming,0,0,0,0,suitcase,0,2998,1,White_Screen.jpg,10,115,Suitcase.jpg,10
22420,15:16:04,37,37,5.0.14.0,2,40,trial1,naming,0,0,0,0,Enter Name,0,2289,1,White_Screen.jpg,11,98,OrigamiPaper.jpg,11
22420,15:16:04,37,37,5.0.14.0,2,41,trial1,naming,0,0,0,0,branches,0,4784,1,White_Screen.jpg,11,53,Decoration_WallOrnament.jpg,11
22420,15:16:04,37,37,5.0.14.0,2,42,trial1,naming,0,0,0,0,Enter Name,0,1398,1,White_Screen.jpg,10,132,Tweezers.jpg,10
22420,15:16:04,37,37,5.0.14.0,2,43,trial1,naming,0,0,0,0,bowl,0,2737,1,White_Screen.jpg,10,65,Glass_Bowl.jpg,10
22420,15:16:04,37,37,5.0.14.0,2,44,trial1,naming,0,0,0,0,crane,0,2889,1,White_Screen.jpg,11,126,CraneMachine.jpg,11
22420,15:16:04,37,37,5.0.14.0,2,45,trial1,naming,0,0,0,0,dog bed,0,5239,1,White_Screen.jpg,10,57,Brace_Neck.jpg,10
22420,15:16:04,37,37,5.0.14.0,2,46,trial1,naming,0,0,0,0,feet,0,2957,1,White_Screen.jpg,10,194,Feet.jpg,10
22420,15:16:04,37,37,5.0.14.0,2,47,trial1,naming,0,0,0,0,man,0,3134,1,White_Screen.jpg,11,112,Man.jpg,11
22420,15:16:04,37,37,5.0.14.0,2,48,trial1,naming,0,0,0,0,watch your step,0,8062,1,White_Screen.jpg,12,77,Sign_Wetfloor.jpg,12
22420,15:16:04,37,37,5.0.14.0,2,49,trial1,naming,0,0,0,0,traffic lights,0,5045,1,White_Screen.jpg,11,180,Light_Traffic.jpg,11
22420,15:16:04,37,37,5.0.14.0,2,50,trial1,naming,0,0,0,0,witch,0,3072,1,White_Screen.jpg,15,160,Toy_Witch.jpg,15
22420,15:16:04,37,37,5.0.14.0,2,52,trial1,naming,0,0,0,0,hose,0,3902,1,White_Screen.jpg,8,105,HoseNozzle.jpg,8
22420,15:16:04,37,37,5.0.14.0,2,53,trial1,naming,0,0,0,0,Enter Name,0,1549,1,White_Screen.jpg,10,146,Exercise_HandTrainer.jpg,10
22420,15:16:04,37,37,5.0.14.0,2,54,trial1,naming,0,0,0,0,bike seat,0,3921,1,White_Screen.jpg,10,17,BicycleSeat.jpg,10
22420,15:16:04,37,37,5.0.14.0,2,55,trial1,naming,0,0,0,0,Enter Name,0,1465,1,White_Screen.jpg,10,82,Thermos_MetalSleek.jpg,10
22420,15:16:04,37,37,5.0.14.0,2,56,trial1,naming,0,0,0,0,onion rings,0,6961,1,White_Screen.jpg,9,161,OnionRings.jpg,9
22420,15:16:04,37,37,5.0.14.0,2,57,trial1,naming,0,0,0,0,chair,0,3007,1,White_Screen.jpg,14,173,Chair_Rocking.jpg,14
22420,15:16:04,37,37,5.0.14.0,2,58,trial1,naming,0,0,0,0,puppet,0,8167,1,White_Screen.jpg,14,79,MonkeyPuppet.jpg,14
22420,15:16:04,37,37,5.0.14.0,2,59,trial1,naming,0,0,0,0,Enter Name,0,1728,1,White_Screen.jpg,10,154,Celery.jpg,10
22420,15:16:04,37,37,5.0.14.0,2,60,trial1,naming,0,0,0,0,stamp,0,8074,1,White_Screen.jpg,15,85,PostageStamps.jpg,15
22420,15:16:04,37,37,5.0.14.0,2,61,trial1,naming,0,0,0,0,scorpion ,0,5022,1,White_Screen.jpg,14,46,Scorpion.jpg,14
22420,15:16:04,37,37,5.0.14.0,2,62,trial1,naming,0,0,0,0,Enter Name,0,1620,1,White_Screen.jpg,12,149,Noisemaker.jpg,12
22420,15:16:04,37,37,5.0.14.0,2,63,trial1,naming,0,0,0,0,steak,0,4504,1,White_Screen.jpg,11,191,MeatRaw.jpg,11
22420,15:16:04,37,37,5.0.14.0,2,64,trial1,naming,0,0,0,0,Enter Name,0,1647,1,White_Screen.jpg,11,170,DentistOverheadLight.jpg,11
22420,15:16:04,37,37,5.0.14.0,2,65,trial1,naming,0,0,0,0,Enter Name,0,1111,1,White_Screen.jpg,8,15,Brush_Toilet.jpg,8
22420,15:16:04,37,37,5.0.14.0,2,66,trial1,naming,0,0,0,0,excavation machine,0,6684,1,White_Screen.jpg,10,165,Backhoe.jpg,10
22420,15:16:04,37,37,5.0.14.0,2,67,trial1,naming,0,0,0,0,speed limit sign,0,5143,1,White_Screen.jpg,11,124,Sign_SpeedLimit25.jpg,11
22420,15:16:04,37,37,5.0.14.0,2,68,trial1,naming,0,0,0,0,portable gas container ,0,6023,1,White_Screen.jpg,15,11,Can_GasSpout.jpg,15
22420,15:16:04,37,37,5.0.14.0,2,69,trial1,naming,0,0,0,0,fishing hook,0,4303,1,White_Screen.jpg,22,22,Hook_Fishing.jpg,22
22420,15:16:04,37,37,5.0.14.0,2,70,trial1,naming,0,0,0,0,Enter Name,0,1398,1,White_Screen.jpg,21,179,Plate_Wooden.jpg,21
22420,15:16:04,37,37,5.0.14.0,2,71,trial1,naming,0,0,0,0,cookies in a jar,0,5457,1,White_Screen.jpg,14,198,Jar_Cookie.jpg,14
22420,15:16:04,37,37,5.0.14.0,2,72,trial1,naming,0,0,0,0,football jersey,0,6219,1,White_Screen.jpg,9,12,Shirt_SportsJersey.jpg,9
22420,15:16:04,37,37,5.0.14.0,2,73,trial1,naming,0,0,0,0,payphone,0,4176,1,White_Screen.jpg,10,42,Phone_Public.jpg,10
22420,15:16:04,37,37,5.0.14.0,2,74,trial1,naming,0,0,0,0,christmas tree,0,5041,1,White_Screen.jpg,13,7,Tree_Fir.jpg,13
22420,15:16:04,37,37,5.0.14.0,2,75,trial1,naming,0,0,0,0,razor,0,3167,1,White_Screen.jpg,10,84,Razor.jpg,10
22420,15:16:04,37,37,5.0.14.0,2,76,trial1,naming,0,0,0,0,boat,0,3368,1,White_Screen.jpg,10,44,Boat_Row.jpg,10
22420,15:16:04,37,37,5.0.14.0,2,77,trial1,naming,0,0,0,0,Enter Name,0,1293,1,White_Screen.jpg,10,8,Ruler_Triangle.jpg,10
22420,15:16:04,37,37,5.0.14.0,2,78,trial1,naming,0,0,0,0,high heels,0,3690,1,White_Screen.jpg,12,123,Shoe_Pink.jpg,12
22420,15:16:04,37,37,5.0.14.0,2,79,trial1,naming,0,0,0,0,Enter Name,0,1402,1,White_Screen.jpg,12,183,Dill.jpg,12
22420,15:16:04,37,37,5.0.14.0,2,80,trial1,naming,0,0,0,0,goggles,0,2638,1,White_Screen.jpg,11,171,GogglesSwim.jpg,11
22420,15:16:04,37,37,5.0.14.0,2,81,trial1,naming,0,0,0,0,shield,0,4005,1,White_Screen.jpg,10,49,Shield_Antique.jpg,10
22420,15:16:04,37,37,5.0.14.0,2,82,trial1,naming,0,0,0,0,gym bag,0,5557,1,White_Screen.jpg,10,26,Bag_Gym.jpg,10
22420,15:16:04,37,37,5.0.14.0,2,83,trial1,naming,0,0,0,0,hand soap,0,4207,1,White_Screen.jpg,10,186,SoapBottle.jpg,10
22420,15:16:04,37,37,5.0.14.0,2,84,trial1,naming,0,0,0,0,girble ,0,4430,1,White_Screen.jpg,10,76,GuineaPig.jpg,10
22420,15:16:04,37,37,5.0.14.0,2,85,trial1,naming,0,0,0,0,packing tape,0,4580,1,White_Screen.jpg,10,68,Tape_Dispenser.jpg,10
22420,15:16:04,37,37,5.0.14.0,2,86,trial1,naming,0,0,0,0,condom,0,2998,1,White_Screen.jpg,9,187,Condom.jpg,9
22420,15:16:04,37,37,5.0.14.0,2,87,trial1,naming,0,0,0,0,gutter,0,3070,1,White_Screen.jpg,8,4,Pipe_Drain.jpg,8
22420,15:16:04,37,37,5.0.14.0,2,88,trial1,naming,0,0,0,0,pickle,0,3217,1,White_Screen.jpg,10,104,Pickle.jpg,10
22420,15:16:04,37,37,5.0.14.0,2,89,trial1,naming,0,0,0,0,motherboard,0,3848,1,White_Screen.jpg,10,16,Computer_ExpansionCard.jpg,10
22420,15:16:04,37,37,5.0.14.0,2,90,trial1,naming,0,0,0,0,pencil sharpener ,0,6623,1,White_Screen.jpg,8,19,MeatGrinder.jpg,8
22420,15:16:04,37,37,5.0.14.0,2,91,trial1,naming,0,0,0,0,peas,0,2612,1,White_Screen.jpg,10,164,Can_Peas.jpg,10
22420,15:16:04,37,37,5.0.14.0,2,92,trial1,naming,0,0,0,0,shoes,0,2653,1,White_Screen.jpg,17,117,Shoes_Pumps.jpg,17
22420,15:16:04,37,37,5.0.14.0,2,93,trial1,naming,0,0,0,0,parachute,0,3493,1,White_Screen.jpg,14,134,Paratrooper.jpg,14
22420,15:16:04,37,37,5.0.14.0,2,94,trial1,naming,0,0,0,0,sea lion,0,6759,1,White_Screen.jpg,16,55,Seahorse.jpg,16
22420,15:16:04,37,37,5.0.14.0,2,95,trial1,naming,0,0,0,0,Enter Name,0,1474,1,White_Screen.jpg,10,162,Trowel.jpg,10
22420,15:16:04,37,37,5.0.14.0,2,96,trial1,naming,0,0,0,0,light,0,3201,1,White_Screen.jpg,11,116,CandleSnuffer.jpg,11
22420,15:16:04,37,37,5.0.14.0,2,97,trial1,naming,0,0,0,0,igloo,0,2842,1,White_Screen.jpg,10,184,Igloo.jpg,10
22420,15:16:04,37,37,5.0.14.0,2,98,trial1,naming,0,0,0,0,honey,0,3039,1,White_Screen.jpg,11,67,Jar_Honey.jpg,11
22420,15:16:04,37,37,5.0.14.0,2,99,trial1,naming,0,0,0,0,margarita cup,0,6045,1,White_Screen.jpg,10,28,Glass_Martini.jpg,10
22420,15:16:04,37,37,5.0.14.0,2,100,trial1,naming,0,0,0,0,straw,0,3437,1,White_Screen.jpg,17,81,Tube.jpg,17
22420,15:16:04,37,37,5.0.14.0,2,101,trial1,naming,0,0,0,0,hotdog and bun,0,5800,1,White_Screen.jpg,13,114,Hotdog_WithBun.jpg,13
22420,15:16:04,37,37,5.0.14.0,2,103,trial1,naming,0,0,0,0,drum,0,2706,1,White_Screen.jpg,13,148,Drum_Ramadan.jpg,13
22420,15:16:04,37,37,5.0.14.0,2,104,trial1,naming,0,0,0,0,coin register ,0,7863,1,White_Screen.jpg,10,13,CashRegister_Antique.jpg,10
22420,15:16:04,37,37,5.0.14.0,2,105,trial1,naming,0,0,0,0,Enter Name,0,1346,1,White_Screen.jpg,10,110,Pasta_Fusilli.jpg,10
22420,15:16:04,37,37,5.0.14.0,2,106,trial1,naming,0,0,0,0,running shoes,0,4334,1,White_Screen.jpg,10,108,Shoes_Sneakers.jpg,10
22420,15:16:04,37,37,5.0.14.0,2,107,trial1,naming,0,0,0,0,stove,0,5297,1,White_Screen.jpg,10,92,Stove_WithOven.jpg,10
22420,15:16:04,37,37,5.0.14.0,2,108,trial1,naming,0,0,0,0,Enter Name,0,1386,1,White_Screen.jpg,9,99,ButterChurn.jpg,9
22420,15:16:04,37,37,5.0.14.0,2,109,trial1,naming,0,0,0,0,Enter Name,0,1120,1,White_Screen.jpg,10,96,Shrub_Boxwood.jpg,10
22420,15:16:04,37,37,5.0.14.0,2,110,trial1,naming,0,0,0,0,paint roller,0,3726,1,White_Screen.jpg,11,39,PaintRoller.jpg,11
22420,15:16:04,37,37,5.0.14.0,2,111,trial1,naming,0,0,0,0,lipstick,0,3771,1,White_Screen.jpg,16,41,Lipstick.jpg,16
22420,15:16:04,37,37,5.0.14.0,2,112,trial1,naming,0,0,0,0,oil,0,4748,1,White_Screen.jpg,16,176,VialLab.jpg,16
22420,15:16:04,37,37,5.0.14.0,2,113,trial1,naming,0,0,0,0,stroller,0,3492,1,White_Screen.jpg,10,25,Stroller.jpg,10
22420,15:16:04,37,37,5.0.14.0,2,114,trial1,naming,0,0,0,0,lighter fluid,0,4343,1,White_Screen.jpg,11,51,Can_Oblong.jpg,11
22420,15:16:04,37,37,5.0.14.0,2,115,trial1,naming,0,0,0,0,baby monitor,0,5974,1,White_Screen.jpg,14,21,BabyMonitor.jpg,14
22420,15:16:04,37,37,5.0.14.0,2,116,trial1,naming,0,0,0,0,Enter Name,0,1411,1,White_Screen.jpg,14,118,DiaperChangingStation.jpg,14
22420,15:16:04,37,37,5.0.14.0,2,117,trial1,naming,0,0,0,0,watch,0,3992,1,White_Screen.jpg,11,127,Watch.jpg,11
22420,15:16:04,37,37,5.0.14.0,2,118,trial1,naming,0,0,0,0,hookah,0,6484,1,White_Screen.jpg,15,120,Hookah.jpg,15
22420,15:16:04,37,37,5.0.14.0,2,119,trial1,naming,0,0,0,0,gas container ,0,5079,1,White_Screen.jpg,10,73,Can_Gas.jpg,10
22420,15:16:04,37,37,5.0.14.0,2,120,trial1,naming,0,0,0,0,stack of newspapers,0,5022,1,White_Screen.jpg,16,181,NewspaperStack.jpg,16
22420,15:16:04,37,37,5.0.14.0,2,121,trial1,naming,0,0,0,0,lettuce,0,3294,1,White_Screen.jpg,14,94,Lettuce_Iceberg.jpg,14
22420,15:16:04,37,37,5.0.14.0,2,122,trial1,naming,0,0,0,0,knife rack,0,4820,1,White_Screen.jpg,12,163,KnifeHolder.jpg,12
22420,15:16:04,37,37,5.0.14.0,2,123,trial1,naming,0,0,0,0,axe,0,4045,1,White_Screen.jpg,10,58,Axe.jpg,10
22420,15:16:04,37,37,5.0.14.0,2,124,trial1,naming,0,0,0,0,railing,0,4518,1,White_Screen.jpg,16,121,TowelRack_Metal.jpg,16
22420,15:16:04,37,37,5.0.14.0,2,125,trial1,naming,0,0,0,0,brain,0,3022,1,White_Screen.jpg,10,153,BrainSagittal.jpg,10
22420,15:16:04,37,37,5.0.14.0,2,126,trial1,naming,0,0,0,0,paint brush,0,4219,1,White_Screen.jpg,11,138,Brush_Paint.jpg,11
22420,15:16:04,37,37,5.0.14.0,2,127,trial1,naming,0,0,0,0,lock,0,3396,1,White_Screen.jpg,10,36,Keyhole.jpg,10
22420,15:16:04,37,37,5.0.14.0,2,128,trial1,naming,0,0,0,0,vest,0,3216,1,White_Screen.jpg,14,111,Vest.jpg,14
22420,15:16:04,37,37,5.0.14.0,2,129,trial1,naming,0,0,0,0,notebook,0,3258,1,White_Screen.jpg,10,106,Notebook.jpg,10
22420,15:16:04,37,37,5.0.14.0,2,130,trial1,naming,0,0,0,0,Enter Name,0,1931,1,White_Screen.jpg,10,129,Pouch_PotPourri.jpg,10
22420,15:16:04,37,37,5.0.14.0,2,131,trial1,naming,0,0,0,0,ghost,0,2584,1,White_Screen.jpg,12,136,Ghost.jpg,12
22420,15:16:04,37,37,5.0.14.0,2,132,trial1,naming,0,0,0,0,airport sign,0,5498,1,White_Screen.jpg,10,169,Sign_Airport.jpg,10
22420,15:16:04,37,37,5.0.14.0,2,133,trial1,naming,0,0,0,0,kettle,0,2964,1,White_Screen.jpg,11,119,Kettle.jpg,11
22420,15:16:04,37,37,5.0.14.0,2,134,trial1,naming,0,0,0,0,tape recorder,0,5405,1,White_Screen.jpg,11,83,RecorderCassette.jpg,11
22420,15:16:04,37,37,5.0.14.0,2,135,trial1,naming,0,0,0,0,ship,0,2868,1,White_Screen.jpg,11,78,Ship_Model.jpg,11
22420,15:16:04,37,37,5.0.14.0,2,136,trial1,naming,0,0,0,0,generator,0,4899,1,White_Screen.jpg,10,107,AirCompressor.jpg,10
22420,15:16:04,37,37,5.0.14.0,2,137,trial1,naming,0,0,0,0,bird cage,0,4110,1,White_Screen.jpg,10,35,Cage_Bird.jpg,10
22420,15:16:04,37,37,5.0.14.0,2,138,trial1,naming,0,0,0,0,makeup,0,3561,1,White_Screen.jpg,10,71,Makeup_Eyeshadow.jpg,10
22420,15:16:04,37,37,5.0.14.0,2,139,trial1,naming,0,0,0,0,popcorn kernals,0,5326,1,White_Screen.jpg,14,45,Corn_Kernels.jpg,14
22420,15:16:04,37,37,5.0.14.0,2,140,trial1,naming,0,0,0,0,4 leaf clover,0,4190,1,White_Screen.jpg,9,70,Leaf_Clover.jpg,9
22420,15:16:04,37,37,5.0.14.0,2,141,trial1,naming,0,0,0,0,school bus,0,3789,1,White_Screen.jpg,10,113,Bus_School.jpg,10
22420,15:16:04,37,37,5.0.14.0,2,142,trial1,naming,0,0,0,0,suit,0,2462,1,White_Screen.jpg,10,97,Suit_Women.jpg,10
22420,15:16:04,37,37,5.0.14.0,2,143,trial1,naming,0,0,0,0,snow globe,0,3646,1,White_Screen.jpg,14,64,SnowGlobe.jpg,14
22420,15:16:04,37,37,5.0.14.0,2,144,trial1,naming,0,0,0,0,Enter Name,0,2115,1,White_Screen.jpg,11,175,PaintSprayer.jpg,11
22420,15:16:04,37,37,5.0.14.0,2,145,trial1,naming,0,0,0,0,gas container,0,4602,1,White_Screen.jpg,10,56,Canister_Oil.jpg,10
22420,15:16:04,37,37,5.0.14.0,2,146,trial1,naming,0,0,0,0,washing machine,0,6645,1,White_Screen.jpg,15,168,DryingMachine.jpg,15
22420,15:16:04,37,37,5.0.14.0,2,147,trial1,naming,0,0,0,0,grapes,0,3568,1,White_Screen.jpg,10,95,Grape.jpg,10
22420,15:16:04,37,37,5.0.14.0,2,148,trial1,naming,0,0,0,0,hospital bed,0,3937,1,White_Screen.jpg,10,122,Bed_Hospital.jpg,10
22420,15:16:04,37,37,5.0.14.0,2,149,trial1,naming,0,0,0,0,water bottle,0,4771,1,White_Screen.jpg,10,200,Bottle_Blue.jpg,10
22420,15:16:04,37,37,5.0.14.0,2,150,trial1,naming,0,0,0,0,Enter Name,0,1935,1,White_Screen.jpg,10,91,RickShaw.jpg,10
22420,15:16:04,37,37,5.0.14.0,2,151,trial1,naming,0,0,0,0,biscuit,0,3486,1,White_Screen.jpg,10,34,EnglishMuffin.jpg,10
22420,15:16:04,37,37,5.0.14.0,2,152,trial1,naming,0,0,0,0,scooper,0,3041,1,White_Screen.jpg,11,155,Scoop_Flour.jpg,11
22420,15:16:04,37,37,5.0.14.0,2,154,trial1,naming,0,0,0,0,fan blades,0,4306,1,White_Screen.jpg,9,6,PropellerFan.jpg,9
22420,15:16:04,37,37,5.0.14.0,2,155,trial1,naming,0,0,0,0,fruit salad,0,4173,1,White_Screen.jpg,10,125,Cup_Fruits.jpg,10
22420,15:16:04,37,37,5.0.14.0,2,156,trial1,naming,0,0,0,0,barrell ,0,3251,1,White_Screen.jpg,12,1,Barrel_Upright.jpg,12
22420,15:16:04,37,37,5.0.14.0,2,157,trial1,naming,0,0,0,0,bullet,0,3057,1,White_Screen.jpg,11,139,Bullet.jpg,11
22420,15:16:04,37,37,5.0.14.0,2,158,trial1,naming,0,0,0,0,horn,0,2671,1,White_Screen.jpg,10,177,Horn_Hunting.jpg,10
22420,15:16:04,37,37,5.0.14.0,2,159,trial1,naming,0,0,0,0,rocks,0,2779,1,White_Screen.jpg,11,152,Stone_Spa.jpg,11
22420,15:16:04,37,37,5.0.14.0,2,160,trial1,naming,0,0,0,0,paint,0,2719,1,White_Screen.jpg,9,190,WaterColorPaintset.jpg,9
22420,15:16:04,37,37,5.0.14.0,2,161,trial1,naming,0,0,0,0,wooden chair,0,3437,1,White_Screen.jpg,12,66,Chair_Dining.jpg,12
22420,15:16:04,37,37,5.0.14.0,2,162,trial1,naming,0,0,0,0,Enter Name,0,2152,1,White_Screen.jpg,10,166,Bat_Cricket.jpg,10
22420,15:16:04,37,37,5.0.14.0,2,163,trial1,naming,0,0,0,0,roller blades,0,3686,1,White_Screen.jpg,11,54,RollerBlade.jpg,11
22420,15:16:04,37,37,5.0.14.0,2,164,trial1,naming,0,0,0,0,Enter Name,0,3195,1,White_Screen.jpg,13,61,Chair_MedicalToilet.jpg,13
22420,15:16:04,37,37,5.0.14.0,2,165,trial1,naming,0,0,0,0,roller skates,0,3257,1,White_Screen.jpg,10,52,Skates.jpg,10
22420,15:16:04,37,37,5.0.14.0,2,166,trial1,naming,0,0,0,0,desk,0,2566,1,White_Screen.jpg,11,43,Table_Side.jpg,11
22420,15:16:04,37,37,5.0.14.0,2,167,trial1,naming,0,0,0,0,cat statue,0,4486,1,White_Screen.jpg,11,18,Statue_Cat.jpg,11
22420,15:16:04,37,37,5.0.14.0,2,168,trial1,naming,0,0,0,0,Enter Name,0,1616,1,White_Screen.jpg,10,189,Distaff.jpg,10
22420,15:16:04,37,37,5.0.14.0,2,169,trial1,naming,0,0,0,0,playdoh,0,3689,1,White_Screen.jpg,11,86,Playdoh.jpg,11
22420,15:16:04,37,37,5.0.14.0,2,170,trial1,naming,0,0,0,0,Enter Name,0,2164,1,White_Screen.jpg,15,60,Bag_Saline.jpg,15
22420,15:16:04,37,37,5.0.14.0,2,171,trial1,naming,0,0,0,0,boat,0,2342,1,White_Screen.jpg,11,159,Boat_Trailer.jpg,11
22420,15:16:04,37,37,5.0.14.0,2,172,trial1,naming,0,0,0,0,Enter Name,0,1450,1,White_Screen.jpg,20,128,SpinningWheel.jpg,20
22420,15:16:04,37,37,5.0.14.0,2,173,trial1,naming,0,0,0,0,canadian geese,0,5468,1,White_Screen.jpg,12,137,Goose_Canadian.jpg,12
22420,15:16:04,37,37,5.0.14.0,2,174,trial1,naming,0,0,0,0,mirror,0,4282,1,White_Screen.jpg,10,2,Frame_Oval.jpg,10
22420,15:16:04,37,37,5.0.14.0,2,175,trial1,naming,0,0,0,0,Enter Name,0,1552,1,White_Screen.jpg,20,90,Clamp.jpg,20
22420,15:16:04,37,37,5.0.14.0,2,176,trial1,naming,0,0,0,0,Enter Name,0,2120,1,White_Screen.jpg,14,33,Lens_ColourFilter.jpg,14
22420,15:16:04,37,37,5.0.14.0,2,177,trial1,naming,0,0,0,0,donkey,0,2562,1,White_Screen.jpg,10,135,Toy_DonkeyPlastic.jpg,10
22420,15:16:04,37,37,5.0.14.0,2,178,trial1,naming,0,0,0,0,floater,0,3766,1,White_Screen.jpg,16,50,TubeRing.jpg,16
22420,15:16:04,37,37,5.0.14.0,2,179,trial1,naming,0,0,0,0,movie tickets,0,3899,1,White_Screen.jpg,11,172,Tickets_Blank.jpg,11
22420,15:16:04,37,37,5.0.14.0,2,180,trial1,naming,0,0,0,0,glass bottle,0,3702,1,White_Screen.jpg,13,109,Glass_bottle.jpg,13
22420,15:16:04,37,37,5.0.14.0,2,181,trial1,naming,0,0,0,0,plastic boat,0,7235,1,White_Screen.jpg,10,158,Boat_Dinghy.jpg,10
22420,15:16:04,37,37,5.0.14.0,2,182,trial1,naming,0,0,0,0,Enter Name,0,2278,1,White_Screen.jpg,10,47,Harp.jpg,10
22420,15:16:04,37,37,5.0.14.0,2,183,trial1,naming,0,0,0,0,spoon,0,2906,1,White_Screen.jpg,15,32,Spoon_Baby.jpg,15
22420,15:16:04,37,37,5.0.14.0,2,184,trial1,naming,0,0,0,0,box cutter,0,5382,1,White_Screen.jpg,14,167,Level.jpg,14
22420,15:16:04,37,37,5.0.14.0,2,185,trial1,naming,0,0,0,0,eraser,0,2842,1,White_Screen.jpg,10,192,Eraser.jpg,10
22420,15:16:04,37,37,5.0.14.0,2,186,trial1,naming,0,0,0,0,baseball bat,0,3759,1,White_Screen.jpg,11,87,Bat_Baseball.jpg,11
22420,15:16:04,37,37,5.0.14.0,2,187,trial1,naming,0,0,0,0,dress,0,2766,1,White_Screen.jpg,14,182,Skirt_Long.jpg,14
22420,15:16:04,37,37,5.0.14.0,2,188,trial1,naming,0,0,0,0,chain,0,2912,1,White_Screen.jpg,12,101,ChainRusty.jpg,12
22420,15:16:04,37,37,5.0.14.0,2,189,trial1,naming,0,0,0,0,mouth guard,0,5925,1,White_Screen.jpg,10,178,MouthGuard.jpg,10
22420,15:16:04,37,37,5.0.14.0,2,190,trial1,naming,0,0,0,0,visor,0,2840,1,White_Screen.jpg,18,14,Hat_Visor.jpg,18
22420,15:16:04,37,37,5.0.14.0,2,191,trial1,naming,0,0,0,0,dice,0,4159,1,White_Screen.jpg,8,147,FuzzyDice.jpg,8
22420,15:16:04,37,37,5.0.14.0,2,192,trial1,naming,0,0,0,0,flatscreen tv,0,4966,1,White_Screen.jpg,10,157,Television.jpg,10
22420,15:16:04,37,37,5.0.14.0,2,193,trial1,naming,0,0,0,0,groceries,0,3574,1,White_Screen.jpg,12,133,Bag_Groceries.jpg,12
22420,15:16:04,37,37,5.0.14.0,2,194,trial1,naming,0,0,0,0,Enter Name,0,1570,1,White_Screen.jpg,13,130,Decoration_Chinese.jpg,13
22420,15:16:04,37,37,5.0.14.0,2,195,trial1,naming,0,0,0,0,gas container,0,5601,1,White_Screen.jpg,10,62,Jug_GallonRed.jpg,10
22420,15:16:04,37,37,5.0.14.0,2,196,trial1,naming,0,0,0,0,speed limit sign,0,4761,1,White_Screen.jpg,10,151,Sign_SpeedLimit30.jpg,10
22420,15:16:04,37,37,5.0.14.0,2,197,trial1,naming,0,0,0,0,brown eggs,0,3566,1,White_Screen.jpg,14,30,CartonEggs.jpg,14
22420,15:16:04,37,37,5.0.14.0,2,198,trial1,naming,0,0,0,0,Enter Name,0,1591,1,White_Screen.jpg,10,150,Sculpture_MetalMan.jpg,10
22420,15:16:04,37,37,5.0.14.0,2,199,trial1,naming,0,0,0,0,Enter Name,0,1215,1,White_Screen.jpg,10,140,CoolingFan_Engine2.jpg,10
22420,15:16:04,37,37,5.0.14.0,2,200,trial1,naming,0,0,0,0,walie talkies,0,6249,1,White_Screen.jpg,10,144,Telephone_TinCan.jpg,10
22420,15:16:04,37,37,5.0.14.0,2,201,trial1,naming,0,0,0,0,Enter Name,0,1611,1,White_Screen.jpg,10,145,Ramekin.jpg,10
22420,15:16:04,37,37,5.0.14.0,2,202,trial1,naming,0,0,0,0,snorkle,0,7646,1,White_Screen.jpg,15,74,Snorkle.jpg,15
22420,15:16:04,37,37,5.0.14.0,2,203,trial1,naming,0,0,0,0,fried chicken,0,4428,1,White_Screen.jpg,10,193,Chicken_FriedWing.jpg,10
22420,15:16:04,37,37,5.0.14.0,3,1,demographics_block,gender,0,0,0,0,male,1,10096,0,0,0,0,0,0
22420,15:16:04,37,37,5.0.14.0,3,1,demographics_block,age,0,0,0,0,29,1,10096,0,0,0,0,0,0
22420,15:16:04,37,37,5.0.14.0,3,1,demographics_block,education,0,0,0,0,16,1,10096,0,0,0,0,0,0
22420,15:16:04,37,37,5.0.14.0,3,2,demographics_block,left_right_handed,0,0,0,0,Right,1,4305,0,0,0,0,0,0
22420,15:16:04,37,37,5.0.14.0,3,2,demographics_block,raceoption1,0,0,0,0,,1,4305,0,0,0,0,0,0
22420,15:16:04,37,37,5.0.14.0,3,2,demographics_block,raceoption2,0,0,0,0,,1,4305,0,0,0,0,0,0
22420,15:16:04,37,37,5.0.14.0,3,2,demographics_block,raceoption3,0,0,0,0,,1,4305,0,0,0,0,0,0
22420,15:16:04,37,37,5.0.14.0,3,2,demographics_block,raceoption4,0,0,0,0,3,1,4305,0,0,0,0,0,0
22420,15:16:04,37,37,5.0.14.0,3,2,demographics_block,raceoption5,0,0,0,0,,1,4305,0,0,0,0,0,0
22420,15:16:04,37,37,5.0.14.0,3,2,demographics_block,raceoption6,0,0,0,0,,1,4305,0,0,0,0,0,0
22420,15:16:04,37,37,5.0.14.0,3,2,demographics_block,raceoption7,0,0,0,0,,1,4305,0,0,0,0,0,0
22420,15:16:04,37,37,5.0.14.0,3,2,demographics_block,raceoption8,0,0,0,0,,1,4305,0,0,0,0,0,0
22420,15:16:04,37,37,5.0.14.0,3,2,demographics_block,raceoption9,0,0,0,0,,1,4305,0,0,0,0,0,0
22420,15:16:04,37,37,5.0.14.0,3,2,demographics_block,raceother,0,0,0,0,,1,4305,0,0,0,0,0,0
22420,15:16:04,37,37,5.0.14.0,3,2,demographics_block,raceother,0,0,0,0,,1,4305,0,0,0,0,0,0
22420,15:16:04,37,37,5.0.14.0,3,2,demographics_block,english_language,0,0,0,0,Yes,1,4305,0,0,0,0,0,0
22420,15:16:04,37,37,5.0.14.0,3,2,demographics_block,english_languageother,0,0,0,0,,1,4305,0,0,0,0,0,0
22420,15:16:04,37,37,5.0.14.0,3,3,demographics_block,eyesight,0,0,0,0,Yes,1,3120,0,0,0,0,0,0
22420,15:16:04,37,37,5.0.14.0,3,3,demographics_block,colorblind,0,0,0,0,No,1,3120,0,0,0,0,0,0
22420,15:16:04,37,37,5.0.14.0,4,1,worker_id_block,worker_id_textbox,0,0,0,0,A1TARNH07A75CG,1,3534,0,0,0,0,0,0
22420,15:20:36,38,38,5.0.14.0,2,1,trial1,naming,0,0,0,0,platter,0,6795,1,White_Screen.jpg,164,179,Plate_Wooden.jpg,164
22420,15:20:36,38,38,5.0.14.0,2,2,trial1,naming,0,0,0,0,Enter Name,0,942,1,White_Screen.jpg,3,83,RecorderCassette.jpg,3
22420,15:20:36,38,38,5.0.14.0,2,3,trial1,naming,0,0,0,0,cow,0,5999,1,White_Screen.jpg,3,9,Cow.jpg,3
22420,15:20:36,38,38,5.0.14.0,2,4,trial1,naming,0,0,0,0,suit,0,3729,1,White_Screen.jpg,3,97,Suit_Women.jpg,3
22420,15:20:36,38,38,5.0.14.0,2,5,trial1,naming,0,0,0,0,makeups Enter Name,0,4249,1,White_Screen.jpg,2,71,Makeup_Eyeshadow.jpg,2
22420,15:20:36,38,38,5.0.14.0,2,6,trial1,naming,0,0,0,0,changing table,0,5637,1,White_Screen.jpg,2,118,DiaperChangingStation.jpg,2
22420,15:20:36,38,38,5.0.14.0,2,7,trial1,naming,0,0,0,0,fruit cup,0,4772,1,White_Screen.jpg,2,125,Cup_Fruits.jpg,2
22420,15:20:36,38,38,5.0.14.0,2,8,trial1,naming,0,0,0,0,glass,0,3747,1,White_Screen.jpg,3,28,Glass_Martini.jpg,3
22420,15:20:36,38,38,5.0.14.0,2,9,trial1,naming,0,0,0,0,stones,0,3680,1,White_Screen.jpg,3,152,Stone_Spa.jpg,3
22420,15:20:36,38,38,5.0.14.0,2,10,trial1,naming,0,0,0,0,lifeboat,0,3939,1,White_Screen.jpg,2,158,Boat_Dinghy.jpg,2
22420,15:20:36,38,38,5.0.14.0,2,11,trial1,naming,0,0,0,0,lifesaver,0,8047,1,White_Screen.jpg,2,50,TubeRing.jpg,2
22420,15:20:36,38,38,5.0.14.0,2,12,trial1,naming,0,0,0,0,baseball bat,0,4916,1,White_Screen.jpg,4,87,Bat_Baseball.jpg,4
22420,15:20:36,38,38,5.0.14.0,2,13,trial1,naming,0,0,0,0,steamroller,0,6101,1,White_Screen.jpg,2,143,Steamroller.jpg,2
22420,15:20:36,38,38,5.0.14.0,2,14,trial1,naming,0,0,0,0,leek,0,3645,1,White_Screen.jpg,3,142,Leek.jpg,3
22420,15:20:36,38,38,5.0.14.0,2,15,trial1,naming,0,0,0,0,rocking chair,0,4894,1,White_Screen.jpg,3,173,Chair_Rocking.jpg,3
22420,15:20:36,38,38,5.0.14.0,2,16,trial1,naming,0,0,0,0,iv bag Enter Name,0,5910,1,White_Screen.jpg,2,60,Bag_Saline.jpg,2
22420,15:20:36,38,38,5.0.14.0,2,17,trial1,naming,0,0,0,0,party favor,0,4369,1,White_Screen.jpg,2,149,Noisemaker.jpg,2
22420,15:20:36,38,38,5.0.14.0,2,18,trial1,naming,0,0,0,0,corn,0,9872,1,White_Screen.jpg,2,45,Corn_Kernels.jpg,2
22420,15:20:36,38,38,5.0.14.0,2,19,trial1,naming,0,0,0,0,watercolors,0,6471,1,White_Screen.jpg,2,190,WaterColorPaintset.jpg,2
22420,15:20:36,38,38,5.0.14.0,2,20,trial1,naming,0,0,0,0,hose,0,3396,1,White_Screen.jpg,3,105,HoseNozzle.jpg,3
22420,15:20:36,38,38,5.0.14.0,2,21,trial1,naming,0,0,0,0,paintbrush,0,4138,1,White_Screen.jpg,2,138,Brush_Paint.jpg,2
22420,15:20:36,38,38,5.0.14.0,2,22,trial1,naming,0,0,0,0,barrel,0,3655,1,White_Screen.jpg,2,1,Barrel_Upright.jpg,2
22420,15:20:36,38,38,5.0.14.0,2,23,trial1,naming,0,0,0,0,front end loader,0,5383,1,White_Screen.jpg,2,165,Backhoe.jpg,2
22420,15:20:36,38,38,5.0.14.0,2,24,trial1,naming,0,0,0,0,measuring spoons,0,5400,1,White_Screen.jpg,2,23,Spoons_MeasuringDetached.jpg,2
22420,15:20:36,38,38,5.0.14.0,2,25,trial1,naming,0,0,0,0,remote,0,3183,1,White_Screen.jpg,2,80,RemoteControl.jpg,2
22420,15:20:36,38,38,5.0.14.0,2,26,trial1,naming,0,0,0,0,4 leaf clover,0,5939,1,White_Screen.jpg,2,70,Leaf_Clover.jpg,2
22420,15:20:36,38,38,5.0.14.0,2,27,trial1,naming,0,0,0,0,statue,0,2871,1,White_Screen.jpg,3,20,Statue_Man.jpg,3
22420,15:20:36,38,38,5.0.14.0,2,28,trial1,naming,0,0,0,0,scrubber,0,3179,1,White_Screen.jpg,2,15,Brush_Toilet.jpg,2
22420,15:20:36,38,38,5.0.14.0,2,29,trial1,naming,0,0,0,0,sculpture,0,4853,1,White_Screen.jpg,2,150,Sculpture_MetalMan.jpg,2
22420,15:20:36,38,38,5.0.14.0,2,30,trial1,naming,0,0,0,0,can phone,0,5550,1,White_Screen.jpg,3,144,Telephone_TinCan.jpg,3
22420,15:20:36,38,38,5.0.14.0,2,31,trial1,naming,0,0,0,0,baby monitor,0,5962,1,White_Screen.jpg,2,21,BabyMonitor.jpg,2
22420,15:20:36,38,38,5.0.14.0,2,32,trial1,naming,0,0,0,0,candle snuffer,0,4701,1,White_Screen.jpg,2,116,CandleSnuffer.jpg,2
22420,15:20:36,38,38,5.0.14.0,2,33,trial1,naming,0,0,0,0,bus,0,3102,1,White_Screen.jpg,2,113,Bus_School.jpg,2
22420,15:20:36,38,38,5.0.14.0,2,34,trial1,naming,0,0,0,0,knife block,0,4214,1,White_Screen.jpg,3,163,KnifeHolder.jpg,3
22420,15:20:36,38,38,5.0.14.0,2,35,trial1,naming,0,0,0,0,birdcage,0,3787,1,White_Screen.jpg,2,35,Cage_Bird.jpg,2
22420,15:20:36,38,38,5.0.14.0,2,36,trial1,naming,0,0,0,0,tire,0,4203,1,White_Screen.jpg,2,48,Tire_Hollow.jpg,2
22420,15:20:36,38,38,5.0.14.0,2,37,trial1,naming,0,0,0,0,doll,0,2854,1,White_Screen.jpg,2,160,Toy_Witch.jpg,2
22420,15:20:36,38,38,5.0.14.0,2,38,trial1,naming,0,0,0,0,level,0,3470,1,White_Screen.jpg,2,167,Level.jpg,2
22420,15:20:36,38,38,5.0.14.0,2,39,trial1,naming,0,0,0,0,boat,0,4383,1,White_Screen.jpg,3,44,Boat_Row.jpg,3
22420,15:20:36,38,38,5.0.14.0,2,40,trial1,naming,0,0,0,0,paper,0,2992,1,White_Screen.jpg,2,181,NewspaperStack.jpg,2
22420,15:20:36,38,38,5.0.14.0,2,41,trial1,naming,0,0,0,0,herb,0,3441,1,White_Screen.jpg,3,183,Dill.jpg,3
22420,15:20:36,38,38,5.0.14.0,2,42,trial1,naming,0,0,0,0,phone,0,3404,1,White_Screen.jpg,2,42,Phone_Public.jpg,2
22420,15:20:36,38,38,5.0.14.0,2,43,trial1,naming,0,0,0,0,pitch pipe,0,5344,1,White_Screen.jpg,2,188,Pipe_Pitch.jpg,2
22420,15:20:36,38,38,5.0.14.0,2,44,trial1,naming,0,0,0,0,igloo,0,4037,1,White_Screen.jpg,2,184,Igloo.jpg,2
22420,15:20:36,38,38,5.0.14.0,2,45,trial1,naming,0,0,0,0,Enter Name,0,2859,1,White_Screen.jpg,2,24,Hook_Ceiling.jpg,2
22420,15:20:36,38,38,5.0.14.0,2,46,trial1,naming,0,0,0,0,baby stroller,0,4076,1,White_Screen.jpg,2,25,Stroller.jpg,2
22420,15:20:36,38,38,5.0.14.0,2,47,trial1,naming,0,0,0,0,bat,0,3025,1,White_Screen.jpg,3,166,Bat_Cricket.jpg,3
22420,15:20:36,38,38,5.0.14.0,2,48,trial1,naming,0,0,0,0,gels,0,4421,1,White_Screen.jpg,2,33,Lens_ColourFilter.jpg,2
22420,15:20:36,38,38,5.0.14.0,2,49,trial1,naming,0,0,0,0,stamp,0,3539,1,White_Screen.jpg,2,85,PostageStamps.jpg,2
22420,15:20:36,38,38,5.0.14.0,2,50,trial1,naming,0,0,0,0,fan,0,3287,1,White_Screen.jpg,3,6,PropellerFan.jpg,3
22420,15:20:36,38,38,5.0.14.0,2,52,trial1,naming,0,0,0,0,funyun,0,5466,1,White_Screen.jpg,2,161,OnionRings.jpg,2
22420,15:20:36,38,38,5.0.14.0,2,53,trial1,naming,0,0,0,0,goose,0,2919,1,White_Screen.jpg,4,137,Goose_Canadian.jpg,4
22420,15:20:36,38,38,5.0.14.0,2,54,trial1,naming,0,0,0,0,turpentine,0,4811,1,White_Screen.jpg,3,51,Can_Oblong.jpg,3
22420,15:20:36,38,38,5.0.14.0,2,55,trial1,naming,0,0,0,0,potpourri,0,5997,1,White_Screen.jpg,3,129,Pouch_PotPourri.jpg,3
22420,15:20:36,38,38,5.0.14.0,2,56,trial1,naming,0,0,0,0,rollerblade,0,5170,1,White_Screen.jpg,2,54,RollerBlade.jpg,2
22420,15:20:36,38,38,5.0.14.0,2,57,trial1,naming,0,0,0,0,lentil,0,5028,1,White_Screen.jpg,2,89,PeasSplit.jpg,2
22420,15:20:36,38,38,5.0.14.0,2,58,trial1,naming,0,0,0,0,computer part,0,4193,1,White_Screen.jpg,3,16,Computer_ExpansionCard.jpg,3
22420,15:20:36,38,38,5.0.14.0,2,59,trial1,naming,0,0,0,0,speed limit sign,0,4753,1,White_Screen.jpg,2,124,Sign_SpeedLimit25.jpg,2
22420,15:20:36,38,38,5.0.14.0,2,60,trial1,naming,0,0,0,0,gas can,0,3109,1,White_Screen.jpg,2,73,Can_Gas.jpg,2
22420,15:20:36,38,38,5.0.14.0,2,61,trial1,naming,0,0,0,0,mug,0,2691,1,White_Screen.jpg,2,156,Mug_Beer.jpg,2
22420,15:20:36,38,38,5.0.14.0,2,62,trial1,naming,0,0,0,0,Enter Name,0,2824,1,White_Screen.jpg,2,170,DentistOverheadLight.jpg,2
22420,15:20:36,38,38,5.0.14.0,2,63,trial1,naming,0,0,0,0,Enter Name,0,1890,1,White_Screen.jpg,2,91,RickShaw.jpg,2
22420,15:20:36,38,38,5.0.14.0,2,64,trial1,naming,0,0,0,0,tweezer,0,3580,1,White_Screen.jpg,2,132,Tweezers.jpg,2
22420,15:20:36,38,38,5.0.14.0,2,65,trial1,naming,0,0,0,0,harp,0,3413,1,White_Screen.jpg,2,47,Harp.jpg,2
22420,15:20:36,38,38,5.0.14.0,2,66,trial1,naming,0,0,0,0,doll,0,3270,1,White_Screen.jpg,2,79,MonkeyPuppet.jpg,2
22420,15:20:36,38,38,5.0.14.0,2,67,trial1,naming,0,0,0,0,suitcase,0,3598,1,White_Screen.jpg,3,115,Suitcase.jpg,3
22420,15:20:36,38,38,5.0.14.0,2,68,trial1,naming,0,0,0,0,ice skate,0,4511,1,White_Screen.jpg,2,52,Skates.jpg,2
22420,15:20:36,38,38,5.0.14.0,2,69,trial1,naming,0,0,0,0,gerbil,0,2903,1,White_Screen.jpg,3,76,GuineaPig.jpg,3
22420,15:20:36,38,38,5.0.14.0,2,70,trial1,naming,0,0,0,0,chair,0,3299,1,White_Screen.jpg,2,66,Chair_Dining.jpg,2
22420,15:20:36,38,38,5.0.14.0,2,71,trial1,naming,0,0,0,0,headset,0,4548,1,White_Screen.jpg,2,141,Headset.jpg,2
22420,15:20:36,38,38,5.0.14.0,2,72,trial1,naming,0,0,0,0,man,0,3517,1,White_Screen.jpg,2,112,Man.jpg,2
22420,15:20:36,38,38,5.0.14.0,2,73,trial1,naming,0,0,0,0,hook,0,7094,1,White_Screen.jpg,2,22,Hook_Fishing.jpg,2
22420,15:20:36,38,38,5.0.14.0,2,74,trial1,naming,0,0,0,0,Enter Name,0,2945,1,White_Screen.jpg,2,195,Otoscope.jpg,2
22420,15:20:36,38,38,5.0.14.0,2,75,trial1,naming,0,0,0,0,bag,0,3023,1,White_Screen.jpg,2,26,Bag_Gym.jpg,2
22420,15:20:36,38,38,5.0.14.0,2,76,trial1,naming,0,0,0,0,Enter Name,0,2515,1,White_Screen.jpg,2,128,SpinningWheel.jpg,2
22420,15:20:36,38,38,5.0.14.0,2,77,trial1,naming,0,0,0,0,celery,0,2985,1,White_Screen.jpg,2,154,Celery.jpg,2
22420,15:20:36,38,38,5.0.14.0,2,78,trial1,naming,0,0,0,0,egg,0,3080,1,White_Screen.jpg,2,37,Egg_Cup.jpg,2
22420,15:20:36,38,38,5.0.14.0,2,79,trial1,naming,0,0,0,0,skirt,0,2737,1,White_Screen.jpg,2,182,Skirt_Long.jpg,2
22420,15:20:36,38,38,5.0.14.0,2,80,trial1,naming,0,0,0,0,play doh,0,4436,1,White_Screen.jpg,2,86,Playdoh.jpg,2
22420,15:20:36,38,38,5.0.14.0,2,81,trial1,naming,0,0,0,0,Enter Name,0,2970,1,White_Screen.jpg,2,100,MannequinBust.jpg,2
22420,15:20:36,38,38,5.0.14.0,2,82,trial1,naming,0,0,0,0,triangle,0,2757,1,White_Screen.jpg,2,8,Ruler_Triangle.jpg,2
22420,15:20:36,38,38,5.0.14.0,2,83,trial1,naming,0,0,0,0,salt shaker,0,3335,1,White_Screen.jpg,2,102,SaltShaker.jpg,2
22420,15:20:36,38,38,5.0.14.0,2,84,trial1,naming,0,0,0,0,hobby horse,0,4252,1,White_Screen.jpg,2,131,Toy_RockingHorseBeige.jpg,2
22420,15:20:36,38,38,5.0.14.0,2,85,trial1,naming,0,0,0,0,gas can,0,2961,1,White_Screen.jpg,3,62,Jug_GallonRed.jpg,3
22420,15:20:36,38,38,5.0.14.0,2,86,trial1,naming,0,0,0,0,flashlight,0,5320,1,White_Screen.jpg,2,3,BicycleHandleGrip.jpg,2
22420,15:20:36,38,38,5.0.14.0,2,87,trial1,naming,0,0,0,0,grape,0,3723,1,White_Screen.jpg,2,95,Grape.jpg,2
22420,15:20:36,38,38,5.0.14.0,2,88,trial1,naming,0,0,0,0,dynamite,0,5211,1,White_Screen.jpg,2,38,Dynamite.jpg,2
22420,15:20:36,38,38,5.0.14.0,2,89,trial1,naming,0,0,0,0,goggle,0,6496,1,White_Screen.jpg,2,171,GogglesSwim.jpg,2
22420,15:20:36,38,38,5.0.14.0,2,90,trial1,naming,0,0,0,0,mirror,0,3698,1,White_Screen.jpg,2,2,Frame_Oval.jpg,2
22420,15:20:36,38,38,5.0.14.0,2,91,trial1,naming,0,0,0,0,shoe,0,2626,1,White_Screen.jpg,2,117,Shoes_Pumps.jpg,2
22420,15:20:36,38,38,5.0.14.0,2,92,trial1,naming,0,0,0,0,desk,0,2955,1,White_Screen.jpg,2,40,Chair_Student.jpg,2
22420,15:20:36,38,38,5.0.14.0,2,93,trial1,naming,0,0,0,0,foot,0,4211,1,White_Screen.jpg,2,194,Feet.jpg,2
22420,15:20:36,38,38,5.0.14.0,2,94,trial1,naming,0,0,0,0,hookah,0,6189,1,White_Screen.jpg,3,120,Hookah.jpg,3
22420,15:20:36,38,38,5.0.14.0,2,95,trial1,naming,0,0,0,0,bed,0,2681,1,White_Screen.jpg,2,122,Bed_Hospital.jpg,2
22420,15:20:36,38,38,5.0.14.0,2,96,trial1,naming,0,0,0,0,boat,0,2382,1,White_Screen.jpg,2,159,Boat_Trailer.jpg,2
22420,15:20:36,38,38,5.0.14.0,2,97,trial1,naming,0,0,0,0,lipstick,0,3808,1,White_Screen.jpg,3,41,Lipstick.jpg,3
22420,15:20:36,38,38,5.0.14.0,2,98,trial1,naming,0,0,0,0,coat of arms,0,4041,1,White_Screen.jpg,2,49,Shield_Antique.jpg,2
22420,15:20:36,38,38,5.0.14.0,2,99,trial1,naming,0,0,0,0,donkey,0,4358,1,White_Screen.jpg,3,135,Toy_DonkeyPlastic.jpg,3
22420,15:20:36,38,38,5.0.14.0,2,100,trial1,naming,0,0,0,0,drsser,0,3953,1,White_Screen.jpg,2,31,Wardrobe.jpg,2
22420,15:20:36,38,38,5.0.14.0,2,101,trial1,naming,0,0,0,0,pasta,0,3459,1,White_Screen.jpg,3,110,Pasta_Fusilli.jpg,3
22420,15:20:36,38,38,5.0.14.0,2,103,trial1,naming,0,0,0,0,butt,0,10000,1,White_Screen.jpg,2,99,ButterChurn.jpg,2
22420,15:20:36,38,38,5.0.14.0,2,104,trial1,naming,0,0,0,0,ticket,0,3442,1,White_Screen.jpg,2,172,Tickets_Blank.jpg,2
22420,15:20:36,38,38,5.0.14.0,2,105,trial1,naming,0,0,0,0,tassle,0,3539,1,White_Screen.jpg,2,130,Decoration_Chinese.jpg,2
22420,15:20:36,38,38,5.0.14.0,2,106,trial1,naming,0,0,0,0,horn,0,3044,1,White_Screen.jpg,3,177,Horn_Hunting.jpg,3
22420,15:20:36,38,38,5.0.14.0,2,107,trial1,naming,0,0,0,0,hand exerciser,0,5400,1,White_Screen.jpg,3,146,Exercise_HandTrainer.jpg,3
22420,15:20:36,38,38,5.0.14.0,2,108,trial1,naming,0,0,0,0,table,0,7840,1,White_Screen.jpg,2,43,Table_Side.jpg,2
22420,15:20:36,38,38,5.0.14.0,2,109,trial1,naming,0,0,0,0,decorative thing,0,4957,1,White_Screen.jpg,3,53,Decoration_WallOrnament.jpg,3
22420,15:20:36,38,38,5.0.14.0,2,110,trial1,naming,0,0,0,0,tree,0,2894,1,White_Screen.jpg,4,7,Tree_Fir.jpg,4
22420,15:20:36,38,38,5.0.14.0,2,111,trial1,naming,0,0,0,0,vest,0,2696,1,White_Screen.jpg,3,111,Vest.jpg,3
22420,15:20:36,38,38,5.0.14.0,2,112,trial1,naming,0,0,0,0,seahorse,0,2770,1,White_Screen.jpg,2,55,Seahorse.jpg,2
22420,15:20:36,38,38,5.0.14.0,2,113,trial1,naming,0,0,0,0,cable,0,2577,1,White_Screen.jpg,2,69,Cord_Ethernet.jpg,2
22420,15:20:36,38,38,5.0.14.0,2,114,trial1,naming,0,0,0,0,groceries,0,3167,1,White_Screen.jpg,2,133,Bag_Groceries.jpg,2
22420,15:20:36,38,38,5.0.14.0,2,115,trial1,naming,0,0,0,0,cookie,0,3788,1,White_Screen.jpg,4,198,Jar_Cookie.jpg,4
22420,15:20:36,38,38,5.0.14.0,2,116,trial1,naming,0,0,0,0,ghost,0,2939,1,White_Screen.jpg,2,136,Ghost.jpg,2
22420,15:20:36,38,38,5.0.14.0,2,117,trial1,naming,0,0,0,0,parachute,0,4532,1,White_Screen.jpg,3,134,Paratrooper.jpg,3
22420,15:20:36,38,38,5.0.14.0,2,118,trial1,naming,0,0,0,0,sign,0,3711,1,White_Screen.jpg,2,77,Sign_Wetfloor.jpg,2
22420,15:20:36,38,38,5.0.14.0,2,119,trial1,naming,0,0,0,0,bottle,0,3076,1,White_Screen.jpg,2,109,Glass_bottle.jpg,2
22420,15:20:36,38,38,5.0.14.0,2,120,trial1,naming,0,0,0,0,compressor,0,6591,1,White_Screen.jpg,3,107,AirCompressor.jpg,3
22420,15:20:36,38,38,5.0.14.0,2,121,trial1,naming,0,0,0,0,chain,0,2963,1,White_Screen.jpg,3,101,ChainRusty.jpg,3
22420,15:20:36,38,38,5.0.14.0,2,122,trial1,naming,0,0,0,0,Enter Name,0,2325,1,White_Screen.jpg,3,189,Distaff.jpg,3
22420,15:20:36,38,38,5.0.14.0,2,123,trial1,naming,0,0,0,0,tower,0,4134,1,White_Screen.jpg,2,199,Steeple.jpg,2
22420,15:20:36,38,38,5.0.14.0,2,124,trial1,naming,0,0,0,0,garlic,0,2892,1,White_Screen.jpg,2,10,Garlic_Clove.jpg,2
22420,15:20:36,38,38,5.0.14.0,2,125,trial1,naming,0,0,0,0,pencil,0,3253,1,White_Screen.jpg,2,5,Pencil.jpg,2
22420,15:20:36,38,38,5.0.14.0,2,126,trial1,naming,0,0,0,0,Enter Name,0,3882,1,White_Screen.jpg,2,126,CraneMachine.jpg,2
22420,15:20:36,38,38,5.0.14.0,2,127,trial1,naming,0,0,0,0,speed limit sign,0,3952,1,White_Screen.jpg,2,151,Sign_SpeedLimit30.jpg,2
22420,15:20:36,38,38,5.0.14.0,2,128,trial1,naming,0,0,0,0,teapot,0,2710,1,White_Screen.jpg,2,119,Kettle.jpg,2
22420,15:20:36,38,38,5.0.14.0,2,129,trial1,naming,0,0,0,0,tattoo gune,0,6559,1,White_Screen.jpg,2,175,PaintSprayer.jpg,2
22420,15:20:36,38,38,5.0.14.0,2,130,trial1,naming,0,0,0,0,saw,0,3491,1,White_Screen.jpg,2,90,Clamp.jpg,2
22420,15:20:36,38,38,5.0.14.0,2,131,trial1,naming,0,0,0,0,cup,0,2986,1,White_Screen.jpg,2,145,Ramekin.jpg,2
22420,15:20:36,38,38,5.0.14.0,2,132,trial1,naming,0,0,0,0,hot dog,0,2791,1,White_Screen.jpg,2,114,Hotdog_WithBun.jpg,2
22420,15:20:36,38,38,5.0.14.0,2,133,trial1,naming,0,0,0,0,retainer,0,4483,1,White_Screen.jpg,3,178,MouthGuard.jpg,3
22420,15:20:36,38,38,5.0.14.0,2,134,trial1,naming,0,0,0,0,sandcastle,0,4331,1,White_Screen.jpg,2,103,Sandcastle.jpg,2
22420,15:20:36,38,38,5.0.14.0,2,135,trial1,naming,0,0,0,0,peach,0,9252,1,White_Screen.jpg,2,29,Peach.jpg,2
22420,15:20:36,38,38,5.0.14.0,2,136,trial1,naming,0,0,0,0,chicken wing,0,4322,1,White_Screen.jpg,4,193,Chicken_FriedWing.jpg,4
22420,15:20:36,38,38,5.0.14.0,2,137,trial1,naming,0,0,0,0,tape,0,2499,1,White_Screen.jpg,2,68,Tape_Dispenser.jpg,2
22420,15:20:36,38,38,5.0.14.0,2,138,trial1,naming,0,0,0,0,monitor,0,3908,1,White_Screen.jpg,2,157,Television.jpg,2
22420,15:20:36,38,38,5.0.14.0,2,139,trial1,naming,0,0,0,0,boat,0,2281,1,White_Screen.jpg,2,78,Ship_Model.jpg,2
22420,15:20:36,38,38,5.0.14.0,2,140,trial1,naming,0,0,0,0,egg,0,2687,1,White_Screen.jpg,3,30,CartonEggs.jpg,3
22420,15:20:36,38,38,5.0.14.0,2,141,trial1,naming,0,0,0,0,walker,0,3034,1,White_Screen.jpg,2,61,Chair_MedicalToilet.jpg,2
22420,15:20:36,38,38,5.0.14.0,2,142,trial1,naming,0,0,0,0,washer,0,2711,1,White_Screen.jpg,3,168,DryingMachine.jpg,3
22420,15:20:36,38,38,5.0.14.0,2,143,trial1,naming,0,0,0,0,jersey,0,3462,1,White_Screen.jpg,2,12,Shirt_SportsJersey.jpg,2
22420,15:20:36,38,38,5.0.14.0,2,144,trial1,naming,0,0,0,0,notebook,0,3987,1,White_Screen.jpg,4,106,Notebook.jpg,4
22420,15:20:36,38,38,5.0.14.0,2,145,trial1,naming,0,0,0,0,scorpion,0,4455,1,White_Screen.jpg,3,46,Scorpion.jpg,3
22420,15:20:36,38,38,5.0.14.0,2,146,trial1,naming,0,0,0,0,shoe,0,2277,1,White_Screen.jpg,2,123,Shoe_Pink.jpg,2
22420,15:20:36,38,38,5.0.14.0,2,147,trial1,naming,0,0,0,0,gas can,0,2834,1,White_Screen.jpg,2,11,Can_GasSpout.jpg,2
22420,15:20:36,38,38,5.0.14.0,2,148,trial1,naming,0,0,0,0,soap,0,3420,1,White_Screen.jpg,2,186,SoapBottle.jpg,2
22420,15:20:36,38,38,5.0.14.0,2,149,trial1,naming,0,0,0,0,dice,0,2649,1,White_Screen.jpg,2,147,FuzzyDice.jpg,2
22420,15:20:36,38,38,5.0.14.0,2,150,trial1,naming,0,0,0,0,grinder,0,4154,1,White_Screen.jpg,2,19,MeatGrinder.jpg,2
22420,15:20:36,38,38,5.0.14.0,2,151,trial1,naming,0,0,0,0,mask,0,2711,1,White_Screen.jpg,3,74,Snorkle.jpg,3
22420,15:20:36,38,38,5.0.14.0,2,152,trial1,naming,0,0,0,0,seat,0,2401,1,White_Screen.jpg,2,17,BicycleSeat.jpg,2
22420,14:09:08,35,35,5.0.14.0,2,1,trial1,naming,0,0,0,0,roller,0,10000,1,White_Screen.jpg,23,143,Steamroller.jpg,23
22420,14:09:08,35,35,5.0.14.0,2,2,trial1,naming,0,0,0,0,headphones,0,10000,1,White_Screen.jpg,4,141,Headset.jpg,4
22420,14:09:08,35,35,5.0.14.0,2,3,trial1,naming,0,0,0,0,vial,0,4876,1,White_Screen.jpg,5,176,VialLab.jpg,5
22420,14:09:08,35,35,5.0.14.0,2,4,trial1,naming,0,0,0,0,makeup case,0,7089,1,White_Screen.jpg,4,71,Makeup_Eyeshadow.jpg,4
22420,14:09:08,35,35,5.0.14.0,2,5,trial1,naming,0,0,0,0,binder,0,4562,1,White_Screen.jpg,5,106,Notebook.jpg,5
22420,14:09:08,35,35,5.0.14.0,2,6,trial1,naming,0,0,0,0,washing machine,0,6344,1,White_Screen.jpg,4,168,DryingMachine.jpg,4
22420,14:09:08,35,35,5.0.14.0,2,7,trial1,naming,0,0,0,0,suit case,0,4981,1,White_Screen.jpg,4,115,Suitcase.jpg,4
22420,14:09:08,35,35,5.0.14.0,2,8,trial1,naming,0,0,0,0,sprinkle,0,10000,1,White_Screen.jpg,4,105,HoseNozzle.jpg,4
22420,14:09:08,35,35,5.0.14.0,2,9,trial1,naming,0,0,0,0,wine glass,0,6173,1,White_Screen.jpg,4,28,Glass_Martini.jpg,4
22420,14:09:08,35,35,5.0.14.0,2,10,trial1,naming,0,0,0,0,breathlyzer,0,10000,1,White_Screen.jpg,4,195,Otoscope.jpg,4
22420,14:09:08,35,35,5.0.14.0,2,11,trial1,naming,0,0,0,0,witch doll,0,6146,1,White_Screen.jpg,4,160,Toy_Witch.jpg,4
22420,14:09:08,35,35,5.0.14.0,2,12,trial1,naming,0,0,0,0,lipstick,0,6340,1,White_Screen.jpg,3,41,Lipstick.jpg,3
22420,14:09:08,35,35,5.0.14.0,2,13,trial1,naming,0,0,0,0,christmas tree,0,6144,1,White_Screen.jpg,5,7,Tree_Fir.jpg,5
22420,14:09:08,35,35,5.0.14.0,2,14,trial1,naming,0,0,0,0,boat,0,4352,1,White_Screen.jpg,4,159,Boat_Trailer.jpg,4
22420,14:09:08,35,35,5.0.14.0,2,15,trial1,naming,0,0,0,0,corn,0,3839,1,White_Screen.jpg,4,45,Corn_Kernels.jpg,4
22420,14:09:08,35,35,5.0.14.0,2,16,trial1,naming,0,0,0,0,handle bars,0,7595,1,White_Screen.jpg,4,3,BicycleHandleGrip.jpg,4
22420,14:09:08,35,35,5.0.14.0,2,17,trial1,naming,0,0,0,0,blocks,0,6493,1,White_Screen.jpg,3,88,Toys_Lego.jpg,3
22420,14:09:08,35,35,5.0.14.0,2,18,trial1,naming,0,0,0,0,chair,0,3924,1,White_Screen.jpg,4,66,Chair_Dining.jpg,4
22420,14:09:08,35,35,5.0.14.0,2,19,trial1,naming,0,0,0,0,row boat,0,6677,1,White_Screen.jpg,5,44,Boat_Row.jpg,5
22420,14:09:08,35,35,5.0.14.0,2,20,trial1,naming,0,0,0,0,pork chops,0,8186,1,White_Screen.jpg,3,191,MeatRaw.jpg,3
22420,14:09:08,35,35,5.0.14.0,2,21,trial1,naming,0,0,0,0,school bus,0,5386,1,White_Screen.jpg,4,113,Bus_School.jpg,4
22420,14:09:08,35,35,5.0.14.0,2,22,trial1,naming,0,0,0,0,hookla,0,9979,1,White_Screen.jpg,6,120,Hookah.jpg,6
22420,14:09:08,35,35,5.0.14.0,2,23,trial1,naming,0,0,0,0,skirt,0,7332,1,White_Screen.jpg,4,182,Skirt_Long.jpg,4
22420,14:09:08,35,35,5.0.14.0,2,24,trial1,naming,0,0,0,0,goggles,0,4069,1,White_Screen.jpg,3,171,GogglesSwim.jpg,3
22420,14:09:08,35,35,5.0.14.0,2,25,trial1,naming,0,0,0,0,eggs,0,4094,1,White_Screen.jpg,3,30,CartonEggs.jpg,3
22420,14:09:08,35,35,5.0.14.0,2,26,trial1,naming,0,0,0,0,twist toy,0,7593,1,White_Screen.jpg,4,110,Pasta_Fusilli.jpg,4
22420,14:09:08,35,35,5.0.14.0,2,27,trial1,naming,0,0,0,0,ghost,0,5036,1,White_Screen.jpg,3,136,Ghost.jpg,3
22420,14:09:08,35,35,5.0.14.0,2,28,trial1,naming,0,0,0,0,onion crisps,0,9754,1,White_Screen.jpg,4,161,OnionRings.jpg,4
22420,14:09:08,35,35,5.0.14.0,2,29,trial1,naming,0,0,0,0,pay phone,0,7868,1,White_Screen.jpg,4,42,Phone_Public.jpg,4
22420,14:09:08,35,35,5.0.14.0,2,30,trial1,naming,0,0,0,0,chick peas,0,6855,1,White_Screen.jpg,4,89,PeasSplit.jpg,4
22420,14:09:08,35,35,5.0.14.0,2,31,trial1,naming,0,0,0,0,wardrobe dresser,0,9338,1,White_Screen.jpg,4,31,Wardrobe.jpg,4
22420,14:09:08,35,35,5.0.14.0,2,32,trial1,naming,0,0,0,0,magnifying glass,0,7958,1,White_Screen.jpg,5,196,Magnifying_Glass.jpg,5
22420,14:09:08,35,35,5.0.14.0,2,33,trial1,naming,0,0,0,0,harp,0,4220,1,White_Screen.jpg,3,47,Harp.jpg,3
22420,14:09:08,35,35,5.0.14.0,2,34,trial1,naming,0,0,0,0,water bottle,0,5942,1,White_Screen.jpg,5,200,Bottle_Blue.jpg,5
22420,14:09:08,35,35,5.0.14.0,2,35,trial1,naming,0,0,0,0,razor,0,7756,1,White_Screen.jpg,4,84,Razor.jpg,4
22420,14:09:08,35,35,5.0.14.0,2,36,trial1,naming,0,0,0,0,goose,0,4775,1,White_Screen.jpg,5,137,Goose_Canadian.jpg,5
22420,14:09:08,35,35,5.0.14.0,2,37,trial1,naming,0,0,0,0,cow,0,3253,1,White_Screen.jpg,4,9,Cow.jpg,4
22420,14:09:08,35,35,5.0.14.0,2,38,trial1,naming,0,0,0,0,groceries,0,5309,1,White_Screen.jpg,5,133,Bag_Groceries.jpg,5
22420,14:09:08,35,35,5.0.14.0,2,39,trial1,naming,0,0,0,0,pwagon,0,10000,1,White_Screen.jpg,3,91,RickShaw.jpg,3
22420,14:09:08,35,35,5.0.14.0,2,40,trial1,naming,0,0,0,0,tea pot,0,5984,1,White_Screen.jpg,4,119,Kettle.jpg,4
22420,14:09:08,35,35,5.0.14.0,2,41,trial1,naming,0,0,0,0,barrel,0,4243,1,White_Screen.jpg,4,1,Barrel_Upright.jpg,4
22420,14:09:08,35,35,5.0.14.0,2,42,trial1,naming,0,0,0,0,lettuce,0,4458,1,White_Screen.jpg,3,94,Lettuce_Iceberg.jpg,3
22420,14:09:08,35,35,5.0.14.0,2,43,trial1,naming,0,0,0,0,bullet,0,4080,1,White_Screen.jpg,4,139,Bullet.jpg,4
22420,14:09:08,35,35,5.0.14.0,2,44,trial1,naming,0,0,0,0,hospital bed,0,7541,1,White_Screen.jpg,3,122,Bed_Hospital.jpg,3
22420,14:09:08,35,35,5.0.14.0,2,45,trial1,naming,0,0,0,0,celery,0,4255,1,White_Screen.jpg,4,154,Celery.jpg,4
22420,14:09:08,35,35,5.0.14.0,2,46,trial1,naming,0,0,0,0,paint brush,0,4835,1,White_Screen.jpg,4,138,Brush_Paint.jpg,4
22420,14:09:08,35,35,5.0.14.0,2,47,trial1,naming,0,0,0,0,fishing hook,0,5559,1,White_Screen.jpg,6,22,Hook_Fishing.jpg,6
22420,14:09:08,35,35,5.0.14.0,2,48,trial1,naming,0,0,0,0,fried chicken,0,8709,1,White_Screen.jpg,3,193,Chicken_FriedWing.jpg,3
22420,14:09:08,35,35,5.0.14.0,2,49,trial1,naming,0,0,0,0,warning post,0,6907,1,White_Screen.jpg,3,77,Sign_Wetfloor.jpg,3
22420,14:09:08,35,35,5.0.14.0,2,50,trial1,naming,0,0,0,0,high heel,0,6377,1,White_Screen.jpg,3,123,Shoe_Pink.jpg,3
