"date","time","group","subject","build","blocknum","trialnum","blockcode","trialcode","pretrialpause","posttrialpause","trialduration","trialtimeout","response","correct","latency","stimulusnumber1","stimulusitem1","stimulusonset1","stimulusnumber2","stimulusitem2","stimulusonset2"
"090619","12:45:14","749029464","A272X64FOZFYLB","5.0.14.0","2","1","trial1","naming","0","0","0","0","measuring spoons","0","7145","1","White_Screen.jpg","26","87","Spoons_MeasuringAttached.jpg","26"
"090619","12:45:14","749029464","A272X64FOZFYLB","5.0.14.0","2","2","trial1","naming","0","0","0","0","h","0","10000","1","White_Screen.jpg","5","160","Cup_Latte.jpg","5"
"090619","12:45:14","749029464","A272X64FOZFYLB","5.0.14.0","2","3","trial1","naming","0","0","0","0","gingerbread man","0","4115","1","White_Screen.jpg","5","19","GingerbreadMan.jpg","5"
"090619","12:45:14","749029464","A272X64FOZFYLB","5.0.14.0","2","4","trial1","naming","0","0","0","0","mallet","0","3281","1","White_Screen.jpg","4","193","Stick_Honey.jpg","4"
"090619","12:45:14","749029464","A272X64FOZFYLB","5.0.14.0","2","5","trial1","naming","0","0","0","0","vacuum","0","6989","1","White_Screen.jpg","5","38","VacuumHead.jpg","5"
"090619","12:45:14","749029464","A272X64FOZFYLB","5.0.14.0","2","6","trial1","naming","0","0","0","0","pot","0","2047","1","White_Screen.jpg","4","134","Pot_Cooking.jpg","4"
"090619","12:45:14","749029464","A272X64FOZFYLB","5.0.14.0","2","7","trial1","naming","0","0","0","0","mouse","0","3440","1","White_Screen.jpg","7","148","MousepadAndMouse.jpg","7"
"090619","12:45:14","749029464","A272X64FOZFYLB","5.0.14.0","2","8","trial1","naming","0","0","0","0","notepad","0","3248","1","White_Screen.jpg","4","5","Notepad.jpg","4"
"090619","12:45:14","749029464","A272X64FOZFYLB","5.0.14.0","2","9","trial1","naming","0","0","0","0","q-tip","0","3909","1","White_Screen.jpg","5","105","Qtip_Multiple.jpg","5"
"090619","12:45:14","749029464","A272X64FOZFYLB","5.0.14.0","2","10","trial1","naming","0","0","0","0","lid","0","5699","1","White_Screen.jpg","5","31","CoffeeLid.jpg","5"
"090619","12:45:14","749029464","A272X64FOZFYLB","5.0.14.0","2","11","trial1","naming","0","0","0","0","tent","0","3005","1","White_Screen.jpg","4","45","Hangar.jpg","4"
"090619","12:45:14","749029464","A272X64FOZFYLB","5.0.14.0","2","12","trial1","naming","0","0","0","0","drumstick","0","2483","1","White_Screen.jpg","5","136","Chicken_FriedDrum.jpg","5"
"090619","12:45:14","749029464","A272X64FOZFYLB","5.0.14.0","2","13","trial1","naming","0","0","0","0","leopard","0","2661","1","White_Screen.jpg","4","117","Cougar.jpg","4"
"090619","12:45:14","749029464","A272X64FOZFYLB","5.0.14.0","2","14","trial1","naming","0","0","0","0","Ctrl+'Q'","1","9584","1","White_Screen.jpg","5","57","SolderingIron.jpg","5"
"090619","12:51:12","755368095","A2EI9E6EBZEZO1","5.0.14.0","2","1","trial1","naming","0","0","0","0","controller","0","9554","1","White_Screen.jpg","78","52","Joystick.jpg","78"
"090619","12:51:12","755368095","A2EI9E6EBZEZO1","5.0.14.0","2","2","trial1","naming","0","0","0","0","salad","0","3570","1","White_Screen.jpg","6","170","SaladCaesar.jpg","6"
"090619","12:51:12","755368095","A2EI9E6EBZEZO1","5.0.14.0","2","3","trial1","naming","0","0","0","0","pedastal","0","5040","1","White_Screen.jpg","9","132","Tribunal_Wooden.jpg","9"
"090619","12:51:12","755368095","A2EI9E6EBZEZO1","5.0.14.0","2","4","trial1","naming","0","0","0","0","wood basket","0","5881","1","White_Screen.jpg","8","30","Basket_Firewood.jpg","8"
"090619","12:51:12","755368095","A2EI9E6EBZEZO1","5.0.14.0","2","5","trial1","naming","0","0","0","0","bird","0","3055","1","White_Screen.jpg","9","145","Bird_Parrot.jpg","9"
"090619","12:51:12","755368095","A2EI9E6EBZEZO1","5.0.14.0","2","6","trial1","naming","0","0","0","0","picnic table","0","5654","1","White_Screen.jpg","11","36","Table_Picnic.jpg","11"
"090619","12:51:12","755368095","A2EI9E6EBZEZO1","5.0.14.0","2","7","trial1","naming","0","0","0","0","vacuum","0","3886","1","White_Screen.jpg","13","38","VacuumHead.jpg","13"
"090619","12:51:12","755368095","A2EI9E6EBZEZO1","5.0.14.0","2","8","trial1","naming","0","0","0","0","tag","0","2749","1","White_Screen.jpg","11","15","Tag_Price.jpg","11"
"090619","12:51:12","755368095","A2EI9E6EBZEZO1","5.0.14.0","2","9","trial1","naming","0","0","0","0","bolt","0","4130","1","White_Screen.jpg","7","21","Clamp_Screw.jpg","7"
"090619","12:51:12","755368095","A2EI9E6EBZEZO1","5.0.14.0","2","10","trial1","naming","0","0","0","0","chair","0","2798","1","White_Screen.jpg","8","194","Armchair.jpg","8"
"090619","12:51:12","755368095","A2EI9E6EBZEZO1","5.0.14.0","2","11","trial1","naming","0","0","0","0","wagon","0","3395","1","White_Screen.jpg","7","179","WagonPilgrim.jpg","7"
"090619","12:51:12","755368095","A2EI9E6EBZEZO1","5.0.14.0","2","12","trial1","naming","0","0","0","0","instrument","0","5558","1","White_Screen.jpg","10","115","Instrument_Nyckelharpa.jpg","10"
"090619","12:51:12","755368095","A2EI9E6EBZEZO1","5.0.14.0","2","13","trial1","naming","0","0","0","0","fruit salad","0","7124","1","White_Screen.jpg","9","162","Bowl_Fruits.jpg","9"
"090619","12:51:12","755368095","A2EI9E6EBZEZO1","5.0.14.0","2","14","trial1","naming","0","0","0","0","leg","0","3197","1","White_Screen.jpg","11","71","Leg.jpg","11"
"090619","12:51:12","755368095","A2EI9E6EBZEZO1","5.0.14.0","2","15","trial1","naming","0","0","0","0","ferret","0","4132","1","White_Screen.jpg","8","200","Ferret.jpg","8"
"090619","12:51:12","755368095","A2EI9E6EBZEZO1","5.0.14.0","2","16","trial1","naming","0","0","0","0","robe","0","7616","1","White_Screen.jpg","8","49","Costume_Wizard.jpg","8"
"090619","12:51:12","755368095","A2EI9E6EBZEZO1","5.0.14.0","2","17","trial1","naming","0","0","0","0","pad","0","4763","1","White_Screen.jpg","11","127","Notepad_WithPen.jpg","11"
"090619","12:51:12","755368095","A2EI9E6EBZEZO1","5.0.14.0","2","18","trial1","naming","0","0","0","0","light","0","3103","1","White_Screen.jpg","11","125","Spotlight.jpg","11"
"090619","12:51:12","755368095","A2EI9E6EBZEZO1","5.0.14.0","2","19","trial1","naming","0","0","0","0","starfruit","0","5074","1","White_Screen.jpg","16","17","Fruit_Carambola.jpg","16"
"090619","12:51:12","755368095","A2EI9E6EBZEZO1","5.0.14.0","2","20","trial1","naming","0","0","0","0","lamp","0","4243","1","White_Screen.jpg","12","107","Lamp_TableWhite.jpg","12"
"090619","12:51:12","755368095","A2EI9E6EBZEZO1","5.0.14.0","2","21","trial1","naming","0","0","0","0","plant","0","3500","1","White_Screen.jpg","10","176","PlantPotted.jpg","10"
"090619","12:51:12","755368095","A2EI9E6EBZEZO1","5.0.14.0","2","22","trial1","naming","0","0","0","0","microphone","0","6667","1","White_Screen.jpg","10","74","Microphone.jpg","10"
"090619","12:51:12","755368095","A2EI9E6EBZEZO1","5.0.14.0","2","23","trial1","naming","0","0","0","0","necklace","0","4207","1","White_Screen.jpg","6","23","Necklace_Pearl.jpg","6"
"090619","12:51:12","755368095","A2EI9E6EBZEZO1","5.0.14.0","2","24","trial1","naming","0","0","0","0","qtip","0","9459","1","White_Screen.jpg","8","105","Qtip_Multiple.jpg","8"
"090619","12:51:12","755368095","A2EI9E6EBZEZO1","5.0.14.0","2","25","trial1","naming","0","0","0","0","bowl","0","2711","1","White_Screen.jpg","6","65","Bowl_Wooden.jpg","6"
"090619","12:51:12","755368095","A2EI9E6EBZEZO1","5.0.14.0","2","26","trial1","naming","0","0","0","0","latte","0","3323","1","White_Screen.jpg","10","160","Cup_Latte.jpg","10"
"090619","12:51:12","755368095","A2EI9E6EBZEZO1","5.0.14.0","2","27","trial1","naming","0","0","0","0","cup top","0","4529","1","White_Screen.jpg","6","31","CoffeeLid.jpg","6"
"090619","12:51:12","755368095","A2EI9E6EBZEZO1","5.0.14.0","2","28","trial1","naming","0","0","0","0","mirror","0","4062","1","White_Screen.jpg","11","96","Compact_Mirror.jpg","11"
"090619","12:51:12","755368095","A2EI9E6EBZEZO1","5.0.14.0","2","29","trial1","naming","0","0","0","0","drumstick","0","5758","1","White_Screen.jpg","11","136","Chicken_FriedDrum.jpg","11"
"090619","12:51:12","755368095","A2EI9E6EBZEZO1","5.0.14.0","2","30","trial1","naming","0","0","0","0","trash","0","3582","1","White_Screen.jpg","8","164","Bag_Garbage.jpg","8"
"090619","12:51:12","755368095","A2EI9E6EBZEZO1","5.0.14.0","2","31","trial1","naming","0","0","0","0","shampoo","0","4323","1","White_Screen.jpg","5","47","Shampoo.jpg","5"
"090619","12:51:12","755368095","A2EI9E6EBZEZO1","5.0.14.0","2","32","trial1","naming","0","0","0","0","cheese plate","0","5579","1","White_Screen.jpg","10","166","Cheese_Platter.jpg","10"
"090619","12:51:12","755368095","A2EI9E6EBZEZO1","5.0.14.0","2","33","trial1","naming","0","0","0","0","protein powder","0","6660","1","White_Screen.jpg","10","42","PowderProtein.jpg","10"
"090619","12:51:12","755368095","A2EI9E6EBZEZO1","5.0.14.0","2","34","trial1","naming","0","0","0","0","fish tank","0","3866","1","White_Screen.jpg","9","144","Aquarium.jpg","9"
"090619","12:51:12","755368095","A2EI9E6EBZEZO1","5.0.14.0","2","35","trial1","naming","0","0","0","0","truck","0","3815","1","White_Screen.jpg","8","48","Truck_Dump.jpg","8"
"090619","12:51:12","755368095","A2EI9E6EBZEZO1","5.0.14.0","2","36","trial1","naming","0","0","0","0","notebook","0","6107","1","White_Screen.jpg","9","37","DayPlanner.jpg","9"
"090619","12:51:12","755368095","A2EI9E6EBZEZO1","5.0.14.0","2","37","trial1","naming","0","0","0","0","freezer","0","4834","1","White_Screen.jpg","11","173","Freezer.jpg","11"
"090619","12:51:12","755368095","A2EI9E6EBZEZO1","5.0.14.0","2","38","trial1","naming","0","0","0","0","pita","0","2886","1","White_Screen.jpg","6","1","Tortilla.jpg","6"
"090619","12:51:12","755368095","A2EI9E6EBZEZO1","5.0.14.0","2","39","trial1","naming","0","0","0","0","dog food","0","3542","1","White_Screen.jpg","11","174","DogFood.jpg","11"
"090619","12:51:12","755368095","A2EI9E6EBZEZO1","5.0.14.0","2","40","trial1","naming","0","0","0","0","snow brush","0","5552","1","White_Screen.jpg","12","41","Brush_Winter.jpg","12"
"090619","12:51:12","755368095","A2EI9E6EBZEZO1","5.0.14.0","2","41","trial1","naming","0","0","0","0","tombstone","0","4760","1","White_Screen.jpg","8","157","Tombstone.jpg","8"
"090619","12:51:12","755368095","A2EI9E6EBZEZO1","5.0.14.0","2","42","trial1","naming","0","0","0","0","grater","0","3932","1","White_Screen.jpg","9","16","FoodMill.jpg","9"
"090619","12:51:12","755368095","A2EI9E6EBZEZO1","5.0.14.0","2","43","trial1","naming","0","0","0","0","battery","0","6056","1","White_Screen.jpg","7","154","HardDrive.jpg","7"
"090619","12:51:12","755368095","A2EI9E6EBZEZO1","5.0.14.0","2","44","trial1","naming","0","0","0","0","coconut","0","3904","1","White_Screen.jpg","6","85","Coconut.jpg","6"
"090619","12:51:12","755368095","A2EI9E6EBZEZO1","5.0.14.0","2","45","trial1","naming","0","0","0","0","vegetable platter","0","6247","1","White_Screen.jpg","14","187","Platter_Vegetables.jpg","14"
"090619","12:51:12","755368095","A2EI9E6EBZEZO1","5.0.14.0","2","46","trial1","naming","0","0","0","0","sideview mirror","0","7065","1","White_Screen.jpg","9","91","Mirror_Carside.jpg","9"
"090619","12:51:12","755368095","A2EI9E6EBZEZO1","5.0.14.0","2","47","trial1","naming","0","0","0","0","christmas light","0","8549","1","White_Screen.jpg","10","72","LightBulb_Christmas.jpg","10"
"090619","12:51:12","755368095","A2EI9E6EBZEZO1","5.0.14.0","2","48","trial1","naming","0","0","0","0","18 wheeler","0","7476","1","White_Screen.jpg","12","46","Truck_Tanker.jpg","12"
"090619","12:51:12","755368095","A2EI9E6EBZEZO1","5.0.14.0","2","49","trial1","naming","0","0","0","0","brander","0","3954","1","White_Screen.jpg","10","6","Stick_Bridge.jpg","10"
"090619","12:51:12","755368095","A2EI9E6EBZEZO1","5.0.14.0","2","50","trial1","naming","0","0","0","0","art palet","0","5287","1","White_Screen.jpg","10","184","PaintBrushAndPallette.jpg","10"
"090619","12:51:12","755368095","A2EI9E6EBZEZO1","5.0.14.0","2","52","trial1","naming","0","0","0","0","salad tong","0","8785","1","White_Screen.jpg","10","82","Spoons_Musical.jpg","10"
"090619","12:51:12","755368095","A2EI9E6EBZEZO1","5.0.14.0","2","53","trial1","naming","0","0","0","0","rocket","0","3600","1","White_Screen.jpg","7","186","Missile.jpg","7"
"090619","12:51:12","755368095","A2EI9E6EBZEZO1","5.0.14.0","2","54","trial1","naming","0","0","0","0","bulldozer","0","5150","1","White_Screen.jpg","8","34","Bulldozer.jpg","8"
"090619","12:51:12","755368095","A2EI9E6EBZEZO1","5.0.14.0","2","55","trial1","naming","0","0","0","0","writing pad","0","4852","1","White_Screen.jpg","11","5","Notepad.jpg","11"
"090619","12:51:12","755368095","A2EI9E6EBZEZO1","5.0.14.0","2","56","trial1","naming","0","0","0","0","castle","0","3636","1","White_Screen.jpg","8","9","Castle_Model.jpg","8"
"090619","12:51:12","755368095","A2EI9E6EBZEZO1","5.0.14.0","2","57","trial1","naming","0","0","0","0","statue","0","4822","1","White_Screen.jpg","10","177","Statue_Jesus.jpg","10"
"090619","12:51:12","755368095","A2EI9E6EBZEZO1","5.0.14.0","2","58","trial1","naming","0","0","0","0","sheers","0","3782","1","White_Screen.jpg","9","40","Clippers_Glass.jpg","9"
"090619","12:51:12","755368095","A2EI9E6EBZEZO1","5.0.14.0","2","59","trial1","naming","0","0","0","0","almond","0","3278","1","White_Screen.jpg","10","64","Almond.jpg","10"
"090619","12:51:12","755368095","A2EI9E6EBZEZO1","5.0.14.0","2","60","trial1","naming","0","0","0","0","swing bench","0","6369","1","White_Screen.jpg","5","104","Swing_Porch.jpg","5"
"090619","12:51:12","755368095","A2EI9E6EBZEZO1","5.0.14.0","2","61","trial1","naming","0","0","0","0","light swtich","0","4368","1","White_Screen.jpg","10","147","Switch_LightBlack.jpg","10"
"090619","12:51:12","755368095","A2EI9E6EBZEZO1","5.0.14.0","2","62","trial1","naming","0","0","0","0","wine","0","2633","1","White_Screen.jpg","6","14","Bottle_Wine.jpg","6"
"090619","12:51:12","755368095","A2EI9E6EBZEZO1","5.0.14.0","2","63","trial1","naming","0","0","0","0","basket","0","4769","1","White_Screen.jpg","8","98","Basket_Plastic.jpg","8"
"090619","12:51:12","755368095","A2EI9E6EBZEZO1","5.0.14.0","2","64","trial1","naming","0","0","0","0","trash can","0","3896","1","White_Screen.jpg","8","123","Garbage_GreenBin.jpg","8"
"090619","12:51:12","755368095","A2EI9E6EBZEZO1","5.0.14.0","2","65","trial1","naming","0","0","0","0","tube","0","4320","1","White_Screen.jpg","13","100","Catheter.jpg","13"
"090619","12:51:12","755368095","A2EI9E6EBZEZO1","5.0.14.0","2","66","trial1","naming","0","0","0","0","measure spoons","0","7262","1","White_Screen.jpg","6","87","Spoons_MeasuringAttached.jpg","6"
"090619","12:51:12","755368095","A2EI9E6EBZEZO1","5.0.14.0","2","67","trial1","naming","0","0","0","0","scrunchie","0","3830","1","White_Screen.jpg","6","152","HairScrunchie.jpg","6"
"090619","12:51:12","755368095","A2EI9E6EBZEZO1","5.0.14.0","2","68","trial1","naming","0","0","0","0","map","0","2467","1","White_Screen.jpg","9","66","WorldMap.jpg","9"
"090619","12:51:12","755368095","A2EI9E6EBZEZO1","5.0.14.0","2","69","trial1","naming","0","0","0","0","pepperoni","0","3801","1","White_Screen.jpg","7","167","Pepperoni.jpg","7"
"090619","12:51:12","755368095","A2EI9E6EBZEZO1","5.0.14.0","2","70","trial1","naming","0","0","0","0","knee pad","0","3413","1","White_Screen.jpg","9","112","Kneepad.jpg","9"
"090619","12:51:12","755368095","A2EI9E6EBZEZO1","5.0.14.0","2","71","trial1","naming","0","0","0","0","sock","0","3130","1","White_Screen.jpg","8","33","Sock_Ankle.jpg","8"
"090619","12:51:12","755368095","A2EI9E6EBZEZO1","5.0.14.0","2","72","trial1","naming","0","0","0","0","cornhole","0","6144","1","White_Screen.jpg","9","138","SandBagThrowGame.jpg","9"
"090619","12:51:12","755368095","A2EI9E6EBZEZO1","5.0.14.0","2","73","trial1","naming","0","0","0","0","mouse pad","0","3349","1","White_Screen.jpg","5","148","MousepadAndMouse.jpg","5"
"090619","12:51:12","755368095","A2EI9E6EBZEZO1","5.0.14.0","2","74","trial1","naming","0","0","0","0","ring","0","3309","1","White_Screen.jpg","6","93","Ring_Plain.jpg","6"
"090619","12:51:12","755368095","A2EI9E6EBZEZO1","5.0.14.0","2","75","trial1","naming","0","0","0","0","garlic","0","2845","1","White_Screen.jpg","14","58","Garlic_Whole.jpg","14"
"090619","12:51:12","755368095","A2EI9E6EBZEZO1","5.0.14.0","2","76","trial1","naming","0","0","0","0","printer","0","3177","1","White_Screen.jpg","10","95","Printer.jpg","10"
"090619","12:51:12","755368095","A2EI9E6EBZEZO1","5.0.14.0","2","77","trial1","naming","0","0","0","0","mask","0","2571","1","White_Screen.jpg","9","13","Mask_Happy.jpg","9"
"090619","12:51:12","755368095","A2EI9E6EBZEZO1","5.0.14.0","2","78","trial1","naming","0","0","0","0","accordian","0","4716","1","White_Screen.jpg","9","172","Accordion.jpg","9"
"090619","12:51:12","755368095","A2EI9E6EBZEZO1","5.0.14.0","2","79","trial1","naming","0","0","0","0","keys","0","2730","1","White_Screen.jpg","9","78","Keys_Bunch.jpg","9"
"090619","12:51:12","755368095","A2EI9E6EBZEZO1","5.0.14.0","2","80","trial1","naming","0","0","0","0","crackers","0","3679","1","White_Screen.jpg","9","139","Crackers_Ritz.jpg","9"
"090619","12:51:12","755368095","A2EI9E6EBZEZO1","5.0.14.0","2","81","trial1","naming","0","0","0","0","block","0","2823","1","White_Screen.jpg","8","110","Toy_WoodenPlainSingle.jpg","8"
"090619","12:51:12","755368095","A2EI9E6EBZEZO1","5.0.14.0","2","82","trial1","naming","0","0","0","0","panda","0","4400","1","White_Screen.jpg","8","81","Toy_PandaPlushie.jpg","8"
"090619","12:51:12","755368095","A2EI9E6EBZEZO1","5.0.14.0","2","83","trial1","naming","0","0","0","0","donkey","0","4058","1","White_Screen.jpg","10","106","Toy_DonkeyFur.jpg","10"
"090619","12:51:12","755368095","A2EI9E6EBZEZO1","5.0.14.0","2","84","trial1","naming","0","0","0","0","drying rack","0","4309","1","White_Screen.jpg","7","73","WashRack.jpg","7"
"090619","12:51:12","755368095","A2EI9E6EBZEZO1","5.0.14.0","2","85","trial1","naming","0","0","0","0","clock","0","3688","1","White_Screen.jpg","14","28","Clock_Radio.jpg","14"
"090619","12:51:12","755368095","A2EI9E6EBZEZO1","5.0.14.0","2","86","trial1","naming","0","0","0","0","ribbon","0","8600","1","White_Screen.jpg","10","178","RibbonPin.jpg","10"
"090619","12:51:12","755368095","A2EI9E6EBZEZO1","5.0.14.0","2","87","trial1","naming","0","0","0","0","taxi","0","3053","1","White_Screen.jpg","5","121","Toy_Taxi.jpg","5"
"090619","12:51:12","755368095","A2EI9E6EBZEZO1","5.0.14.0","2","88","trial1","naming","0","0","0","0","buggy","0","4179","1","White_Screen.jpg","9","32","Car_Buggy.jpg","9"
"090619","12:51:12","755368095","A2EI9E6EBZEZO1","5.0.14.0","2","89","trial1","naming","0","0","0","0","gummy bear","0","4645","1","White_Screen.jpg","11","89","Candy_GummyBear.jpg","11"
"090619","12:51:12","755368095","A2EI9E6EBZEZO1","5.0.14.0","2","90","trial1","naming","0","0","0","0","butterfly","0","3870","1","White_Screen.jpg","7","137","Butterfly.jpg","7"
"090619","12:51:12","755368095","A2EI9E6EBZEZO1","5.0.14.0","2","91","trial1","naming","0","0","0","0","pillow","0","3660","1","White_Screen.jpg","9","161","Pillow_Plaid.jpg","9"
"090619","12:51:12","755368095","A2EI9E6EBZEZO1","5.0.14.0","2","92","trial1","naming","0","0","0","0","pan","0","2929","1","White_Screen.jpg","9","90","Fryingpan.jpg","9"
"090619","12:51:12","755368095","A2EI9E6EBZEZO1","5.0.14.0","2","93","trial1","naming","0","0","0","0","truck","0","3007","1","White_Screen.jpg","9","133","Truck_VintageBlue.jpg","9"
"090619","12:51:12","755368095","A2EI9E6EBZEZO1","5.0.14.0","2","94","trial1","naming","0","0","0","0","cauliflower","0","3822","1","White_Screen.jpg","8","180","Cauliflower.jpg","8"
"090619","12:51:12","755368095","A2EI9E6EBZEZO1","5.0.14.0","2","95","trial1","naming","0","0","0","0","pin","0","3455","1","White_Screen.jpg","13","94","SafetyPin.jpg","13"
"090619","12:51:12","755368095","A2EI9E6EBZEZO1","5.0.14.0","2","96","trial1","naming","0","0","0","0","tower","0","5061","1","White_Screen.jpg","12","97","SiloGrain.jpg","12"
"090619","12:51:12","755368095","A2EI9E6EBZEZO1","5.0.14.0","2","97","trial1","naming","0","0","0","0","thermostat","0","5091","1","White_Screen.jpg","9","175","Thermostat.jpg","9"
"090619","12:51:12","755368095","A2EI9E6EBZEZO1","5.0.14.0","2","98","trial1","naming","0","0","0","0","spring","0","8127","1","White_Screen.jpg","9","57","SolderingIron.jpg","9"
"090619","12:51:12","755368095","A2EI9E6EBZEZO1","5.0.14.0","2","99","trial1","naming","0","0","0","0","pepper","0","3584","1","White_Screen.jpg","6","10","Pepper_Green.jpg","6"
"090619","12:51:12","755368095","A2EI9E6EBZEZO1","5.0.14.0","2","100","trial1","naming","0","0","0","0","dog","0","2676","1","White_Screen.jpg","9","159","Dog_ChowChow.jpg","9"
"090619","12:51:12","755368095","A2EI9E6EBZEZO1","5.0.14.0","2","101","trial1","naming","0","0","0","0","needle","0","6447","1","White_Screen.jpg","9","35","Diode.jpg","9"
"090619","12:51:12","755368095","A2EI9E6EBZEZO1","5.0.14.0","2","103","trial1","naming","0","0","0","0","door bell","0","6948","1","White_Screen.jpg","6","3","DoorBell.jpg","6"
"090619","12:51:12","755368095","A2EI9E6EBZEZO1","5.0.14.0","2","104","trial1","naming","0","0","0","0","clip","0","2569","1","White_Screen.jpg","8","8","Clip_Chip.jpg","8"
"090619","12:51:12","755368095","A2EI9E6EBZEZO1","5.0.14.0","2","105","trial1","naming","0","0","0","0","bucket","0","5131","1","White_Screen.jpg","10","119","Bucket_Champagne.jpg","10"
"090619","12:51:12","755368095","A2EI9E6EBZEZO1","5.0.14.0","2","106","trial1","naming","0","0","0","0","mask","0","3442","1","White_Screen.jpg","7","92","Mask_Buddhist.jpg","7"
"090619","12:51:12","755368095","A2EI9E6EBZEZO1","5.0.14.0","2","107","trial1","naming","0","0","0","0","lighter","0","3249","1","White_Screen.jpg","8","22","Lighter_Black.jpg","8"
"090619","12:51:12","755368095","A2EI9E6EBZEZO1","5.0.14.0","2","108","trial1","naming","0","0","0","0","nickel","0","4235","1","White_Screen.jpg","13","116","Coin.jpg","13"
"090619","12:51:12","755368095","A2EI9E6EBZEZO1","5.0.14.0","2","109","trial1","naming","0","0","0","0","telescope","0","5352","1","White_Screen.jpg","9","156","Telescope.jpg","9"
"090619","12:51:12","755368095","A2EI9E6EBZEZO1","5.0.14.0","2","110","trial1","naming","0","0","0","0","pear","0","2446","1","White_Screen.jpg","12","120","Pear_Yellow.jpg","12"
"090619","12:51:12","755368095","A2EI9E6EBZEZO1","5.0.14.0","2","111","trial1","naming","0","0","0","0","pot","0","2447","1","White_Screen.jpg","14","196","Pot_CastIron.jpg","14"
"090619","12:51:12","755368095","A2EI9E6EBZEZO1","5.0.14.0","2","112","trial1","naming","0","0","0","0","napkins","0","3973","1","White_Screen.jpg","7","182","Box_Notepaper.jpg","7"
"090619","12:51:12","755368095","A2EI9E6EBZEZO1","5.0.14.0","2","113","trial1","naming","0","0","0","0","mallett","0","4310","1","White_Screen.jpg","9","193","Stick_Honey.jpg","9"
"090619","12:51:12","755368095","A2EI9E6EBZEZO1","5.0.14.0","2","114","trial1","naming","0","0","0","0","tamborine","0","4138","1","White_Screen.jpg","6","181","Tambourine.jpg","6"
"090619","12:51:12","755368095","A2EI9E6EBZEZO1","5.0.14.0","2","115","trial1","naming","0","0","0","0","easle","0","3061","1","White_Screen.jpg","7","79","Easel.jpg","7"
"090619","12:51:12","755368095","A2EI9E6EBZEZO1","5.0.14.0","2","116","trial1","naming","0","0","0","0","thermometer","0","6212","1","White_Screen.jpg","12","118","Thermometer_Room.jpg","12"
"090619","12:51:12","755368095","A2EI9E6EBZEZO1","5.0.14.0","2","117","trial1","naming","0","0","0","0","barn","0","4364","1","White_Screen.jpg","6","45","Hangar.jpg","6"
"090619","12:51:12","755368095","A2EI9E6EBZEZO1","5.0.14.0","2","118","trial1","naming","0","0","0","0","folder","0","3198","1","White_Screen.jpg","7","59","FileFolder.jpg","7"
"090619","12:51:12","755368095","A2EI9E6EBZEZO1","5.0.14.0","2","119","trial1","naming","0","0","0","0","pasifier","0","9245","1","White_Screen.jpg","9","151","Pacifier.jpg","9"
"090619","12:51:12","755368095","A2EI9E6EBZEZO1","5.0.14.0","2","120","trial1","naming","0","0","0","0","tank","0","3192","1","White_Screen.jpg","5","18","AirTank.jpg","5"
"090619","12:51:12","755368095","A2EI9E6EBZEZO1","5.0.14.0","2","121","trial1","naming","0","0","0","0","rope\","0","2874","1","White_Screen.jpg","7","75","ShoeLace_Round.jpg","7"
"090619","12:51:12","755368095","A2EI9E6EBZEZO1","5.0.14.0","2","122","trial1","naming","0","0","0","0","cracker","0","4323","1","White_Screen.jpg","6","168","Stone_AncientWriting.jpg","6"
"090619","12:51:12","755368095","A2EI9E6EBZEZO1","5.0.14.0","2","123","trial1","naming","0","0","0","0","robot","0","3700","1","White_Screen.jpg","7","20","SpaceRover.jpg","7"
"090619","12:51:12","755368095","A2EI9E6EBZEZO1","5.0.14.0","2","124","trial1","naming","0","0","0","0","pot","0","2645","1","White_Screen.jpg","12","134","Pot_Cooking.jpg","12"
"090619","12:51:12","755368095","A2EI9E6EBZEZO1","5.0.14.0","2","125","trial1","naming","0","0","0","0","squash","0","4975","1","White_Screen.jpg","9","99","Honeydew_yellow.jpg","9"
"090619","12:51:12","755368095","A2EI9E6EBZEZO1","5.0.14.0","2","126","trial1","naming","0","0","0","0","board","0","5070","1","White_Screen.jpg","7","165","BoogieBoard.jpg","7"
"090619","12:51:12","755368095","A2EI9E6EBZEZO1","5.0.14.0","2","127","trial1","naming","0","0","0","0","wheel","0","4835","1","White_Screen.jpg","7","80","Hubcap.jpg","7"
"090619","12:51:12","755368095","A2EI9E6EBZEZO1","5.0.14.0","2","128","trial1","naming","0","0","0","0","tea","0","2944","1","White_Screen.jpg","8","130","Teabag.jpg","8"
"090619","12:51:12","755368095","A2EI9E6EBZEZO1","5.0.14.0","2","129","trial1","naming","0","0","0","0","mitten","0","3172","1","White_Screen.jpg","6","188","Mitt_Blue.jpg","6"
"090619","12:51:12","755368095","A2EI9E6EBZEZO1","5.0.14.0","2","130","trial1","naming","0","0","0","0","stapler","0","2906","1","White_Screen.jpg","10","190","Stapler_Regular.jpg","10"
"090619","12:51:12","755368095","A2EI9E6EBZEZO1","5.0.14.0","2","131","trial1","naming","0","0","0","0","shoes","0","3853","1","White_Screen.jpg","10","101","Shoes_Snow.jpg","10"
"090619","12:51:12","755368095","A2EI9E6EBZEZO1","5.0.14.0","2","132","trial1","naming","0","0","0","0","kazoo","0","4230","1","White_Screen.jpg","10","135","Kazoo.jpg","10"
"090619","12:51:12","755368095","A2EI9E6EBZEZO1","5.0.14.0","2","133","trial1","naming","0","0","0","0","cookie","0","3432","1","White_Screen.jpg","6","197","Cookie.jpg","6"
"090619","12:51:12","755368095","A2EI9E6EBZEZO1","5.0.14.0","2","134","trial1","naming","0","0","0","0","cougar","0","3501","1","White_Screen.jpg","9","117","Cougar.jpg","9"
"090619","12:51:12","755368095","A2EI9E6EBZEZO1","5.0.14.0","2","135","trial1","naming","0","0","0","0","ornament","0","3564","1","White_Screen.jpg","7","171","Decoration_ChristmasWhite.jpg","7"
"090619","12:51:12","755368095","A2EI9E6EBZEZO1","5.0.14.0","2","136","trial1","naming","0","0","0","0","paddle ball","0","4137","1","White_Screen.jpg","7","128","Paddle_Ball.jpg","7"
"090619","12:51:12","755368095","A2EI9E6EBZEZO1","5.0.14.0","2","137","trial1","naming","0","0","0","0","hawk","0","4375","1","White_Screen.jpg","9","88","Hawk.jpg","9"
"090619","12:51:12","755368095","A2EI9E6EBZEZO1","5.0.14.0","2","138","trial1","naming","0","0","0","0","cotton candy","0","4473","1","White_Screen.jpg","10","69","Candy_Cotton.jpg","10"
"090619","12:51:12","755368095","A2EI9E6EBZEZO1","5.0.14.0","2","139","trial1","naming","0","0","0","0","tomb","0","5942","1","White_Screen.jpg","11","55","Jar_Canopic.jpg","11"
"090619","12:51:12","755368095","A2EI9E6EBZEZO1","5.0.14.0","2","140","trial1","naming","0","0","0","0","hanger","0","2720","1","White_Screen.jpg","8","102","Hanger.jpg","8"
"090619","12:51:12","755368095","A2EI9E6EBZEZO1","5.0.14.0","2","141","trial1","naming","0","0","0","0","tub","0","5199","1","White_Screen.jpg","7","113","Hottub.jpg","7"
"090619","12:51:12","755368095","A2EI9E6EBZEZO1","5.0.14.0","2","142","trial1","naming","0","0","0","0","sprouts","0","4423","1","White_Screen.jpg","8","24","Alfalfa.jpg","8"
"090619","12:51:12","755368095","A2EI9E6EBZEZO1","5.0.14.0","2","143","trial1","naming","0","0","0","0","toolbox","0","4162","1","White_Screen.jpg","9","68","Toolbox_Red.jpg","9"
"090619","12:51:12","755368095","A2EI9E6EBZEZO1","5.0.14.0","2","144","trial1","naming","0","0","0","0","bench","0","2917","1","White_Screen.jpg","13","51","Bench_Black.jpg","13"
"090619","12:51:12","755368095","A2EI9E6EBZEZO1","5.0.14.0","2","145","trial1","naming","0","0","0","0","ginerbread man","0","5154","1","White_Screen.jpg","9","19","GingerbreadMan.jpg","9"
"090619","12:51:12","755368095","A2EI9E6EBZEZO1","5.0.14.0","2","146","trial1","naming","0","0","0","0","fish","0","2408","1","White_Screen.jpg","10","7","Fish_Rockbass.jpg","10"
"090619","12:51:12","755368095","A2EI9E6EBZEZO1","5.0.14.0","2","147","trial1","naming","0","0","0","0","vase","0","2603","1","White_Screen.jpg","9","189","Vase_Decorative.jpg","9"
"090619","12:51:12","755368095","A2EI9E6EBZEZO1","5.0.14.0","2","148","trial1","naming","0","0","0","0","sunflower","0","3780","1","White_Screen.jpg","12","61","Flower_Sun.jpg","12"
"090619","12:51:12","755368095","A2EI9E6EBZEZO1","5.0.14.0","2","149","trial1","naming","0","0","0","0","siren","0","3701","1","White_Screen.jpg","11","143","Light_Siren.jpg","11"
"090619","12:51:12","755368095","A2EI9E6EBZEZO1","5.0.14.0","2","150","trial1","naming","0","0","0","0","cd case","0","3813","1","White_Screen.jpg","6","62","Case_CD.jpg","6"
"090619","12:51:12","755368095","A2EI9E6EBZEZO1","5.0.14.0","2","151","trial1","naming","0","0","0","0","cannoli","0","4011","1","White_Screen.jpg","10","54","Cannoli.jpg","10"
"090619","12:51:12","755368095","A2EI9E6EBZEZO1","5.0.14.0","2","152","trial1","naming","0","0","0","0","light","0","2986","1","White_Screen.jpg","8","199","Stroboscope.jpg","8"
"090619","12:51:12","755368095","A2EI9E6EBZEZO1","5.0.14.0","2","154","trial1","naming","0","0","0","0","sign","0","5995","1","White_Screen.jpg","7","26","Sign_Open.jpg","7"
"090619","12:51:12","755368095","A2EI9E6EBZEZO1","5.0.14.0","2","155","trial1","naming","0","0","0","0","bandaid","0","3959","1","White_Screen.jpg","11","129","Bandage_Adhesive.jpg","11"
"090619","12:51:12","755368095","A2EI9E6EBZEZO1","5.0.14.0","2","156","trial1","naming","0","0","0","0","case","0","2676","1","White_Screen.jpg","8","158","Case_Leather.jpg","8"
"090619","12:51:12","755368095","A2EI9E6EBZEZO1","5.0.14.0","2","157","trial1","naming","0","0","0","0","nail polish","0","5181","1","White_Screen.jpg","7","27","Makeup_Foundation.jpg","7"
"090619","12:51:12","755368095","A2EI9E6EBZEZO1","5.0.14.0","2","158","trial1","naming","0","0","0","0","popcorn","0","3357","1","White_Screen.jpg","12","84","Popcorn.jpg","12"
"090619","12:51:12","755368095","A2EI9E6EBZEZO1","5.0.14.0","2","159","trial1","naming","0","0","0","0","wood eggs","0","4364","1","White_Screen.jpg","9","11","Egg_Wooden.jpg","9"
"090619","12:51:12","755368095","A2EI9E6EBZEZO1","5.0.14.0","2","160","trial1","naming","0","0","0","0","peacock","0","4247","1","White_Screen.jpg","10","122","Bird_Peacock.jpg","10"
"090619","12:51:12","755368095","A2EI9E6EBZEZO1","5.0.14.0","2","161","trial1","naming","0","0","0","0","opener","0","3168","1","White_Screen.jpg","10","53","Peeler.jpg","10"
"090619","12:51:12","755368095","A2EI9E6EBZEZO1","5.0.14.0","2","162","trial1","naming","0","0","0","0","bone","0","2929","1","White_Screen.jpg","8","195","Bone.jpg","8"
"090619","12:51:12","755368095","A2EI9E6EBZEZO1","5.0.14.0","2","163","trial1","naming","0","0","0","0","tea bag","0","6679","1","White_Screen.jpg","9","83","Strainer_Tea.jpg","9"
"090619","12:51:12","755368095","A2EI9E6EBZEZO1","5.0.14.0","2","164","trial1","naming","0","0","0","0","compass","0","8212","1","White_Screen.jpg","6","39","CompassCardinal.jpg","6"
"090619","12:51:12","755368095","A2EI9E6EBZEZO1","5.0.14.0","2","165","trial1","naming","0","0","0","0","donut","0","3666","1","White_Screen.jpg","8","25","Donut.jpg","8"
"090619","12:51:12","755368095","A2EI9E6EBZEZO1","5.0.14.0","2","166","trial1","naming","0","0","0","0","bag","0","4043","1","White_Screen.jpg","9","183","Bag_Toiletry.jpg","9"
"090619","12:51:12","755368095","A2EI9E6EBZEZO1","5.0.14.0","2","167","trial1","naming","0","0","0","0","teddy bear","0","3275","1","White_Screen.jpg","7","142","Toy_BearBluePlushie.jpg","7"
"090619","12:51:12","755368095","A2EI9E6EBZEZO1","5.0.14.0","2","168","trial1","naming","0","0","0","0","shrimp","0","2983","1","White_Screen.jpg","7","60","Shrimp.jpg","7"
"090619","12:51:12","755368095","A2EI9E6EBZEZO1","5.0.14.0","2","169","trial1","naming","0","0","0","0","ring","0","2358","1","White_Screen.jpg","9","198","Ring_Diamond.jpg","9"
"090619","12:51:12","755368095","A2EI9E6EBZEZO1","5.0.14.0","2","170","trial1","naming","0","0","0","0","camel","0","2907","1","White_Screen.jpg","7","29","Camel_Bactrian.jpg","7"
"090619","12:51:12","755368095","A2EI9E6EBZEZO1","5.0.14.0","2","171","trial1","naming","0","0","0","0","life vest","0","3674","1","White_Screen.jpg","17","163","LifeJacket_BlueYellow.jpg","17"
"090619","12:51:12","755368095","A2EI9E6EBZEZO1","5.0.14.0","2","172","trial1","naming","0","0","0","0","cookie cutter","0","3816","1","White_Screen.jpg","12","103","CookieCutter_Tree.jpg","12"
"090619","12:51:12","755368095","A2EI9E6EBZEZO1","5.0.14.0","2","173","trial1","naming","0","0","0","0","carousoul","0","4396","1","White_Screen.jpg","6","146","Carousel.jpg","6"
"090619","12:51:12","755368095","A2EI9E6EBZEZO1","5.0.14.0","2","174","trial1","naming","0","0","0","0","qtip","0","3570","1","White_Screen.jpg","11","155","Qtip_Single.jpg","11"
"090619","12:51:12","755368095","A2EI9E6EBZEZO1","5.0.14.0","2","175","trial1","naming","0","0","0","0","bikini top","0","6252","1","White_Screen.jpg","13","63","BikiniTop.jpg","13"
"090619","12:51:12","755368095","A2EI9E6EBZEZO1","5.0.14.0","2","176","trial1","naming","0","0","0","0","lifevest","0","7278","1","White_Screen.jpg","8","126","LifeJacket_Orangejpg.jpg","8"
"090619","12:51:12","755368095","A2EI9E6EBZEZO1","5.0.14.0","2","177","trial1","naming","0","0","0","0","coral","0","4988","1","White_Screen.jpg","5","43","Rock_Mimetite.jpg","5"
"090619","12:51:12","755368095","A2EI9E6EBZEZO1","5.0.14.0","2","178","trial1","naming","0","0","0","0","injector","0","7202","1","White_Screen.jpg","12","108","Pipette.jpg","12"
"090619","12:51:12","755368095","A2EI9E6EBZEZO1","5.0.14.0","2","179","trial1","naming","0","0","0","0","air pump","0","6273","1","White_Screen.jpg","7","191","Compressor.jpg","7"
"090619","12:51:12","755368095","A2EI9E6EBZEZO1","5.0.14.0","2","180","trial1","naming","0","0","0","0","bubbles","0","3337","1","White_Screen.jpg","7","44","Bottle_BubbleBlower.jpg","7"
"090619","12:51:12","755368095","A2EI9E6EBZEZO1","5.0.14.0","2","181","trial1","naming","0","0","0","0","pool table","0","3431","1","White_Screen.jpg","9","86","Table_Pool.jpg","9"
"090619","12:51:12","755368095","A2EI9E6EBZEZO1","5.0.14.0","2","182","trial1","naming","0","0","0","0","gum","0","2925","1","White_Screen.jpg","7","192","Gum_Pack.jpg","7"
"090619","12:51:12","755368095","A2EI9E6EBZEZO1","5.0.14.0","2","183","trial1","naming","0","0","0","0","cheesecake","0","3705","1","White_Screen.jpg","10","2","Cake_Cheese.jpg","10"
"090619","12:51:12","755368095","A2EI9E6EBZEZO1","5.0.14.0","2","184","trial1","naming","0","0","0","0","camera","0","2942","1","White_Screen.jpg","8","140","Camera_Security.jpg","8"
"090619","12:51:12","755368095","A2EI9E6EBZEZO1","5.0.14.0","2","185","trial1","naming","0","0","0","0","bottle","0","2893","1","White_Screen.jpg","22","153","Bottle_Beer.jpg","22"
"090619","12:51:12","755368095","A2EI9E6EBZEZO1","5.0.14.0","2","186","trial1","naming","0","0","0","0","pins","0","3639","1","White_Screen.jpg","9","150","NeedlesAcupuncture.jpg","9"
"090619","12:51:12","755368095","A2EI9E6EBZEZO1","5.0.14.0","2","187","trial1","naming","0","0","0","0","spirn","0","3812","1","White_Screen.jpg","12","149","MechanicalSpring.jpg","12"
"090619","12:51:12","755368095","A2EI9E6EBZEZO1","5.0.14.0","2","188","trial1","naming","0","0","0","0","shoes","0","4780","1","White_Screen.jpg","10","124","Boots_Hiking.jpg","10"
"090619","12:51:12","755368095","A2EI9E6EBZEZO1","5.0.14.0","2","189","trial1","naming","0","0","0","0","cross","0","3400","1","White_Screen.jpg","8","131","Cross.jpg","8"
"090619","12:51:12","755368095","A2EI9E6EBZEZO1","5.0.14.0","2","190","trial1","naming","0","0","0","0","board","0","2520","1","White_Screen.jpg","8","70","Paddle_Bread.jpg","8"
"090619","12:51:12","755368095","A2EI9E6EBZEZO1","5.0.14.0","2","191","trial1","naming","0","0","0","0","leaf","0","3432","1","White_Screen.jpg","10","76","Leaf_Green.jpg","10"
"090619","12:51:12","755368095","A2EI9E6EBZEZO1","5.0.14.0","2","192","trial1","naming","0","0","0","0","flower","0","2888","1","White_Screen.jpg","11","56","Flower_Rose.jpg","11"
"090619","12:51:12","755368095","A2EI9E6EBZEZO1","5.0.14.0","2","193","trial1","naming","0","0","0","0","napkins","0","5796","1","White_Screen.jpg","10","109","Napkin_Holder.jpg","10"
"090619","12:51:12","755368095","A2EI9E6EBZEZO1","5.0.14.0","2","194","trial1","naming","0","0","0","0","zebra","0","3157","1","White_Screen.jpg","10","169","Toy_Zebra.jpg","10"
"090619","12:51:12","755368095","A2EI9E6EBZEZO1","5.0.14.0","2","195","trial1","naming","0","0","0","0","popscicle","0","5022","1","White_Screen.jpg","10","114","IceCream_Popsicle.jpg","10"
"090619","12:51:12","755368095","A2EI9E6EBZEZO1","5.0.14.0","2","196","trial1","naming","0","0","0","0","bag chair","0","6248","1","White_Screen.jpg","9","4","Chair_BeanBag.jpg","9"
"090619","12:51:12","755368095","A2EI9E6EBZEZO1","5.0.14.0","2","197","trial1","naming","0","0","0","0","darth vader","0","7312","1","White_Screen.jpg","5","141","DarthVader.jpg","5"
"090619","12:51:12","755368095","A2EI9E6EBZEZO1","5.0.14.0","2","198","trial1","naming","0","0","0","0","compass","0","3872","1","White_Screen.jpg","10","77","Weathervane.jpg","10"
"090619","12:51:12","755368095","A2EI9E6EBZEZO1","5.0.14.0","2","199","trial1","naming","0","0","0","0","swtich","0","5118","1","White_Screen.jpg","9","185","PhoneJack.jpg","9"
"090619","12:51:12","755368095","A2EI9E6EBZEZO1","5.0.14.0","2","200","trial1","naming","0","0","0","0","hat","0","2649","1","White_Screen.jpg","9","111","Hat_Colonial.jpg","9"
"090619","12:51:12","755368095","A2EI9E6EBZEZO1","5.0.14.0","2","201","trial1","naming","0","0","0","0","shark","0","3363","1","White_Screen.jpg","6","12","Shark_GreatWhite.jpg","6"
"090619","12:51:12","755368095","A2EI9E6EBZEZO1","5.0.14.0","2","202","trial1","naming","0","0","0","0","pepper","0","3041","1","White_Screen.jpg","12","67","Peppermill.jpg","12"
"090619","12:51:12","755368095","A2EI9E6EBZEZO1","5.0.14.0","2","203","trial1","naming","0","0","0","0","paper","0","4764","1","White_Screen.jpg","7","50","Origami_Bird.jpg","7"
"090619","12:51:12","755368095","A2EI9E6EBZEZO1","5.0.14.0","3","1","demographics_block","gender","0","0","0","0","Female","1","16268","0","0","0","0","0","0"
"090619","12:51:12","755368095","A2EI9E6EBZEZO1","5.0.14.0","3","1","demographics_block","age","0","0","0","0","37","1","16268","0","0","0","0","0","0"
"090619","12:51:12","755368095","A2EI9E6EBZEZO1","5.0.14.0","3","1","demographics_block","education","0","0","0","0","Bachelors","1","16268","0","0","0","0","0","0"
"090619","12:51:12","755368095","A2EI9E6EBZEZO1","5.0.14.0","3","2","demographics_block","left_right_handed","0","0","0","0","Right","1","5742","0","0","0","0","0","0"
"090619","12:51:12","755368095","A2EI9E6EBZEZO1","5.0.14.0","3","2","demographics_block","raceoption1","0","0","0","0","0","1","5742","0","0","0","0","0","0"
"090619","12:51:12","755368095","A2EI9E6EBZEZO1","5.0.14.0","3","2","demographics_block","raceoption2","0","0","0","0","","1","5742","0","0","0","0","0","0"
"090619","12:51:12","755368095","A2EI9E6EBZEZO1","5.0.14.0","3","2","demographics_block","raceoption3","0","0","0","0","","1","5742","0","0","0","0","0","0"
"090619","12:51:12","755368095","A2EI9E6EBZEZO1","5.0.14.0","3","2","demographics_block","raceoption4","0","0","0","0","","1","5742","0","0","0","0","0","0"
"090619","12:51:12","755368095","A2EI9E6EBZEZO1","5.0.14.0","3","2","demographics_block","raceoption5","0","0","0","0","","1","5742","0","0","0","0","0","0"
"090619","12:51:12","755368095","A2EI9E6EBZEZO1","5.0.14.0","3","2","demographics_block","raceoption6","0","0","0","0","","1","5742","0","0","0","0","0","0"
"090619","12:51:12","755368095","A2EI9E6EBZEZO1","5.0.14.0","3","2","demographics_block","raceoption7","0","0","0","0","","1","5742","0","0","0","0","0","0"
"090619","12:51:12","755368095","A2EI9E6EBZEZO1","5.0.14.0","3","2","demographics_block","raceoption8","0","0","0","0","","1","5742","0","0","0","0","0","0"
"090619","12:51:12","755368095","A2EI9E6EBZEZO1","5.0.14.0","3","2","demographics_block","raceoption9","0","0","0","0","","1","5742","0","0","0","0","0","0"
"090619","12:51:12","755368095","A2EI9E6EBZEZO1","5.0.14.0","3","2","demographics_block","raceother","0","0","0","0","","1","5742","0","0","0","0","0","0"
"090619","12:51:12","755368095","A2EI9E6EBZEZO1","5.0.14.0","3","2","demographics_block","raceother","0","0","0","0","","1","5742","0","0","0","0","0","0"
"090619","12:51:12","755368095","A2EI9E6EBZEZO1","5.0.14.0","3","2","demographics_block","english_language","0","0","0","0","Yes","1","5742","0","0","0","0","0","0"
"090619","12:51:12","755368095","A2EI9E6EBZEZO1","5.0.14.0","3","2","demographics_block","english_languageother","0","0","0","0","","1","5742","0","0","0","0","0","0"
"090619","12:51:12","755368095","A2EI9E6EBZEZO1","5.0.14.0","3","3","demographics_block","eyesight","0","0","0","0","Yes","1","5610","0","0","0","0","0","0"
"090619","12:51:12","755368095","A2EI9E6EBZEZO1","5.0.14.0","3","3","demographics_block","colorblind","0","0","0","0","No","1","5610","0","0","0","0","0","0"
"090619","12:51:12","755368095","A2EI9E6EBZEZO1","5.0.14.0","4","1","worker_id_block","worker_id_textbox","0","0","0","0","A2EI9E6EBZEZO1","1","4634","0","0","0","0","0","0"
"090619","12:09:30","489055075","AD14EQ9O9JKRI","5.0.14.0","2","1","trial1","naming","0","0","0","0","salt shakerEnter Name","0","4615","1","White_Screen.jpg","67","67","Peppermill.jpg","67"
"090619","12:09:30","489055075","AD14EQ9O9JKRI","5.0.14.0","2","2","trial1","naming","0","0","0","0","pan","0","4179","1","White_Screen.jpg","17","196","Pot_CastIron.jpg","17"
"090619","12:09:30","489055075","AD14EQ9O9JKRI","5.0.14.0","2","3","trial1","naming","0","0","0","0","fishing tank","0","5338","1","White_Screen.jpg","13","144","Aquarium.jpg","13"
"090619","12:09:30","489055075","AD14EQ9O9JKRI","5.0.14.0","2","4","trial1","naming","0","0","0","0","folder","0","3531","1","White_Screen.jpg","9","59","FileFolder.jpg","9"
"090619","12:09:30","489055075","AD14EQ9O9JKRI","5.0.14.0","2","5","trial1","naming","0","0","0","0","bottle","0","4438","1","White_Screen.jpg","12","153","Bottle_Beer.jpg","12"
"090619","12:09:30","489055075","AD14EQ9O9JKRI","5.0.14.0","2","6","trial1","naming","0","0","0","0","shoes","0","4183","1","White_Screen.jpg","9","101","Shoes_Snow.jpg","9"
"090619","12:09:30","489055075","AD14EQ9O9JKRI","5.0.14.0","2","7","trial1","naming","0","0","0","0","bear","0","2116","1","White_Screen.jpg","12","142","Toy_BearBluePlushie.jpg","12"
"090619","12:09:30","489055075","AD14EQ9O9JKRI","5.0.14.0","2","8","trial1","naming","0","0","0","0","hanger","0","4488","1","White_Screen.jpg","14","45","Hangar.jpg","14"
"090619","12:09:30","489055075","AD14EQ9O9JKRI","5.0.14.0","2","9","trial1","naming","0","0","0","0","potato","0","3307","1","White_Screen.jpg","9","11","Egg_Wooden.jpg","9"
"090619","12:09:30","489055075","AD14EQ9O9JKRI","5.0.14.0","2","10","trial1","naming","0","0","0","0","paint","0","2641","1","White_Screen.jpg","10","184","PaintBrushAndPallette.jpg","10"
"090619","12:09:30","489055075","AD14EQ9O9JKRI","5.0.14.0","2","11","trial1","naming","0","0","0","0","peacock","0","2895","1","White_Screen.jpg","10","122","Bird_Peacock.jpg","10"
"090619","12:09:30","489055075","AD14EQ9O9JKRI","5.0.14.0","2","12","trial1","naming","0","0","0","0","light switch","0","3688","1","White_Screen.jpg","10","147","Switch_LightBlack.jpg","10"
"090619","12:09:30","489055075","AD14EQ9O9JKRI","5.0.14.0","2","13","trial1","naming","0","0","0","0","Enter Name","0","10000","1","White_Screen.jpg","13","93","Ring_Plain.jpg","13"
"090619","12:09:30","489055075","AD14EQ9O9JKRI","5.0.14.0","2","14","trial1","naming","0","0","0","0","castle","0","3142","1","White_Screen.jpg","11","9","Castle_Model.jpg","11"
"090619","12:09:30","489055075","AD14EQ9O9JKRI","5.0.14.0","2","15","trial1","naming","0","0","0","0","chair","0","4819","1","White_Screen.jpg","9","194","Armchair.jpg","9"
"090619","12:09:30","489055075","AD14EQ9O9JKRI","5.0.14.0","2","16","trial1","naming","0","0","0","0","popcorn","0","3995","1","White_Screen.jpg","12","84","Popcorn.jpg","12"
"090619","12:09:30","489055075","AD14EQ9O9JKRI","5.0.14.0","2","17","trial1","naming","0","0","0","0","rim","0","3868","1","White_Screen.jpg","11","80","Hubcap.jpg","11"
"090619","12:09:30","489055075","AD14EQ9O9JKRI","5.0.14.0","2","18","trial1","naming","0","0","0","0","vase","0","2569","1","White_Screen.jpg","12","189","Vase_Decorative.jpg","12"
"090619","12:09:30","489055075","AD14EQ9O9JKRI","5.0.14.0","2","19","trial1","naming","0","0","0","0","car","0","2272","1","White_Screen.jpg","12","133","Truck_VintageBlue.jpg","12"
"090619","12:09:30","489055075","AD14EQ9O9JKRI","5.0.14.0","2","20","trial1","naming","0","0","0","0","pear","0","2404","1","White_Screen.jpg","14","120","Pear_Yellow.jpg","14"
"090619","12:09:30","489055075","AD14EQ9O9JKRI","5.0.14.0","2","21","trial1","naming","0","0","0","0","bone","0","5055","1","White_Screen.jpg","14","82","Spoons_Musical.jpg","14"
"090619","12:09:30","489055075","AD14EQ9O9JKRI","5.0.14.0","2","22","trial1","naming","0","0","0","0","cup","0","3387","1","White_Screen.jpg","10","18","AirTank.jpg","10"
"090619","12:09:30","489055075","AD14EQ9O9JKRI","5.0.14.0","2","23","trial1","naming","0","0","0","0","almond","0","2745","1","White_Screen.jpg","11","64","Almond.jpg","11"
"090619","12:09:30","489055075","AD14EQ9O9JKRI","5.0.14.0","2","24","trial1","naming","0","0","0","0","light bulb","0","4780","1","White_Screen.jpg","9","72","LightBulb_Christmas.jpg","9"
"090619","12:09:30","489055075","AD14EQ9O9JKRI","5.0.14.0","2","25","trial1","naming","0","0","0","0","machine","0","5164","1","White_Screen.jpg","13","34","Bulldozer.jpg","13"
"090619","12:09:30","489055075","AD14EQ9O9JKRI","5.0.14.0","2","26","trial1","naming","0","0","0","0","charger","0","4037","1","White_Screen.jpg","12","154","HardDrive.jpg","12"
"090619","12:09:30","489055075","AD14EQ9O9JKRI","5.0.14.0","2","27","trial1","naming","0","0","0","0","podem","0","3886","1","White_Screen.jpg","14","132","Tribunal_Wooden.jpg","14"
"090619","12:09:30","489055075","AD14EQ9O9JKRI","5.0.14.0","2","28","trial1","naming","0","0","0","0","metal","0","5431","1","White_Screen.jpg","12","73","WashRack.jpg","12"
"090619","12:09:30","489055075","AD14EQ9O9JKRI","5.0.14.0","2","29","trial1","naming","0","0","0","0","teabag","0","2925","1","White_Screen.jpg","13","130","Teabag.jpg","13"
"090619","12:09:30","489055075","AD14EQ9O9JKRI","5.0.14.0","2","30","trial1","naming","0","0","0","0","cazoo","0","6598","1","White_Screen.jpg","9","135","Kazoo.jpg","9"
"090619","12:09:30","489055075","AD14EQ9O9JKRI","5.0.14.0","2","31","trial1","naming","0","0","0","0","mouse","0","2864","1","White_Screen.jpg","12","148","MousepadAndMouse.jpg","12"
"090619","12:09:30","489055075","AD14EQ9O9JKRI","5.0.14.0","2","32","trial1","naming","0","0","0","0","coconut","0","3520","1","White_Screen.jpg","13","85","Coconut.jpg","13"
"090619","12:09:30","489055075","AD14EQ9O9JKRI","5.0.14.0","2","33","trial1","naming","0","0","0","0","tombstone","0","2960","1","White_Screen.jpg","12","157","Tombstone.jpg","12"
"090619","12:09:30","489055075","AD14EQ9O9JKRI","5.0.14.0","2","34","trial1","naming","0","0","0","0","shark","0","2617","1","White_Screen.jpg","10","12","Shark_GreatWhite.jpg","10"
"090619","12:09:30","489055075","AD14EQ9O9JKRI","5.0.14.0","2","35","trial1","naming","0","0","0","0","pillow","0","2917","1","White_Screen.jpg","12","161","Pillow_Plaid.jpg","12"
"090619","12:09:30","489055075","AD14EQ9O9JKRI","5.0.14.0","2","36","trial1","naming","0","0","0","0","wheelbarrow","0","4551","1","White_Screen.jpg","12","20","SpaceRover.jpg","12"
"090619","12:09:30","489055075","AD14EQ9O9JKRI","5.0.14.0","2","37","trial1","naming","0","0","0","0","chicken","0","2936","1","White_Screen.jpg","13","136","Chicken_FriedDrum.jpg","13"
"090619","12:09:30","489055075","AD14EQ9O9JKRI","5.0.14.0","2","38","trial1","naming","0","0","0","0","teaspoon","0","4604","1","White_Screen.jpg","12","87","Spoons_MeasuringAttached.jpg","12"
"090619","12:09:30","489055075","AD14EQ9O9JKRI","5.0.14.0","2","39","trial1","naming","0","0","0","0","strainer","0","3609","1","White_Screen.jpg","12","83","Strainer_Tea.jpg","12"
"090619","12:09:30","489055075","AD14EQ9O9JKRI","5.0.14.0","2","40","trial1","naming","0","0","0","0","bra","0","2076","1","White_Screen.jpg","9","63","BikiniTop.jpg","9"
"090619","12:09:30","489055075","AD14EQ9O9JKRI","5.0.14.0","2","41","trial1","naming","0","0","0","0","pin","0","2699","1","White_Screen.jpg","14","94","SafetyPin.jpg","14"
"090619","12:09:30","489055075","AD14EQ9O9JKRI","5.0.14.0","2","42","trial1","naming","0","0","0","0","darth vader","0","6979","1","White_Screen.jpg","11","141","DarthVader.jpg","11"
"090619","12:09:30","489055075","AD14EQ9O9JKRI","5.0.14.0","2","43","trial1","naming","0","0","0","0","cauliflower","0","3142","1","White_Screen.jpg","12","180","Cauliflower.jpg","12"
"090619","12:09:30","489055075","AD14EQ9O9JKRI","5.0.14.0","2","44","trial1","naming","0","0","0","0","mug","0","2628","1","White_Screen.jpg","10","47","Shampoo.jpg","10"
"090619","12:09:30","489055075","AD14EQ9O9JKRI","5.0.14.0","2","45","trial1","naming","0","0","0","0","block","0","3074","1","White_Screen.jpg","10","110","Toy_WoodenPlainSingle.jpg","10"
"090619","12:09:30","489055075","AD14EQ9O9JKRI","5.0.14.0","2","46","trial1","naming","0","0","0","0","christmas tree","0","5497","1","White_Screen.jpg","14","103","CookieCutter_Tree.jpg","14"
"090619","12:09:30","489055075","AD14EQ9O9JKRI","5.0.14.0","2","47","trial1","naming","0","0","0","0","makeup","0","2998","1","White_Screen.jpg","14","96","Compact_Mirror.jpg","14"
"090619","12:09:30","489055075","AD14EQ9O9JKRI","5.0.14.0","2","48","trial1","naming","0","0","0","0","cotton candy","0","3600","1","White_Screen.jpg","12","69","Candy_Cotton.jpg","12"
"090619","12:09:30","489055075","AD14EQ9O9JKRI","5.0.14.0","2","49","trial1","naming","0","0","0","0","mitten","0","2843","1","White_Screen.jpg","12","188","Mitt_Blue.jpg","12"
"090619","12:09:30","489055075","AD14EQ9O9JKRI","5.0.14.0","2","50","trial1","naming","0","0","0","0","lemon","0","2640","1","White_Screen.jpg","10","99","Honeydew_yellow.jpg","10"
"090619","12:09:30","489055075","AD14EQ9O9JKRI","5.0.14.0","2","52","trial1","naming","0","0","0","0","cooler","0","2555","1","White_Screen.jpg","10","173","Freezer.jpg","10"
"090619","12:09:30","489055075","AD14EQ9O9JKRI","5.0.14.0","2","53","trial1","naming","0","0","0","0","salad","0","2589","1","White_Screen.jpg","11","170","SaladCaesar.jpg","11"
"090619","12:09:30","489055075","AD14EQ9O9JKRI","5.0.14.0","2","54","trial1","naming","0","0","0","0","spring","0","2783","1","White_Screen.jpg","12","149","MechanicalSpring.jpg","12"
"090619","12:09:30","489055075","AD14EQ9O9JKRI","5.0.14.0","2","55","trial1","naming","0","0","0","0","pins","0","3816","1","White_Screen.jpg","12","150","NeedlesAcupuncture.jpg","12"
"090619","12:09:30","489055075","AD14EQ9O9JKRI","5.0.14.0","2","56","trial1","naming","0","0","0","0","key","0","4315","1","White_Screen.jpg","11","78","Keys_Bunch.jpg","11"
"090619","12:09:30","489055075","AD14EQ9O9JKRI","5.0.14.0","2","57","trial1","naming","0","0","0","0","tighten","0","4843","1","White_Screen.jpg","11","21","Clamp_Screw.jpg","11"
"090619","12:09:30","489055075","AD14EQ9O9JKRI","5.0.14.0","2","58","trial1","naming","0","0","0","0","shoes","0","2543","1","White_Screen.jpg","12","124","Boots_Hiking.jpg","12"
"090619","12:09:30","489055075","AD14EQ9O9JKRI","5.0.14.0","2","59","trial1","naming","0","0","0","0","map","0","2516","1","White_Screen.jpg","10","66","WorldMap.jpg","10"
"090619","12:09:30","489055075","AD14EQ9O9JKRI","5.0.14.0","2","60","trial1","naming","0","0","0","0","wire","0","3650","1","White_Screen.jpg","13","100","Catheter.jpg","13"
"090619","12:09:30","489055075","AD14EQ9O9JKRI","5.0.14.0","2","61","trial1","naming","0","0","0","0","wine","0","2441","1","White_Screen.jpg","13","14","Bottle_Wine.jpg","13"
"090619","12:09:30","489055075","AD14EQ9O9JKRI","5.0.14.0","2","62","trial1","naming","0","0","0","0","basket","0","3793","1","White_Screen.jpg","9","30","Basket_Firewood.jpg","9"
"090619","12:09:30","489055075","AD14EQ9O9JKRI","5.0.14.0","2","63","trial1","naming","0","0","0","0","violin","0","5126","1","White_Screen.jpg","9","115","Instrument_Nyckelharpa.jpg","9"
"090619","12:09:30","489055075","AD14EQ9O9JKRI","5.0.14.0","2","64","trial1","naming","0","0","0","0","thermometer","0","4768","1","White_Screen.jpg","9","175","Thermostat.jpg","9"
"090619","12:09:30","489055075","AD14EQ9O9JKRI","5.0.14.0","2","65","trial1","naming","0","0","0","0","bus","0","3888","1","White_Screen.jpg","12","48","Truck_Dump.jpg","12"
"090619","12:09:30","489055075","AD14EQ9O9JKRI","5.0.14.0","2","66","trial1","naming","0","0","0","0","necklace","0","3109","1","White_Screen.jpg","14","111","Hat_Colonial.jpg","14"
"090619","12:09:30","489055075","AD14EQ9O9JKRI","5.0.14.0","2","67","trial1","naming","0","0","0","0","leaf","0","2273","1","White_Screen.jpg","12","76","Leaf_Green.jpg","12"
"090619","12:09:30","489055075","AD14EQ9O9JKRI","5.0.14.0","2","68","trial1","naming","0","0","0","0","napkin","0","4073","1","White_Screen.jpg","15","109","Napkin_Holder.jpg","15"
"090619","12:09:30","489055075","AD14EQ9O9JKRI","5.0.14.0","2","69","trial1","naming","0","0","0","0","ping pong","0","4097","1","White_Screen.jpg","9","128","Paddle_Ball.jpg","9"
"090619","12:09:30","489055075","AD14EQ9O9JKRI","5.0.14.0","2","70","trial1","naming","0","0","0","0","cross","0","2403","1","White_Screen.jpg","12","131","Cross.jpg","12"
"090619","12:09:30","489055075","AD14EQ9O9JKRI","5.0.14.0","2","71","trial1","naming","0","0","0","0","demon","0","4426","1","White_Screen.jpg","14","92","Mask_Buddhist.jpg","14"
"090619","12:09:30","489055075","AD14EQ9O9JKRI","5.0.14.0","2","72","trial1","naming","0","0","0","0","ATV","0","2573","1","White_Screen.jpg","13","32","Car_Buggy.jpg","13"
"090619","12:09:30","489055075","AD14EQ9O9JKRI","5.0.14.0","2","73","trial1","naming","0","0","0","0","flower","0","4169","1","White_Screen.jpg","10","56","Flower_Rose.jpg","10"
"090619","12:09:30","489055075","AD14EQ9O9JKRI","5.0.14.0","2","74","trial1","naming","0","0","0","0","shot","0","3101","1","White_Screen.jpg","13","108","Pipette.jpg","13"
"090619","12:09:30","489055075","AD14EQ9O9JKRI","5.0.14.0","2","75","trial1","naming","0","0","0","0","nickel","0","3295","1","White_Screen.jpg","13","116","Coin.jpg","13"
"090619","12:09:30","489055075","AD14EQ9O9JKRI","5.0.14.0","2","76","trial1","naming","0","0","0","0","bowl","0","2423","1","White_Screen.jpg","12","65","Bowl_Wooden.jpg","12"
"090619","12:09:30","489055075","AD14EQ9O9JKRI","5.0.14.0","2","77","trial1","naming","0","0","0","0","stapler","0","4274","1","White_Screen.jpg","11","190","Stapler_Regular.jpg","11"
"090619","12:09:30","489055075","AD14EQ9O9JKRI","5.0.14.0","2","78","trial1","naming","0","0","0","0","lights","0","3014","1","White_Screen.jpg","10","125","Spotlight.jpg","10"
"090619","12:09:30","489055075","AD14EQ9O9JKRI","5.0.14.0","2","79","trial1","naming","0","0","0","0","crane","0","2911","1","White_Screen.jpg","13","50","Origami_Bird.jpg","13"
"090619","12:09:30","489055075","AD14EQ9O9JKRI","5.0.14.0","2","80","trial1","naming","0","0","0","0","butterfly","0","3753","1","White_Screen.jpg","11","137","Butterfly.jpg","11"
"090619","12:09:30","489055075","AD14EQ9O9JKRI","5.0.14.0","2","81","trial1","naming","0","0","0","0","trash","0","2290","1","White_Screen.jpg","13","164","Bag_Garbage.jpg","13"
"090619","12:09:30","489055075","AD14EQ9O9JKRI","5.0.14.0","2","82","trial1","naming","0","0","0","0","airplane","0","4225","1","White_Screen.jpg","9","186","Missile.jpg","9"
"090619","12:09:30","489055075","AD14EQ9O9JKRI","5.0.14.0","2","83","trial1","naming","0","0","0","0","hot tub","0","2642","1","White_Screen.jpg","12","113","Hottub.jpg","12"
"090619","12:09:30","489055075","AD14EQ9O9JKRI","5.0.14.0","2","84","trial1","naming","0","0","0","0","notebook","0","3173","1","White_Screen.jpg","10","127","Notepad_WithPen.jpg","10"
"090619","12:09:30","489055075","AD14EQ9O9JKRI","5.0.14.0","2","85","trial1","naming","0","0","0","0","light","0","2836","1","White_Screen.jpg","10","3","DoorBell.jpg","10"
"090619","12:09:30","489055075","AD14EQ9O9JKRI","5.0.14.0","2","86","trial1","naming","0","0","0","0","basket","0","2410","1","White_Screen.jpg","12","98","Basket_Plastic.jpg","12"
"090619","12:09:30","489055075","AD14EQ9O9JKRI","5.0.14.0","2","87","trial1","naming","0","0","0","0","tin","0","3158","1","White_Screen.jpg","9","68","Toolbox_Red.jpg","9"
"090619","12:09:30","489055075","AD14EQ9O9JKRI","5.0.14.0","2","88","trial1","naming","0","0","0","0","purse","0","6219","1","White_Screen.jpg","11","158","Case_Leather.jpg","11"
"090619","12:09:30","489055075","AD14EQ9O9JKRI","5.0.14.0","2","89","trial1","naming","0","0","0","0","shoe lace","0","2812","1","White_Screen.jpg","13","75","ShoeLace_Round.jpg","13"
"090619","12:09:30","489055075","AD14EQ9O9JKRI","5.0.14.0","2","90","trial1","naming","0","0","0","0","fish","0","2624","1","White_Screen.jpg","12","7","Fish_Rockbass.jpg","12"
"090619","12:09:30","489055075","AD14EQ9O9JKRI","5.0.14.0","2","91","trial1","naming","0","0","0","0","cookie","0","2796","1","White_Screen.jpg","8","197","Cookie.jpg","8"
"090619","12:09:30","489055075","AD14EQ9O9JKRI","5.0.14.0","2","92","trial1","naming","0","0","0","0","cd case","0","2634","1","White_Screen.jpg","10","62","Case_CD.jpg","10"
"090619","12:09:30","489055075","AD14EQ9O9JKRI","5.0.14.0","2","93","trial1","naming","0","0","0","0","food","0","3019","1","White_Screen.jpg","12","166","Cheese_Platter.jpg","12"
"090619","12:09:30","489055075","AD14EQ9O9JKRI","5.0.14.0","2","94","trial1","naming","0","0","0","0","telescope","0","3163","1","White_Screen.jpg","10","156","Telescope.jpg","10"
"090619","12:09:30","489055075","AD14EQ9O9JKRI","5.0.14.0","2","95","trial1","naming","0","0","0","0","mask","0","2218","1","White_Screen.jpg","13","13","Mask_Happy.jpg","13"
"090619","12:09:30","489055075","AD14EQ9O9JKRI","5.0.14.0","2","96","trial1","naming","0","0","0","0","bandaid","0","2728","1","White_Screen.jpg","13","129","Bandage_Adhesive.jpg","13"
"090619","12:09:30","489055075","AD14EQ9O9JKRI","5.0.14.0","2","97","trial1","naming","0","0","0","0","pot","0","3698","1","White_Screen.jpg","11","176","PlantPotted.jpg","11"
"090619","12:09:30","489055075","AD14EQ9O9JKRI","5.0.14.0","2","98","trial1","naming","0","0","0","0","cheetah","0","3060","1","White_Screen.jpg","13","117","Cougar.jpg","13"
"090619","12:09:30","489055075","AD14EQ9O9JKRI","5.0.14.0","2","99","trial1","naming","0","0","0","0","mill","0","5355","1","White_Screen.jpg","12","97","SiloGrain.jpg","12"
"090619","12:09:30","489055075","AD14EQ9O9JKRI","5.0.14.0","2","100","trial1","naming","0","0","0","0","tag","0","3428","1","White_Screen.jpg","8","15","Tag_Price.jpg","8"
"090619","12:09:30","489055075","AD14EQ9O9JKRI","5.0.14.0","2","101","trial1","naming","0","0","0","0","tag","0","2278","1","White_Screen.jpg","10","26","Sign_Open.jpg","10"
"090619","12:09:30","489055075","AD14EQ9O9JKRI","5.0.14.0","2","103","trial1","naming","0","0","0","0","metal","0","4531","1","White_Screen.jpg","9","35","Diode.jpg","9"
"090619","12:09:30","489055075","AD14EQ9O9JKRI","5.0.14.0","2","104","trial1","naming","0","0","0","0","crackers","0","2752","1","White_Screen.jpg","12","139","Crackers_Ritz.jpg","12"
"090619","12:09:30","489055075","AD14EQ9O9JKRI","5.0.14.0","2","105","trial1","naming","0","0","0","0","accordion","0","3646","1","White_Screen.jpg","14","172","Accordion.jpg","14"
"090619","12:09:30","489055075","AD14EQ9O9JKRI","5.0.14.0","2","106","trial1","naming","0","0","0","0","camel","0","2460","1","White_Screen.jpg","13","29","Camel_Bactrian.jpg","13"
"090619","12:09:30","489055075","AD14EQ9O9JKRI","5.0.14.0","2","107","trial1","naming","0","0","0","0","life vest","0","3111","1","White_Screen.jpg","15","126","LifeJacket_Orangejpg.jpg","15"
"090619","12:09:30","489055075","AD14EQ9O9JKRI","5.0.14.0","2","108","trial1","naming","0","0","0","0","cheesecake","0","3995","1","White_Screen.jpg","12","2","Cake_Cheese.jpg","12"
"090619","12:09:30","489055075","AD14EQ9O9JKRI","5.0.14.0","2","109","trial1","naming","0","0","0","0","lamp","0","3716","1","White_Screen.jpg","12","107","Lamp_TableWhite.jpg","12"
"090619","12:09:30","489055075","AD14EQ9O9JKRI","5.0.14.0","2","110","trial1","naming","0","0","0","0","pacifier","0","2943","1","White_Screen.jpg","12","151","Pacifier.jpg","12"
"090619","12:09:30","489055075","AD14EQ9O9JKRI","5.0.14.0","2","111","trial1","naming","0","0","0","0","knee pad","0","3537","1","White_Screen.jpg","10","112","Kneepad.jpg","10"
"090619","12:09:30","489055075","AD14EQ9O9JKRI","5.0.14.0","2","112","trial1","naming","0","0","0","0","notebook","0","3406","1","White_Screen.jpg","13","37","DayPlanner.jpg","13"
"090619","12:09:30","489055075","AD14EQ9O9JKRI","5.0.14.0","2","113","trial1","naming","0","0","0","0","clip","0","4163","1","White_Screen.jpg","10","8","Clip_Chip.jpg","10"
"090619","12:09:30","489055075","AD14EQ9O9JKRI","5.0.14.0","2","114","trial1","naming","0","0","0","0","merry go round","0","3543","1","White_Screen.jpg","12","146","Carousel.jpg","12"
"090619","12:09:30","489055075","AD14EQ9O9JKRI","5.0.14.0","2","115","trial1","naming","0","0","0","0","sock","0","3035","1","White_Screen.jpg","10","33","Sock_Ankle.jpg","10"
"090619","12:09:30","489055075","AD14EQ9O9JKRI","5.0.14.0","2","116","trial1","naming","0","0","0","0","plyer","0","5823","1","White_Screen.jpg","11","40","Clippers_Glass.jpg","11"
"090619","12:09:30","489055075","AD14EQ9O9JKRI","5.0.14.0","2","117","trial1","naming","0","0","0","0","maraca","0","4114","1","White_Screen.jpg","10","181","Tambourine.jpg","10"
"090619","12:09:30","489055075","AD14EQ9O9JKRI","5.0.14.0","2","118","trial1","naming","0","0","0","0","hair bun","0","3124","1","White_Screen.jpg","13","152","HairScrunchie.jpg","13"
"090619","12:09:30","489055075","AD14EQ9O9JKRI","5.0.14.0","2","119","trial1","naming","0","0","0","0","mic","0","2551","1","White_Screen.jpg","9","74","Microphone.jpg","9"
"090619","12:09:30","489055075","AD14EQ9O9JKRI","5.0.14.0","2","120","trial1","naming","0","0","0","0","burrito","0","4071","1","White_Screen.jpg","11","54","Cannoli.jpg","11"
"090619","12:09:30","489055075","AD14EQ9O9JKRI","5.0.14.0","2","121","trial1","naming","0","0","0","0","shrimp","0","2862","1","White_Screen.jpg","14","60","Shrimp.jpg","14"
"090619","12:09:30","489055075","AD14EQ9O9JKRI","5.0.14.0","2","122","trial1","naming","0","0","0","0","pan","0","2379","1","White_Screen.jpg","12","90","Fryingpan.jpg","12"
"090619","12:09:30","489055075","AD14EQ9O9JKRI","5.0.14.0","2","123","trial1","naming","0","0","0","0","painting","0","2960","1","White_Screen.jpg","10","79","Easel.jpg","10"
"090619","12:09:30","489055075","AD14EQ9O9JKRI","5.0.14.0","2","124","trial1","naming","0","0","0","0","hanger","0","2632","1","White_Screen.jpg","9","102","Hanger.jpg","9"
"090619","12:09:30","489055075","AD14EQ9O9JKRI","5.0.14.0","2","125","trial1","naming","0","0","0","0","light bulb","0","3239","1","White_Screen.jpg","12","171","Decoration_ChristmasWhite.jpg","12"
"090619","12:09:30","489055075","AD14EQ9O9JKRI","5.0.14.0","2","126","trial1","naming","0","0","0","0","bean bag","0","2412","1","White_Screen.jpg","9","4","Chair_BeanBag.jpg","9"
"090619","12:09:30","489055075","AD14EQ9O9JKRI","5.0.14.0","2","127","trial1","naming","0","0","0","0","dog","0","2282","1","White_Screen.jpg","10","159","Dog_ChowChow.jpg","10"
"090619","12:09:30","489055075","AD14EQ9O9JKRI","5.0.14.0","2","128","trial1","naming","0","0","0","0","gummy bear","0","3041","1","White_Screen.jpg","13","89","Candy_GummyBear.jpg","13"
"090619","12:09:30","489055075","AD14EQ9O9JKRI","5.0.14.0","2","129","trial1","naming","0","0","0","0","pepper","0","3310","1","White_Screen.jpg","11","10","Pepper_Green.jpg","11"
"090619","12:09:30","489055075","AD14EQ9O9JKRI","5.0.14.0","2","130","trial1","naming","0","0","0","0","zebra","0","2299","1","White_Screen.jpg","9","169","Toy_Zebra.jpg","9"
"090619","12:09:30","489055075","AD14EQ9O9JKRI","5.0.14.0","2","131","trial1","naming","0","0","0","0","nail polish","0","3224","1","White_Screen.jpg","12","27","Makeup_Foundation.jpg","12"
"090619","12:09:30","489055075","AD14EQ9O9JKRI","5.0.14.0","2","132","trial1","naming","0","0","0","0","panda","0","2303","1","White_Screen.jpg","11","81","Toy_PandaPlushie.jpg","11"
"090619","12:09:30","489055075","AD14EQ9O9JKRI","5.0.14.0","2","133","trial1","naming","0","0","0","0","compressor","0","2754","1","White_Screen.jpg","14","191","Compressor.jpg","14"
"090619","12:09:30","489055075","AD14EQ9O9JKRI","5.0.14.0","2","134","trial1","naming","0","0","0","0","leg","0","2267","1","White_Screen.jpg","10","71","Leg.jpg","10"
"090619","12:09:30","489055075","AD14EQ9O9JKRI","5.0.14.0","2","135","trial1","naming","0","0","0","0","honey","0","2918","1","White_Screen.jpg","12","193","Stick_Honey.jpg","12"
"090619","12:09:30","489055075","AD14EQ9O9JKRI","5.0.14.0","2","136","trial1","naming","0","0","0","0","truck","0","2767","1","White_Screen.jpg","13","46","Truck_Tanker.jpg","13"
"090619","12:09:30","489055075","AD14EQ9O9JKRI","5.0.14.0","2","137","trial1","naming","0","0","0","0","metal","0","4380","1","White_Screen.jpg","12","57","SolderingIron.jpg","12"
"090619","12:09:30","489055075","AD14EQ9O9JKRI","5.0.14.0","2","138","trial1","naming","0","0","0","0","printer","0","3098","1","White_Screen.jpg","12","95","Printer.jpg","12"
"090619","12:09:30","489055075","AD14EQ9O9JKRI","5.0.14.0","2","139","trial1","naming","0","0","0","0","protein","0","2563","1","White_Screen.jpg","12","42","PowderProtein.jpg","12"
"090619","12:09:30","489055075","AD14EQ9O9JKRI","5.0.14.0","2","140","trial1","naming","0","0","0","0","mirror","0","5120","1","White_Screen.jpg","12","91","Mirror_Carside.jpg","12"
"090619","12:09:30","489055075","AD14EQ9O9JKRI","5.0.14.0","2","141","trial1","naming","0","0","0","0","thermostat","0","2973","1","White_Screen.jpg","13","118","Thermometer_Room.jpg","13"
"090619","12:09:30","489055075","AD14EQ9O9JKRI","5.0.14.0","2","142","trial1","naming","0","0","0","0","ferrit","0","3316","1","White_Screen.jpg","10","200","Ferret.jpg","10"
"090619","12:09:30","489055075","AD14EQ9O9JKRI","5.0.14.0","2","143","trial1","naming","0","0","0","0","food","0","4464","1","White_Screen.jpg","13","43","Rock_Mimetite.jpg","13"
"090619","12:09:30","489055075","AD14EQ9O9JKRI","5.0.14.0","2","144","trial1","naming","0","0","0","0","bench","0","2421","1","White_Screen.jpg","13","51","Bench_Black.jpg","13"
"090619","12:09:30","489055075","AD14EQ9O9JKRI","5.0.14.0","2","145","trial1","naming","0","0","0","0","pepperoni","0","3464","1","White_Screen.jpg","13","167","Pepperoni.jpg","13"
"090619","12:09:30","489055075","AD14EQ9O9JKRI","5.0.14.0","2","146","trial1","naming","0","0","0","0","paper","0","2465","1","White_Screen.jpg","13","182","Box_Notepaper.jpg","13"
"090619","12:09:30","489055075","AD14EQ9O9JKRI","5.0.14.0","2","147","trial1","naming","0","0","0","0","donkey","0","2697","1","White_Screen.jpg","12","106","Toy_DonkeyFur.jpg","12"
"090619","12:09:30","489055075","AD14EQ9O9JKRI","5.0.14.0","2","148","trial1","naming","0","0","0","0","sunflower","0","3184","1","White_Screen.jpg","13","61","Flower_Sun.jpg","13"
"090619","12:09:30","489055075","AD14EQ9O9JKRI","5.0.14.0","2","149","trial1","naming","0","0","0","0","peach","0","3343","1","White_Screen.jpg","12","17","Fruit_Carambola.jpg","12"
"090619","12:09:30","489055075","AD14EQ9O9JKRI","5.0.14.0","2","150","trial1","naming","0","0","0","0","light","0","2663","1","White_Screen.jpg","9","199","Stroboscope.jpg","9"
"090619","12:09:30","489055075","AD14EQ9O9JKRI","5.0.14.0","2","151","trial1","naming","0","0","0","0","tic tac","0","4576","1","White_Screen.jpg","11","192","Gum_Pack.jpg","11"
"090619","12:09:30","489055075","AD14EQ9O9JKRI","5.0.14.0","2","152","trial1","naming","0","0","0","0","fruit","0","2447","1","White_Screen.jpg","9","162","Bowl_Fruits.jpg","9"
"090619","12:09:30","489055075","AD14EQ9O9JKRI","5.0.14.0","2","154","trial1","naming","0","0","0","0","wizard","0","2330","1","White_Screen.jpg","12","49","Costume_Wizard.jpg","12"
"090619","12:09:30","489055075","AD14EQ9O9JKRI","5.0.14.0","2","155","trial1","naming","0","0","0","0","ethernet","0","3180","1","White_Screen.jpg","13","185","PhoneJack.jpg","13"
"090619","12:09:30","489055075","AD14EQ9O9JKRI","5.0.14.0","2","156","trial1","naming","0","0","0","0","coffee","0","2682","1","White_Screen.jpg","12","31","CoffeeLid.jpg","12"
"090619","12:09:30","489055075","AD14EQ9O9JKRI","5.0.14.0","2","157","trial1","naming","0","0","0","0","ribbon","0","2993","1","White_Screen.jpg","11","178","RibbonPin.jpg","11"
"090619","12:09:30","489055075","AD14EQ9O9JKRI","5.0.14.0","2","158","trial1","naming","0","0","0","0","dog food","0","2579","1","White_Screen.jpg","9","174","DogFood.jpg","9"
"090619","12:09:30","489055075","AD14EQ9O9JKRI","5.0.14.0","2","159","trial1","naming","0","0","0","0","life vest","0","3416","1","White_Screen.jpg","9","163","LifeJacket_BlueYellow.jpg","9"
"090619","12:09:30","489055075","AD14EQ9O9JKRI","5.0.14.0","2","160","trial1","naming","0","0","0","0","candy","0","4559","1","White_Screen.jpg","11","44","Bottle_BubbleBlower.jpg","11"
"090619","12:09:30","489055075","AD14EQ9O9JKRI","5.0.14.0","2","161","trial1","naming","0","0","0","0","gingerbread","0","3132","1","White_Screen.jpg","11","19","GingerbreadMan.jpg","11"
"090619","12:09:30","489055075","AD14EQ9O9JKRI","5.0.14.0","2","162","trial1","naming","0","0","0","0","brush","0","4408","1","White_Screen.jpg","13","41","Brush_Winter.jpg","13"
"090619","12:09:30","489055075","AD14EQ9O9JKRI","5.0.14.0","2","163","trial1","naming","0","0","0","0","q tips","0","2504","1","White_Screen.jpg","9","105","Qtip_Multiple.jpg","9"
"090619","12:09:30","489055075","AD14EQ9O9JKRI","5.0.14.0","2","164","trial1","naming","0","0","0","0","bench","0","2583","1","White_Screen.jpg","14","104","Swing_Porch.jpg","14"
"090619","12:09:30","489055075","AD14EQ9O9JKRI","5.0.14.0","2","165","trial1","naming","0","0","0","0","wood","0","6029","1","White_Screen.jpg","12","70","Paddle_Bread.jpg","12"
"090619","12:09:30","489055075","AD14EQ9O9JKRI","5.0.14.0","2","166","trial1","naming","0","0","0","0","q tip","0","2569","1","White_Screen.jpg","10","155","Qtip_Single.jpg","10"
"090619","12:09:30","489055075","AD14EQ9O9JKRI","5.0.14.0","2","167","trial1","naming","0","0","0","0","onion","0","2699","1","White_Screen.jpg","13","58","Garlic_Whole.jpg","13"
"090619","12:09:30","489055075","AD14EQ9O9JKRI","5.0.14.0","2","168","trial1","naming","0","0","0","0","compass","0","3352","1","White_Screen.jpg","12","39","CompassCardinal.jpg","12"
"090619","12:09:30","489055075","AD14EQ9O9JKRI","5.0.14.0","2","169","trial1","naming","0","0","0","0","statue","0","2569","1","White_Screen.jpg","14","177","Statue_Jesus.jpg","14"
"090619","12:09:30","489055075","AD14EQ9O9JKRI","5.0.14.0","2","170","trial1","naming","0","0","0","0","ice cream","0","3466","1","White_Screen.jpg","14","114","IceCream_Popsicle.jpg","14"
"090619","12:09:30","489055075","AD14EQ9O9JKRI","5.0.14.0","2","171","trial1","naming","0","0","0","0","trash","0","3107","1","White_Screen.jpg","13","123","Garbage_GreenBin.jpg","13"
"090619","12:09:30","489055075","AD14EQ9O9JKRI","5.0.14.0","2","172","trial1","naming","0","0","0","0","bottle opener","0","4960","1","White_Screen.jpg","9","53","Peeler.jpg","9"
"090619","12:09:30","489055075","AD14EQ9O9JKRI","5.0.14.0","2","173","trial1","naming","0","0","0","0","pop tart","0","3190","1","White_Screen.jpg","10","168","Stone_AncientWriting.jpg","10"
"090619","12:09:30","489055075","AD14EQ9O9JKRI","5.0.14.0","2","174","trial1","naming","0","0","0","0","bird","0","2621","1","White_Screen.jpg","9","145","Bird_Parrot.jpg","9"
"090619","12:09:30","489055075","AD14EQ9O9JKRI","5.0.14.0","2","175","trial1","naming","0","0","0","0","ring","0","2259","1","White_Screen.jpg","14","198","Ring_Diamond.jpg","14"
"090619","12:09:30","489055075","AD14EQ9O9JKRI","5.0.14.0","2","176","trial1","naming","0","0","0","0","bone","0","2185","1","White_Screen.jpg","10","195","Bone.jpg","10"
"090619","12:09:30","489055075","AD14EQ9O9JKRI","5.0.14.0","2","177","trial1","naming","0","0","0","0","pan","0","2156","1","White_Screen.jpg","12","134","Pot_Cooking.jpg","12"
"090619","12:09:30","489055075","AD14EQ9O9JKRI","5.0.14.0","2","178","trial1","naming","0","0","0","0","alarm clock","0","2889","1","White_Screen.jpg","11","28","Clock_Radio.jpg","11"
"090619","12:09:30","489055075","AD14EQ9O9JKRI","5.0.14.0","2","179","trial1","naming","0","0","0","0","taxi","0","2608","1","White_Screen.jpg","12","121","Toy_Taxi.jpg","12"
"090619","12:09:30","489055075","AD14EQ9O9JKRI","5.0.14.0","2","180","trial1","naming","0","0","0","0","leaf","0","2650","1","White_Screen.jpg","10","24","Alfalfa.jpg","10"
"090619","12:09:30","489055075","AD14EQ9O9JKRI","5.0.14.0","2","181","trial1","naming","0","0","0","0","hole","0","3439","1","White_Screen.jpg","12","138","SandBagThrowGame.jpg","12"
"090619","12:09:30","489055075","AD14EQ9O9JKRI","5.0.14.0","2","182","trial1","naming","0","0","0","0","eagle","0","2540","1","White_Screen.jpg","10","88","Hawk.jpg","10"
"090619","12:09:30","489055075","AD14EQ9O9JKRI","5.0.14.0","2","183","trial1","naming","0","0","0","0","bag","0","1944","1","White_Screen.jpg","12","183","Bag_Toiletry.jpg","12"
"090619","12:09:30","489055075","AD14EQ9O9JKRI","5.0.14.0","2","184","trial1","naming","0","0","0","0","ride","0","4246","1","White_Screen.jpg","9","179","WagonPilgrim.jpg","9"
"090619","12:09:30","489055075","AD14EQ9O9JKRI","5.0.14.0","2","185","trial1","naming","0","0","0","0","cup","0","3483","1","White_Screen.jpg","13","160","Cup_Latte.jpg","13"
"090619","12:09:30","489055075","AD14EQ9O9JKRI","5.0.14.0","2","186","trial1","naming","0","0","0","0","egyptian","0","2738","1","White_Screen.jpg","13","55","Jar_Canopic.jpg","13"
"090619","12:09:30","489055075","AD14EQ9O9JKRI","5.0.14.0","2","187","trial1","naming","0","0","0","0","bench","0","2556","1","White_Screen.jpg","14","36","Table_Picnic.jpg","14"
"090619","12:09:30","489055075","AD14EQ9O9JKRI","5.0.14.0","2","188","trial1","naming","0","0","0","0","water board","0","3420","1","White_Screen.jpg","11","165","BoogieBoard.jpg","11"
"090619","12:09:30","489055075","AD14EQ9O9JKRI","5.0.14.0","2","189","trial1","naming","0","0","0","0","vegetables","0","5148","1","White_Screen.jpg","14","187","Platter_Vegetables.jpg","14"
"090619","12:09:30","489055075","AD14EQ9O9JKRI","5.0.14.0","2","190","trial1","naming","0","0","0","0","pan","0","2837","1","White_Screen.jpg","15","16","FoodMill.jpg","15"
"090619","12:09:30","489055075","AD14EQ9O9JKRI","5.0.14.0","2","191","trial1","naming","0","0","0","0","bracelet","0","4617","1","White_Screen.jpg","12","23","Necklace_Pearl.jpg","12"
"090619","12:09:30","489055075","AD14EQ9O9JKRI","5.0.14.0","2","192","trial1","naming","0","0","0","0","alarm","0","2557","1","White_Screen.jpg","13","143","Light_Siren.jpg","13"
"090619","12:09:30","489055075","AD14EQ9O9JKRI","5.0.14.0","2","193","trial1","naming","0","0","0","0","controller","0","4020","1","White_Screen.jpg","9","52","Joystick.jpg","9"
"090619","12:09:30","489055075","AD14EQ9O9JKRI","5.0.14.0","2","194","trial1","naming","0","0","0","0","note","0","2211","1","White_Screen.jpg","12","5","Notepad.jpg","12"
"090619","12:09:30","489055075","AD14EQ9O9JKRI","5.0.14.0","2","195","trial1","naming","0","0","0","0","donut","0","2423","1","White_Screen.jpg","10","25","Donut.jpg","10"
"090619","12:09:30","489055075","AD14EQ9O9JKRI","5.0.14.0","2","196","trial1","naming","0","0","0","0","camera","0","2385","1","White_Screen.jpg","12","140","Camera_Security.jpg","12"
"090619","12:09:30","489055075","AD14EQ9O9JKRI","5.0.14.0","2","197","trial1","naming","0","0","0","0","lighter","0","2745","1","White_Screen.jpg","14","22","Lighter_Black.jpg","14"
"090619","12:09:30","489055075","AD14EQ9O9JKRI","5.0.14.0","2","198","trial1","naming","0","0","0","0","plastic","0","4641","1","White_Screen.jpg","11","38","VacuumHead.jpg","11"
"090619","12:09:30","489055075","AD14EQ9O9JKRI","5.0.14.0","2","199","trial1","naming","0","0","0","0","tortilla","0","2618","1","White_Screen.jpg","9","1","Tortilla.jpg","9"
"090619","12:09:30","489055075","AD14EQ9O9JKRI","5.0.14.0","2","200","trial1","naming","0","0","0","0","compass","0","3537","1","White_Screen.jpg","12","77","Weathervane.jpg","12"
"090619","12:09:30","489055075","AD14EQ9O9JKRI","5.0.14.0","2","201","trial1","naming","0","0","0","0","bottle","0","3502","1","White_Screen.jpg","14","119","Bucket_Champagne.jpg","14"
"090619","12:09:30","489055075","AD14EQ9O9JKRI","5.0.14.0","2","202","trial1","naming","0","0","0","0","brand","0","3550","1","White_Screen.jpg","13","6","Stick_Bridge.jpg","13"
"090619","12:09:30","489055075","AD14EQ9O9JKRI","5.0.14.0","2","203","trial1","naming","0","0","0","0","pool table","0","8011","1","White_Screen.jpg","13","86","Table_Pool.jpg","13"
"090619","12:09:30","489055075","AD14EQ9O9JKRI","5.0.14.0","3","1","demographics_block","gender","0","0","0","0","Male","1","6921","0","0","0","0","0","0"
"090619","12:09:30","489055075","AD14EQ9O9JKRI","5.0.14.0","3","1","demographics_block","age","0","0","0","0","25","1","6921","0","0","0","0","0","0"
"090619","12:09:30","489055075","AD14EQ9O9JKRI","5.0.14.0","3","1","demographics_block","education","0","0","0","0","14","1","6921","0","0","0","0","0","0"
"090619","12:09:30","489055075","AD14EQ9O9JKRI","5.0.14.0","3","2","demographics_block","left_right_handed","0","0","0","0","Right","1","5097","0","0","0","0","0","0"
"090619","12:09:30","489055075","AD14EQ9O9JKRI","5.0.14.0","3","2","demographics_block","raceoption1","0","0","0","0","0","1","5097","0","0","0","0","0","0"
"090619","12:09:30","489055075","AD14EQ9O9JKRI","5.0.14.0","3","2","demographics_block","raceoption2","0","0","0","0","","1","5097","0","0","0","0","0","0"
"090619","12:09:30","489055075","AD14EQ9O9JKRI","5.0.14.0","3","2","demographics_block","raceoption3","0","0","0","0","","1","5097","0","0","0","0","0","0"
"090619","12:09:30","489055075","AD14EQ9O9JKRI","5.0.14.0","3","2","demographics_block","raceoption4","0","0","0","0","","1","5097","0","0","0","0","0","0"
"090619","12:09:30","489055075","AD14EQ9O9JKRI","5.0.14.0","3","2","demographics_block","raceoption5","0","0","0","0","","1","5097","0","0","0","0","0","0"
"090619","12:09:30","489055075","AD14EQ9O9JKRI","5.0.14.0","3","2","demographics_block","raceoption6","0","0","0","0","","1","5097","0","0","0","0","0","0"
"090619","12:09:30","489055075","AD14EQ9O9JKRI","5.0.14.0","3","2","demographics_block","raceoption7","0","0","0","0","","1","5097","0","0","0","0","0","0"
"090619","12:09:30","489055075","AD14EQ9O9JKRI","5.0.14.0","3","2","demographics_block","raceoption8","0","0","0","0","","1","5097","0","0","0","0","0","0"
"090619","12:09:30","489055075","AD14EQ9O9JKRI","5.0.14.0","3","2","demographics_block","raceoption9","0","0","0","0","","1","5097","0","0","0","0","0","0"
"090619","12:09:30","489055075","AD14EQ9O9JKRI","5.0.14.0","3","2","demographics_block","raceother","0","0","0","0","","1","5097","0","0","0","0","0","0"
"090619","12:09:30","489055075","AD14EQ9O9JKRI","5.0.14.0","3","2","demographics_block","raceother","0","0","0","0","","1","5097","0","0","0","0","0","0"
"090619","12:09:30","489055075","AD14EQ9O9JKRI","5.0.14.0","3","2","demographics_block","english_language","0","0","0","0","Yes","1","5097","0","0","0","0","0","0"
"090619","12:09:30","489055075","AD14EQ9O9JKRI","5.0.14.0","3","2","demographics_block","english_languageother","0","0","0","0","","1","5097","0","0","0","0","0","0"
"090619","12:09:30","489055075","AD14EQ9O9JKRI","5.0.14.0","3","3","demographics_block","eyesight","0","0","0","0","Yes","1","3508","0","0","0","0","0","0"
"090619","12:09:30","489055075","AD14EQ9O9JKRI","5.0.14.0","3","3","demographics_block","colorblind","0","0","0","0","No","1","3508","0","0","0","0","0","0"
"090619","12:09:30","489055075","AD14EQ9O9JKRI","5.0.14.0","4","1","worker_id_block","worker_id_textbox","0","0","0","0","AD14EQ9O9JKRI","1","2759","0","0","0","0","0","0"
"090619","13:08:10","161210025","A2RVDEU138ZF9P","5.0.14.0","2","1","trial1","naming","0","0","0","0","camel","0","2079","1","White_Screen.jpg","33","29","Camel_Bactrian.jpg","33"
"090619","13:08:10","161210025","A2RVDEU138ZF9P","5.0.14.0","2","2","trial1","naming","0","0","0","0","spiral","0","2750","1","White_Screen.jpg","-1","149","MechanicalSpring.jpg","-1"
"090619","13:08:10","161210025","A2RVDEU138ZF9P","5.0.14.0","2","3","trial1","naming","0","0","0","0","switch","0","3222","1","White_Screen.jpg","30","147","Switch_LightBlack.jpg","30"
"090619","13:08:10","161210025","A2RVDEU138ZF9P","5.0.14.0","2","4","trial1","naming","0","0","0","0","mask","0","2460","1","White_Screen.jpg","-3","13","Mask_Happy.jpg","-3"
"090619","13:08:10","161210025","A2RVDEU138ZF9P","5.0.14.0","2","5","trial1","naming","0","0","0","0","notebook","0","2508","1","White_Screen.jpg","23","127","Notepad_WithPen.jpg","23"
"090619","13:08:10","161210025","A2RVDEU138ZF9P","5.0.14.0","2","6","trial1","naming","0","0","0","0","rinser","0","6806","1","White_Screen.jpg","41","83","Strainer_Tea.jpg","41"
"090619","13:08:10","161210025","A2RVDEU138ZF9P","5.0.14.0","2","7","trial1","naming","0","0","0","0","block","0","2419","1","White_Screen.jpg","-3","110","Toy_WoodenPlainSingle.jpg","-3"
"090619","13:08:10","161210025","A2RVDEU138ZF9P","5.0.14.0","2","8","trial1","naming","0","0","0","0","cushion","0","3874","1","White_Screen.jpg","-3","4","Chair_BeanBag.jpg","-3"
"090619","13:08:10","161210025","A2RVDEU138ZF9P","5.0.14.0","2","9","trial1","naming","0","0","0","0","vase","0","1734","1","White_Screen.jpg","-3","189","Vase_Decorative.jpg","-3"
"090619","13:08:10","161210025","A2RVDEU138ZF9P","5.0.14.0","2","10","trial1","naming","0","0","0","0","parrot ","0","2314","1","White_Screen.jpg","-3","145","Bird_Parrot.jpg","-3"
"090619","13:08:10","161210025","A2RVDEU138ZF9P","5.0.14.0","2","11","trial1","naming","0","0","0","0","costome","0","3747","1","White_Screen.jpg","-1","49","Costume_Wizard.jpg","-1"
"090619","13:08:10","161210025","A2RVDEU138ZF9P","5.0.14.0","2","12","trial1","naming","0","0","0","0","ply","0","7823","1","White_Screen.jpg","-1","40","Clippers_Glass.jpg","-1"
"090619","13:08:10","161210025","A2RVDEU138ZF9P","5.0.14.0","2","13","trial1","naming","0","0","0","0","screwdriver","0","5263","1","White_Screen.jpg","-2","108","Pipette.jpg","-2"
"090619","13:08:10","161210025","A2RVDEU138ZF9P","5.0.14.0","2","14","trial1","naming","0","0","0","0","tapestry","0","7597","1","White_Screen.jpg","41","55","Jar_Canopic.jpg","41"
"090619","13:08:10","161210025","A2RVDEU138ZF9P","5.0.14.0","2","15","trial1","naming","0","0","0","0","mirror","0","5328","1","White_Screen.jpg","-3","96","Compact_Mirror.jpg","-3"
"090619","13:08:10","161210025","A2RVDEU138ZF9P","5.0.14.0","2","16","trial1","naming","0","0","0","0","shed","0","1781","1","White_Screen.jpg","-3","45","Hangar.jpg","-3"
"090619","13:08:10","161210025","A2RVDEU138ZF9P","5.0.14.0","2","17","trial1","naming","0","0","0","0","truck","0","5017","1","White_Screen.jpg","35","48","Truck_Dump.jpg","35"
"090619","13:08:10","161210025","A2RVDEU138ZF9P","5.0.14.0","2","18","trial1","naming","0","0","0","0","biscuit","0","4412","1","White_Screen.jpg","36","139","Crackers_Ritz.jpg","36"
"090619","13:08:10","161210025","A2RVDEU138ZF9P","5.0.14.0","2","19","trial1","naming","0","0","0","0","popcorn","0","4937","1","White_Screen.jpg","-4","84","Popcorn.jpg","-4"
"090619","13:08:10","161210025","A2RVDEU138ZF9P","5.0.14.0","2","20","trial1","naming","0","0","0","0","bone","0","2198","1","White_Screen.jpg","-3","195","Bone.jpg","-3"
"090619","13:08:10","161210025","A2RVDEU138ZF9P","5.0.14.0","2","21","trial1","naming","0","0","0","0","decoration","0","6483","1","White_Screen.jpg","32","103","CookieCutter_Tree.jpg","32"
"090619","13:08:10","161210025","A2RVDEU138ZF9P","5.0.14.0","2","22","trial1","naming","0","0","0","0","camera","0","2555","1","White_Screen.jpg","-3","140","Camera_Security.jpg","-3"
"090619","13:08:10","161210025","A2RVDEU138ZF9P","5.0.14.0","2","23","trial1","naming","0","0","0","0","carnival","0","7087","1","White_Screen.jpg","-1","146","Carousel.jpg","-1"
"090619","13:08:10","161210025","A2RVDEU138ZF9P","5.0.14.0","2","24","trial1","naming","0","0","0","0","dog food","0","2271","1","White_Screen.jpg","35","174","DogFood.jpg","35"
"090619","13:08:10","161210025","A2RVDEU138ZF9P","5.0.14.0","2","25","trial1","naming","0","0","0","0","broom","0","2420","1","White_Screen.jpg","-2","41","Brush_Winter.jpg","-2"
"090619","13:08:10","161210025","A2RVDEU138ZF9P","5.0.14.0","2","26","trial1","naming","0","0","0","0","oil anker","0","2970","1","White_Screen.jpg","-3","46","Truck_Tanker.jpg","-3"
"090619","13:08:10","161210025","A2RVDEU138ZF9P","5.0.14.0","2","27","trial1","naming","0","0","0","0","decoration","0","4989","1","White_Screen.jpg","-2","72","LightBulb_Christmas.jpg","-2"
"090619","13:08:10","161210025","A2RVDEU138ZF9P","5.0.14.0","2","28","trial1","naming","0","0","0","0","tombstone","0","4319","1","White_Screen.jpg","40","157","Tombstone.jpg","40"
"090619","13:08:10","161210025","A2RVDEU138ZF9P","5.0.14.0","2","29","trial1","naming","0","0","0","0","bench","0","2385","1","White_Screen.jpg","2","36","Table_Picnic.jpg","2"
"090619","13:08:10","161210025","A2RVDEU138ZF9P","5.0.14.0","2","30","trial1","naming","0","0","0","0","nipple","0","3618","1","White_Screen.jpg","0","151","Pacifier.jpg","0"
"090619","13:08:10","161210025","A2RVDEU138ZF9P","5.0.14.0","2","31","trial1","naming","0","0","0","0","drumstick","0","8248","1","White_Screen.jpg","-3","136","Chicken_FriedDrum.jpg","-3"
"090619","13:08:10","161210025","A2RVDEU138ZF9P","5.0.14.0","2","32","trial1","naming","0","0","0","0","pendulum ","0","4310","1","White_Screen.jpg","0","171","Decoration_ChristmasWhite.jpg","0"
"090619","13:08:10","161210025","A2RVDEU138ZF9P","5.0.14.0","2","33","trial1","naming","0","0","0","0","tag","0","1916","1","White_Screen.jpg","-3","15","Tag_Price.jpg","-3"
"090619","13:08:10","161210025","A2RVDEU138ZF9P","5.0.14.0","2","34","trial1","naming","0","0","0","0","cotton bud","0","6311","1","White_Screen.jpg","33","155","Qtip_Single.jpg","33"
"090619","13:08:10","161210025","A2RVDEU138ZF9P","5.0.14.0","2","35","trial1","naming","0","0","0","0","panda","0","3270","1","White_Screen.jpg","-2","81","Toy_PandaPlushie.jpg","-2"
"090619","13:08:10","161210025","A2RVDEU138ZF9P","5.0.14.0","2","36","trial1","naming","0","0","0","0","cushion","0","3162","1","White_Screen.jpg","-2","161","Pillow_Plaid.jpg","-2"
"090619","13:08:10","161210025","A2RVDEU138ZF9P","5.0.14.0","2","37","trial1","naming","0","0","0","0","bottle","0","2584","1","White_Screen.jpg","-3","153","Bottle_Beer.jpg","-3"
"090619","13:08:10","161210025","A2RVDEU138ZF9P","5.0.14.0","2","38","trial1","naming","0","0","0","0","controller","0","2681","1","White_Screen.jpg","-3","52","Joystick.jpg","-3"
"090619","13:08:10","161210025","A2RVDEU138ZF9P","5.0.14.0","2","39","trial1","naming","0","0","0","0","brocolli ","0","3403","1","White_Screen.jpg","-1","180","Cauliflower.jpg","-1"
"090619","13:08:10","161210025","A2RVDEU138ZF9P","5.0.14.0","2","40","trial1","naming","0","0","0","0","jar","0","4968","1","White_Screen.jpg","-2","42","PowderProtein.jpg","-2"
"090619","13:08:10","161210025","A2RVDEU138ZF9P","5.0.14.0","2","41","trial1","naming","0","0","0","0","rack","0","3318","1","White_Screen.jpg","0","73","WashRack.jpg","0"
"090619","13:08:10","161210025","A2RVDEU138ZF9P","5.0.14.0","2","42","trial1","naming","0","0","0","0","ring","0","1779","1","White_Screen.jpg","-2","198","Ring_Diamond.jpg","-2"
"090619","13:08:10","161210025","A2RVDEU138ZF9P","5.0.14.0","2","43","trial1","naming","0","0","0","0","lamp","0","2294","1","White_Screen.jpg","34","199","Stroboscope.jpg","34"
"090619","13:08:10","161210025","A2RVDEU138ZF9P","5.0.14.0","2","44","trial1","naming","0","0","0","0","knob","0","6622","1","White_Screen.jpg","31","8","Clip_Chip.jpg","31"
"090619","13:08:10","161210025","A2RVDEU138ZF9P","5.0.14.0","2","45","trial1","naming","0","0","0","0","board","0","4496","1","White_Screen.jpg","35","165","BoogieBoard.jpg","35"
"090619","13:08:10","161210025","A2RVDEU138ZF9P","5.0.14.0","2","46","trial1","naming","0","0","0","0","eagle","0","2487","1","White_Screen.jpg","3","88","Hawk.jpg","3"
"090619","13:08:10","161210025","A2RVDEU138ZF9P","5.0.14.0","2","47","trial1","naming","0","0","0","0","mouse","0","2320","1","White_Screen.jpg","24","148","MousepadAndMouse.jpg","24"
"090619","13:08:10","161210025","A2RVDEU138ZF9P","5.0.14.0","2","48","trial1","naming","0","0","0","0","cheetah","0","4670","1","White_Screen.jpg","-2","117","Cougar.jpg","-2"
"090619","13:08:10","161210025","A2RVDEU138ZF9P","5.0.14.0","2","49","trial1","naming","0","0","0","0","piano","0","2594","1","White_Screen.jpg","37","172","Accordion.jpg","37"
"090619","13:08:10","161210025","A2RVDEU138ZF9P","5.0.14.0","2","50","trial1","naming","0","0","0","0","telescope","0","4229","1","White_Screen.jpg","-2","156","Telescope.jpg","-2"
"090619","13:08:10","161210025","A2RVDEU138ZF9P","5.0.14.0","2","52","trial1","naming","0","0","0","0","lighter ","0","4491","1","White_Screen.jpg","-4","22","Lighter_Black.jpg","-4"
"090619","13:08:10","161210025","A2RVDEU138ZF9P","5.0.14.0","2","53","trial1","naming","0","0","0","0","bench","0","2656","1","White_Screen.jpg","-3","51","Bench_Black.jpg","-3"
"090619","13:08:10","161210025","A2RVDEU138ZF9P","5.0.14.0","2","54","trial1","naming","0","0","0","0","chicken","0","3036","1","White_Screen.jpg","-2","43","Rock_Mimetite.jpg","-2"
"090619","13:08:10","161210025","A2RVDEU138ZF9P","5.0.14.0","2","55","trial1","naming","0","0","0","0","ball","0","1756","1","White_Screen.jpg","-3","167","Pepperoni.jpg","-3"
"090619","13:08:10","161210025","A2RVDEU138ZF9P","5.0.14.0","2","56","trial1","naming","0","0","0","0","bottle","0","2431","1","White_Screen.jpg","-1","47","Shampoo.jpg","-1"
"090619","13:08:10","161210025","A2RVDEU138ZF9P","5.0.14.0","2","57","trial1","naming","0","0","0","0","tractor","0","3101","1","White_Screen.jpg","-2","34","Bulldozer.jpg","-2"
"090619","13:08:10","161210025","A2RVDEU138ZF9P","5.0.14.0","2","58","trial1","naming","0","0","0","0","fish","0","1903","1","White_Screen.jpg","58","7","Fish_Rockbass.jpg","58"
"090619","13:08:10","161210025","A2RVDEU138ZF9P","5.0.14.0","2","59","trial1","naming","0","0","0","0","peen","0","4351","1","White_Screen.jpg","-2","57","SolderingIron.jpg","-2"
"090619","13:08:10","161210025","A2RVDEU138ZF9P","5.0.14.0","2","60","trial1","naming","0","0","0","0","carriage","0","4227","1","White_Screen.jpg","-2","179","WagonPilgrim.jpg","-2"
"090619","13:08:10","161210025","A2RVDEU138ZF9P","5.0.14.0","2","61","trial1","naming","0","0","0","0","tisse","0","2693","1","White_Screen.jpg","1","109","Napkin_Holder.jpg","1"
"090619","13:08:10","161210025","A2RVDEU138ZF9P","5.0.14.0","2","62","trial1","naming","0","0","0","0","stapler","0","3351","1","White_Screen.jpg","-1","190","Stapler_Regular.jpg","-1"
"090619","13:08:10","161210025","A2RVDEU138ZF9P","5.0.14.0","2","63","trial1","naming","0","0","0","0","paintbrush","0","5992","1","White_Screen.jpg","-3","184","PaintBrushAndPallette.jpg","-3"
"090619","13:08:10","161210025","A2RVDEU138ZF9P","5.0.14.0","2","64","trial1","naming","0","0","0","0","glove","0","2221","1","White_Screen.jpg","40","188","Mitt_Blue.jpg","40"
"090619","13:08:10","161210025","A2RVDEU138ZF9P","5.0.14.0","2","65","trial1","naming","0","0","0","0","velcro","0","5428","1","White_Screen.jpg","39","112","Kneepad.jpg","39"
"090619","13:08:10","161210025","A2RVDEU138ZF9P","5.0.14.0","2","66","trial1","naming","0","0","0","0","dog","0","3979","1","White_Screen.jpg","-2","159","Dog_ChowChow.jpg","-2"
"090619","13:08:10","161210025","A2RVDEU138ZF9P","5.0.14.0","2","67","trial1","naming","0","0","0","0","cutting board","0","4517","1","White_Screen.jpg","29","70","Paddle_Bread.jpg","29"
"090619","13:08:10","161210025","A2RVDEU138ZF9P","5.0.14.0","2","68","trial1","naming","0","0","0","0","trash bag","0","2551","1","White_Screen.jpg","-2","164","Bag_Garbage.jpg","-2"
"090619","13:08:10","161210025","A2RVDEU138ZF9P","5.0.14.0","2","69","trial1","naming","0","0","0","0","sock","0","2039","1","White_Screen.jpg","-1","33","Sock_Ankle.jpg","-1"
"090619","13:08:10","161210025","A2RVDEU138ZF9P","5.0.14.0","2","70","trial1","naming","0","0","0","0","lace","0","2175","1","White_Screen.jpg","-3","75","ShoeLace_Round.jpg","-3"
"090619","13:08:10","161210025","A2RVDEU138ZF9P","5.0.14.0","2","71","trial1","naming","0","0","0","0","decoration","0","9013","1","White_Screen.jpg","-1","152","HairScrunchie.jpg","-1"
"090619","13:08:10","161210025","A2RVDEU138ZF9P","5.0.14.0","2","72","trial1","naming","0","0","0","0","toy","0","3993","1","White_Screen.jpg","-2","44","Bottle_BubbleBlower.jpg","-2"
"090619","13:08:10","161210025","A2RVDEU138ZF9P","5.0.14.0","2","73","trial1","naming","0","0","0","0","disk","0","3879","1","White_Screen.jpg","-1","62","Case_CD.jpg","-1"
"090619","13:08:10","161210025","A2RVDEU138ZF9P","5.0.14.0","2","74","trial1","naming","0","0","0","0","almond","0","3334","1","White_Screen.jpg","30","64","Almond.jpg","30"
"090619","13:08:10","161210025","A2RVDEU138ZF9P","5.0.14.0","2","75","trial1","naming","0","0","0","0","shell","0","4862","1","White_Screen.jpg","-3","11","Egg_Wooden.jpg","-3"
"090619","13:08:10","161210025","A2RVDEU138ZF9P","5.0.14.0","2","76","trial1","naming","0","0","0","0","whistle","0","3940","1","White_Screen.jpg","-1","135","Kazoo.jpg","-1"
"090619","13:08:10","161210025","A2RVDEU138ZF9P","5.0.14.0","2","77","trial1","naming","0","0","0","0","wind","0","6776","1","White_Screen.jpg","-1","77","Weathervane.jpg","-1"
"090619","13:08:10","161210025","A2RVDEU138ZF9P","5.0.14.0","2","78","trial1","naming","0","0","0","0","bench","0","3690","1","White_Screen.jpg","26","104","Swing_Porch.jpg","26"
"090619","13:08:10","161210025","A2RVDEU138ZF9P","5.0.14.0","2","79","trial1","naming","0","0","0","0","sunflower","0","2397","1","White_Screen.jpg","-1","61","Flower_Sun.jpg","-1"
"090619","13:08:10","161210025","A2RVDEU138ZF9P","5.0.14.0","2","80","trial1","naming","0","0","0","0","pear","0","2786","1","White_Screen.jpg","-1","120","Pear_Yellow.jpg","-1"
"090619","13:08:10","161210025","A2RVDEU138ZF9P","5.0.14.0","2","81","trial1","naming","0","0","0","0","nail","0","2779","1","White_Screen.jpg","37","53","Peeler.jpg","37"
"090619","13:08:10","161210025","A2RVDEU138ZF9P","5.0.14.0","2","82","trial1","naming","0","0","0","0","straw","0","3108","1","White_Screen.jpg","30","35","Diode.jpg","30"
"090619","13:08:10","161210025","A2RVDEU138ZF9P","5.0.14.0","2","83","trial1","naming","0","0","0","0","truck","0","4113","1","White_Screen.jpg","-3","133","Truck_VintageBlue.jpg","-3"
"090619","13:08:10","161210025","A2RVDEU138ZF9P","5.0.14.0","2","84","trial1","naming","0","0","0","0","generator","0","3152","1","White_Screen.jpg","-4","191","Compressor.jpg","-4"
"090619","13:08:10","161210025","A2RVDEU138ZF9P","5.0.14.0","2","85","trial1","naming","0","0","0","0","map","0","1411","1","White_Screen.jpg","-2","66","WorldMap.jpg","-2"
"090619","13:08:10","161210025","A2RVDEU138ZF9P","5.0.14.0","2","86","trial1","naming","0","0","0","0","fish tank","0","3492","1","White_Screen.jpg","-2","144","Aquarium.jpg","-2"
"090619","13:08:10","161210025","A2RVDEU138ZF9P","5.0.14.0","2","87","trial1","naming","0","0","0","0","basket","0","6770","1","White_Screen.jpg","-2","30","Basket_Firewood.jpg","-2"
"090619","13:08:10","161210025","A2RVDEU138ZF9P","5.0.14.0","2","88","trial1","naming","0","0","0","0","spinach","0","5060","1","White_Screen.jpg","39","24","Alfalfa.jpg","39"
"090619","13:08:10","161210025","A2RVDEU138ZF9P","5.0.14.0","2","89","trial1","naming","0","0","0","0","mirror","0","4524","1","White_Screen.jpg","0","91","Mirror_Carside.jpg","0"
"090619","13:08:10","161210025","A2RVDEU138ZF9P","5.0.14.0","2","90","trial1","naming","0","0","0","0","alarm clock","0","2464","1","White_Screen.jpg","-1","28","Clock_Radio.jpg","-1"
"090619","13:08:10","161210025","A2RVDEU138ZF9P","5.0.14.0","2","91","trial1","naming","0","0","0","0","zebra","0","1967","1","White_Screen.jpg","-4","169","Toy_Zebra.jpg","-4"
"090619","13:08:10","161210025","A2RVDEU138ZF9P","5.0.14.0","2","92","trial1","naming","0","0","0","0","boots","0","2439","1","White_Screen.jpg","-1","124","Boots_Hiking.jpg","-1"
"090619","13:08:10","161210025","A2RVDEU138ZF9P","5.0.14.0","2","93","trial1","naming","0","0","0","0","paper","0","2213","1","White_Screen.jpg","-1","182","Box_Notepaper.jpg","-1"
"090619","13:08:10","161210025","A2RVDEU138ZF9P","5.0.14.0","2","94","trial1","naming","0","0","0","0","lifejacket ","0","3670","1","White_Screen.jpg","-3","126","LifeJacket_Orangejpg.jpg","-3"
"090619","13:08:10","161210025","A2RVDEU138ZF9P","5.0.14.0","2","95","trial1","naming","0","0","0","0","mask","0","2467","1","White_Screen.jpg","3","92","Mask_Buddhist.jpg","3"
"090619","13:08:10","161210025","A2RVDEU138ZF9P","5.0.14.0","2","96","trial1","naming","0","0","0","0","spoon","0","5342","1","White_Screen.jpg","40","82","Spoons_Musical.jpg","40"
"090619","13:08:10","161210025","A2RVDEU138ZF9P","5.0.14.0","2","97","trial1","naming","0","0","0","0","knob","0","2884","1","White_Screen.jpg","-2","185","PhoneJack.jpg","-2"
"090619","13:08:10","161210025","A2RVDEU138ZF9P","5.0.14.0","2","98","trial1","naming","0","0","0","0","pool table","0","3473","1","White_Screen.jpg","0","86","Table_Pool.jpg","0"
"090619","13:08:10","161210025","A2RVDEU138ZF9P","5.0.14.0","2","99","trial1","naming","0","0","0","0","donkey","0","2649","1","White_Screen.jpg","-2","106","Toy_DonkeyFur.jpg","-2"
"090619","13:08:10","161210025","A2RVDEU138ZF9P","5.0.14.0","2","100","trial1","naming","0","0","0","0","cookie","0","2536","1","White_Screen.jpg","-2","197","Cookie.jpg","-2"
"090619","13:08:10","161210025","A2RVDEU138ZF9P","5.0.14.0","2","101","trial1","naming","0","0","0","0","ribbon","0","2322","1","White_Screen.jpg","-3","178","RibbonPin.jpg","-3"
"090619","13:08:10","161210025","A2RVDEU138ZF9P","5.0.14.0","2","103","trial1","naming","0","0","0","0","buggie","0","2347","1","White_Screen.jpg","-3","32","Car_Buggy.jpg","-3"
"090619","13:08:10","161210025","A2RVDEU138ZF9P","5.0.14.0","2","104","trial1","naming","0","0","0","0","dial","0","3669","1","White_Screen.jpg","-1","175","Thermostat.jpg","-1"
