"date","time","group","subject","build","blocknum","trialnum","blockcode","trialcode","pretrialpause","posttrialpause","trialduration","trialtimeout","response","correct","latency","stimulusnumber1","stimulusitem1","stimulusonset1","stimulusnumber2","stimulusitem2","stimulusonset2"
"022420","15:04:47","31","31","5.0.14.0","2","1","trial1","naming","0","0","0","0","butter knife","0","5241","1","White_Screen.jpg","14","154","Knife_Butter.jpg","14"
"022420","15:04:47","31","31","5.0.14.0","2","2","trial1","naming","0","0","0","0","football helmet","0","5359","1","White_Screen.jpg","14","125","Helmet_Football.jpg","14"
"022420","15:04:47","31","31","5.0.14.0","2","3","trial1","naming","0","0","0","0","blocks","0","3455","1","White_Screen.jpg","15","145","Toy_BlocksPlastic Colourful.jpg","15"
"022420","15:04:47","31","31","5.0.14.0","2","4","trial1","naming","0","0","0","0","styrofoam cup","0","3973","1","White_Screen.jpg","14","34","Cup_Styrofoam.jpg","14"
"022420","15:04:47","31","31","5.0.14.0","2","5","trial1","naming","0","0","0","0","Donald Duck figurine","0","4519","1","White_Screen.jpg","14","134","DonaldDuck_Toy.jpg","14"
"022420","15:04:47","31","31","5.0.14.0","2","6","trial1","naming","0","0","0","0","Hockey puck","0","4019","1","White_Screen.jpg","14","92","Hockey_Puck.jpg","14"
"022420","15:04:47","31","31","5.0.14.0","2","7","trial1","naming","0","0","0","0","Peach","0","5028","1","White_Screen.jpg","12","42","Lychee.jpg","12"
"022420","15:04:47","31","31","5.0.14.0","2","8","trial1","naming","0","0","0","0","Fighter Jet","0","3023","1","White_Screen.jpg","14","161","Jet.jpg","14"
"022420","15:04:47","31","31","5.0.14.0","2","9","trial1","naming","0","0","0","0","Kite","0","2384","1","White_Screen.jpg","13","66","Kite_Rainbow.jpg","13"
"022420","15:04:47","31","31","5.0.14.0","2","10","trial1","naming","0","0","0","0","glass bowl","0","3356","1","White_Screen.jpg","15","67","Bowl_Glass.jpg","15"
"022420","15:04:47","31","31","5.0.14.0","2","11","trial1","naming","0","0","0","0","fish trophy","0","3295","1","White_Screen.jpg","13","121","SculptureMetalFish.jpg","13"
"022420","15:04:47","31","31","5.0.14.0","2","12","trial1","naming","0","0","0","0","sneaker","0","2294","1","White_Screen.jpg","13","197","Shoe_Sneaker.jpg","13"
"022420","15:04:47","31","31","5.0.14.0","2","13","trial1","naming","0","0","0","0","bootie","0","2589","1","White_Screen.jpg","12","29","Shoes_WomenBoots.jpg","12"
"022420","15:04:47","31","31","5.0.14.0","2","14","trial1","naming","0","0","0","0","inkwell","0","3422","1","White_Screen.jpg","13","189","Pot_TurkishCoffee.jpg","13"
"022420","15:04:47","31","31","5.0.14.0","2","15","trial1","naming","0","0","0","0","wheelbarrow","0","3933","1","White_Screen.jpg","13","148","Wheelbarrow_Green.jpg","13"
"022420","15:04:47","31","31","5.0.14.0","2","16","trial1","naming","0","0","0","0","lawnmower","0","3664","1","White_Screen.jpg","13","41","LawnMower.jpg","13"
"022420","15:04:47","31","31","5.0.14.0","2","17","trial1","naming","0","0","0","0","sitar","0","2963","1","White_Screen.jpg","13","83","Balalaika.jpg","13"
"022420","15:04:47","31","31","5.0.14.0","2","18","trial1","naming","0","0","0","0","carrots","0","2291","1","White_Screen.jpg","13","95","Carrot.jpg","13"
"022420","15:04:47","31","31","5.0.14.0","2","19","trial1","naming","0","0","0","0","octopus","0","3795","1","White_Screen.jpg","11","97","Toy_Octopus.jpg","11"
"022420","15:04:47","31","31","5.0.14.0","2","20","trial1","naming","0","0","0","0","boots","0","3051","1","White_Screen.jpg","13","195","Boots_KneeHigh.jpg","13"
"022420","15:04:47","31","31","5.0.14.0","2","21","trial1","naming","0","0","0","0","sledgehammer","0","2831","1","White_Screen.jpg","12","74","SledgeHammer.jpg","12"
"022420","15:04:47","31","31","5.0.14.0","2","22","trial1","naming","0","0","0","0","roller","0","2722","1","White_Screen.jpg","13","119","Cabasa.jpg","13"
"022420","15:04:47","31","31","5.0.14.0","2","23","trial1","naming","0","0","0","0","plunger","0","3070","1","White_Screen.jpg","12","194","Plunger.jpg","12"
"022420","15:04:47","31","31","5.0.14.0","2","24","trial1","naming","0","0","0","0","sink","0","2635","1","White_Screen.jpg","13","141","Sink_Kitchen.jpg","13"
"022420","15:04:47","31","31","5.0.14.0","2","25","trial1","naming","0","0","0","0","drill","0","2612","1","White_Screen.jpg","13","200","Toy_Drill.jpg","13"
"022420","15:04:47","31","31","5.0.14.0","2","26","trial1","naming","0","0","0","0","recorder","0","3387","1","White_Screen.jpg","8","149","RecorderInstrument.jpg","8"
"022420","15:04:47","31","31","5.0.14.0","2","27","trial1","naming","0","0","0","0","sports car","0","3026","1","White_Screen.jpg","13","179","Car_Sedan.jpg","13"
"022420","15:04:47","31","31","5.0.14.0","2","28","trial1","naming","0","0","0","0","toy set","0","3577","1","White_Screen.jpg","14","77","Toy_StackingRing.jpg","14"
"022420","15:04:47","31","31","5.0.14.0","2","29","trial1","naming","0","0","0","0","clock","0","2441","1","White_Screen.jpg","13","130","Clock_Wall.jpg","13"
"022420","15:04:47","31","31","5.0.14.0","2","30","trial1","naming","0","0","0","0","mouthguard","0","4256","1","White_Screen.jpg","13","171","TeethMould.jpg","13"
"022420","15:04:47","31","31","5.0.14.0","2","31","trial1","naming","0","0","0","0","glass and pitcher","0","5913","1","White_Screen.jpg","13","192","MilkPitcher.jpg","13"
"022420","15:04:47","31","31","5.0.14.0","2","32","trial1","naming","0","0","0","0","winter gloves","0","3445","1","White_Screen.jpg","8","63","Gloves_Winter.jpg","8"
"022420","15:04:47","31","31","5.0.14.0","2","33","trial1","naming","0","0","0","0","passenger airplane","0","3933","1","White_Screen.jpg","8","133","Airplane_Commercial.jpg","8"
"022420","15:04:47","31","31","5.0.14.0","2","34","trial1","naming","0","0","0","0","I don't know","0","5580","1","White_Screen.jpg","14","168","JumpingJack.jpg","14"
"022420","15:04:47","31","31","5.0.14.0","2","35","trial1","naming","0","0","0","0","dart board","0","3477","1","White_Screen.jpg","13","118","DartBoard.jpg","13"
"022420","15:04:47","31","31","5.0.14.0","2","36","trial1","naming","0","0","0","0","fruit juice","0","6656","1","White_Screen.jpg","12","186","JuiceBox.jpg","12"
"022420","15:04:47","31","31","5.0.14.0","2","37","trial1","naming","0","0","0","0","jolly roger","0","3133","1","White_Screen.jpg","14","52","PirateFlag.jpg","14"
"022420","15:04:47","31","31","5.0.14.0","2","38","trial1","naming","0","0","0","0","mountain bike","0","3112","1","White_Screen.jpg","10","91","Bicycle_Adult.jpg","10"
"022420","15:04:47","31","31","5.0.14.0","2","39","trial1","naming","0","0","0","0","bread","0","2241","1","White_Screen.jpg","12","138","Bread_Carrot.jpg","12"
"022420","15:04:47","31","31","5.0.14.0","2","40","trial1","naming","0","0","0","0","duck","0","5001","1","White_Screen.jpg","14","113","Puffin.jpg","14"
"022420","15:04:47","31","31","5.0.14.0","2","41","trial1","naming","0","0","0","0","jewelry fish","0","5489","1","White_Screen.jpg","8","170","Brooch_Fish.jpg","8"
"022420","15:04:47","31","31","5.0.14.0","2","42","trial1","naming","0","0","0","0","wrench set","0","3444","1","White_Screen.jpg","13","131","Toolbox_BlackOpen.jpg","13"
"022420","15:04:47","31","31","5.0.14.0","2","43","trial1","naming","0","0","0","0","scrubber","0","2580","1","White_Screen.jpg","9","104","Brush_Nail.jpg","9"
"022420","15:04:47","31","31","5.0.14.0","2","44","trial1","naming","0","0","0","0","portable grill","0","4961","1","White_Screen.jpg","8","21","Grill_Electric.jpg","8"
"022420","15:04:47","31","31","5.0.14.0","2","45","trial1","naming","0","0","0","0","fan","0","2727","1","White_Screen.jpg","13","128","Fan_Blades.jpg","13"
"022420","15:04:47","31","31","5.0.14.0","2","46","trial1","naming","0","0","0","0","wire coil","0","3648","1","White_Screen.jpg","14","100","Wire_Soldering.jpg","14"
"022420","15:04:47","31","31","5.0.14.0","2","47","trial1","naming","0","0","0","0","beanie","0","2952","1","White_Screen.jpg","13","190","Hat_Tuque.jpg","13"
"022420","15:04:47","31","31","5.0.14.0","2","48","trial1","naming","0","0","0","0","gears","0","2400","1","White_Screen.jpg","13","172","Clock_Interior.jpg","13"
"022420","15:04:47","31","31","5.0.14.0","2","49","trial1","naming","0","0","0","0","table set","0","4182","1","White_Screen.jpg","13","20","Altar.jpg","13"
"022420","15:04:47","31","31","5.0.14.0","2","50","trial1","naming","0","0","0","0","guitar case","0","2775","1","White_Screen.jpg","13","175","Guitarcase.jpg","13"
"022420","15:04:47","31","31","5.0.14.0","2","52","trial1","naming","0","0","0","0","apple","0","4107","1","White_Screen.jpg","14","177","Apple_RedAndGreen.jpg","14"
"022420","15:04:47","31","31","5.0.14.0","2","53","trial1","naming","0","0","0","0","eagle","0","2351","1","White_Screen.jpg","15","72","Bird_Falcon.jpg","15"
"022420","15:04:47","31","31","5.0.14.0","2","54","trial1","naming","0","0","0","0","screwdriver","0","2678","1","White_Screen.jpg","15","196","ScrewDriver.jpg","15"
"022420","15:04:47","31","31","5.0.14.0","2","55","trial1","naming","0","0","0","0","box of tea","0","4155","1","White_Screen.jpg","15","64","Canister_Tea.jpg","15"
"022420","15:04:47","31","31","5.0.14.0","2","56","trial1","naming","0","0","0","0","cannon","0","2612","1","White_Screen.jpg","15","199","Cannon.jpg","15"
"022420","15:04:47","31","31","5.0.14.0","2","57","trial1","naming","0","0","0","0","bread basket","0","3117","1","White_Screen.jpg","15","39","Basket_Bread.jpg","15"
"022420","15:04:47","31","31","5.0.14.0","2","58","trial1","naming","0","0","0","0","masking tape","0","3932","1","White_Screen.jpg","15","146","Tape_Scotch.jpg","15"
"022420","15:04:47","31","31","5.0.14.0","2","59","trial1","naming","0","0","0","0","metal detector","0","3406","1","White_Screen.jpg","15","165","MetalDetector.jpg","15"
"022420","15:04:47","31","31","5.0.14.0","2","60","trial1","naming","0","0","0","0","cassette tape","0","4004","1","White_Screen.jpg","15","152","Cassette_Audio.jpg","15"
"022420","15:04:47","31","31","5.0.14.0","2","61","trial1","naming","0","0","0","0","comb","0","2660","1","White_Screen.jpg","15","98","Comb_1.jpg","15"
"022420","15:04:47","31","31","5.0.14.0","2","62","trial1","naming","0","0","0","0","handle","0","4991","1","White_Screen.jpg","8","51","MassageRoller.jpg","8"
"022420","15:04:47","31","31","5.0.14.0","2","63","trial1","naming","0","0","0","0","rug","0","2242","1","White_Screen.jpg","15","22","Mat_Door.jpg","15"
"022420","15:04:47","31","31","5.0.14.0","2","64","trial1","naming","0","0","0","0","melon","0","3967","1","White_Screen.jpg","14","71","Squash_Pumpkin.jpg","14"
"022420","15:04:47","31","31","5.0.14.0","2","65","trial1","naming","0","0","0","0","masking tape","0","3315","1","White_Screen.jpg","14","135","Tape_Washi.jpg","14"
"022420","15:04:47","31","31","5.0.14.0","2","66","trial1","naming","0","0","0","0","plastic bottle","0","4705","1","White_Screen.jpg","14","30","Bottle_Plastic.jpg","14"
"022420","15:04:47","31","31","5.0.14.0","2","67","trial1","naming","0","0","0","0","lamp","0","3097","1","White_Screen.jpg","15","56","Heater_Outdoor.jpg","15"
"022420","15:04:47","31","31","5.0.14.0","2","68","trial1","naming","0","0","0","0","double decker bus","0","3207","1","White_Screen.jpg","15","122","Bus_DoubleDecker.jpg","15"
"022420","15:04:47","31","31","5.0.14.0","2","69","trial1","naming","0","0","0","0","old camera","0","6177","1","White_Screen.jpg","13","123","Camera_Antique.jpg","13"
"022420","15:04:47","31","31","5.0.14.0","2","70","trial1","naming","0","0","0","0","toy shark","0","2913","1","White_Screen.jpg","13","160","Toy_Shark.jpg","13"
"022420","15:04:47","31","31","5.0.14.0","2","71","trial1","naming","0","0","0","0","fork","0","2581","1","White_Screen.jpg","8","37","Fork_Regular.jpg","8"
"022420","15:04:47","31","31","5.0.14.0","2","72","trial1","naming","0","0","0","0","bread","0","3086","1","White_Screen.jpg","15","156","Bread_Roll.jpg","15"
"022420","15:04:47","31","31","5.0.14.0","2","73","trial1","naming","0","0","0","0","vent","0","2052","1","White_Screen.jpg","15","103","AirVent.jpg","15"
"022420","15:04:47","31","31","5.0.14.0","2","74","trial1","naming","0","0","0","0","fishing net","0","3211","1","White_Screen.jpg","9","43","NetButterfly.jpg","9"
"022420","15:04:47","31","31","5.0.14.0","2","75","trial1","naming","0","0","0","0","cherry bomb","0","3020","1","White_Screen.jpg","14","1","Bomb.jpg","14"
"022420","15:04:47","31","31","5.0.14.0","2","76","trial1","naming","0","0","0","0","screw","0","2394","1","White_Screen.jpg","15","48","Bolt_WithNut.jpg","15"
"022420","15:04:47","31","31","5.0.14.0","2","77","trial1","naming","0","0","0","0","ottoman","0","2961","1","White_Screen.jpg","9","60","Stool_Foot.jpg","9"
"022420","15:04:47","31","31","5.0.14.0","2","78","trial1","naming","0","0","0","0","noose","0","2091","1","White_Screen.jpg","13","180","Noose.jpg","13"
"022420","15:04:47","31","31","5.0.14.0","2","79","trial1","naming","0","0","0","0","nail","0","3216","1","White_Screen.jpg","14","75","Nail.jpg","14"
"022420","15:04:47","31","31","5.0.14.0","2","80","trial1","naming","0","0","0","0","knife","0","2743","1","White_Screen.jpg","12","81","Knife_Kitchen.jpg","12"
"022420","15:04:47","31","31","5.0.14.0","2","81","trial1","naming","0","0","0","0","water fountain","0","2951","1","White_Screen.jpg","14","127","WaterFountain.jpg","14"
"022420","15:04:47","31","31","5.0.14.0","2","82","trial1","naming","0","0","0","0","hard hat","0","2365","1","White_Screen.jpg","14","59","Hat_Hard.jpg","14"
"022420","15:04:47","31","31","5.0.14.0","2","83","trial1","naming","0","0","0","0","manila folder","0","2992","1","White_Screen.jpg","14","151","Envelope_Manila.jpg","14"
"022420","15:04:47","31","31","5.0.14.0","2","84","trial1","naming","0","0","0","0","porridge","0","4292","1","White_Screen.jpg","10","139","Bowl_Cereal.jpg","10"
"022420","15:04:47","31","31","5.0.14.0","2","85","trial1","naming","0","0","0","0","hula hoop","0","3110","1","White_Screen.jpg","13","85","Hulahoop.jpg","13"
"022420","15:04:47","31","31","5.0.14.0","2","86","trial1","naming","0","0","0","0","cast iron bowl","0","3674","1","White_Screen.jpg","12","140","Pot_BlackOld.jpg","12"
"022420","15:04:47","31","31","5.0.14.0","2","87","trial1","naming","0","0","0","0","key holder","0","3160","1","White_Screen.jpg","13","153","KeyHook_Occupied.jpg","13"
"022420","15:04:47","31","31","5.0.14.0","2","88","trial1","naming","0","0","0","0","pillar","0","2646","1","White_Screen.jpg","13","101","PedestalGreek.jpg","13"
"022420","15:04:47","31","31","5.0.14.0","2","89","trial1","naming","0","0","0","0","toy helicopter","0","4147","1","White_Screen.jpg","12","109","Toy_Helicopter.jpg","12"
"022420","15:04:47","31","31","5.0.14.0","2","90","trial1","naming","0","0","0","0","pineapple","0","3336","1","White_Screen.jpg","13","84","Pineapple.jpg","13"
"022420","15:04:47","31","31","5.0.14.0","2","91","trial1","naming","0","0","0","0","cooler","0","4067","1","White_Screen.jpg","11","9","Cooler.jpg","11"
"022420","15:04:47","31","31","5.0.14.0","2","92","trial1","naming","0","0","0","0","road sign","0","4133","1","White_Screen.jpg","13","7","Sign_HumpBridgeAhead.jpg","13"
"022420","15:04:47","31","31","5.0.14.0","2","93","trial1","naming","0","0","0","0","drum","0","2308","1","White_Screen.jpg","14","94","Drum_Conga.jpg","14"
"022420","15:04:47","31","31","5.0.14.0","2","94","trial1","naming","0","0","0","0","marble bust","0","2674","1","White_Screen.jpg","13","78","Statue_Head.jpg","13"
"022420","15:04:47","31","31","5.0.14.0","2","95","trial1","naming","0","0","0","0","christmas ornaments","0","4181","1","White_Screen.jpg","13","70","Candle_ChristmasDecor.jpg","13"
"022420","15:04:47","31","31","5.0.14.0","2","96","trial1","naming","0","0","0","0","dish rack","0","3813","1","White_Screen.jpg","13","5","DryRack_Dishes.jpg","13"
"022420","15:04:47","31","31","5.0.14.0","2","97","trial1","naming","0","0","0","0","GPS","0","2150","1","White_Screen.jpg","13","23","GPS.jpg","13"
"022420","15:04:47","31","31","5.0.14.0","2","98","trial1","naming","0","0","0","0","stereo speaker","0","3605","1","White_Screen.jpg","14","176","Speakers_Theatre.jpg","14"
"022420","15:04:47","31","31","5.0.14.0","2","99","trial1","naming","0","0","0","0","lemon","0","2273","1","White_Screen.jpg","8","191","Lemon.jpg","8"
"022420","15:04:47","31","31","5.0.14.0","2","100","trial1","naming","0","0","0","0","clam","0","4805","1","White_Screen.jpg","15","108","Oyster.jpg","15"
"022420","15:04:47","31","31","5.0.14.0","2","101","trial1","naming","0","0","0","0","Pagoda","0","7513","1","White_Screen.jpg","14","124","BuildingChinese.jpg","14"
"022420","15:04:47","31","31","5.0.14.0","2","103","trial1","naming","0","0","0","0","measuring tool","0","5520","1","White_Screen.jpg","8","55","Ruler_Digital.jpg","8"
"022420","15:04:47","31","31","5.0.14.0","2","104","trial1","naming","0","0","0","0","box of chocolates","0","4744","1","White_Screen.jpg","14","58","Box_Chocolate.jpg","14"
"022420","15:04:47","31","31","5.0.14.0","2","105","trial1","naming","0","0","0","0","beer in glass","0","5397","1","White_Screen.jpg","13","184","Glass_Beer.jpg","13"
"022420","15:04:47","31","31","5.0.14.0","2","106","trial1","naming","0","0","0","0","zucchini","0","2862","1","White_Screen.jpg","12","164","Zucchini.jpg","12"
"022420","15:04:47","31","31","5.0.14.0","2","107","trial1","naming","0","0","0","0","hand","0","2595","1","White_Screen.jpg","13","50","Hand.jpg","13"
"022420","15:04:47","31","31","5.0.14.0","2","108","trial1","naming","0","0","0","0","scanner","0","3437","1","White_Screen.jpg","14","16","ScannerShoplifting.jpg","14"
"022420","15:04:47","31","31","5.0.14.0","2","109","trial1","naming","0","0","0","0","bag of mint","0","6911","1","White_Screen.jpg","13","3","HerbsInBag.jpg","13"
"022420","15:04:47","31","31","5.0.14.0","2","110","trial1","naming","0","0","0","0","daddy long legs","0","3335","1","White_Screen.jpg","13","106","Spider.jpg","13"
"022420","15:04:47","31","31","5.0.14.0","2","111","trial1","naming","0","0","0","0","scrubber","0","3788","1","White_Screen.jpg","8","25","Brush_Shoe.jpg","8"
"022420","15:04:47","31","31","5.0.14.0","2","112","trial1","naming","0","0","0","0","humidifier","0","4811","1","White_Screen.jpg","13","82","Humidifier.jpg","13"
"022420","15:04:47","31","31","5.0.14.0","2","113","trial1","naming","0","0","0","0","ABC blocks","0","4036","1","White_Screen.jpg","13","35","Toy_BlocksLetter.jpg","13"
"022420","15:04:47","31","31","5.0.14.0","2","114","trial1","naming","0","0","0","0","packing tape","0","5011","1","White_Screen.jpg","14","183","Tape_Clear.jpg","14"
"022420","15:04:47","31","31","5.0.14.0","2","115","trial1","naming","0","0","0","0","locker","0","2500","1","White_Screen.jpg","14","19","ElectricSwitchboard.jpg","14"
"022420","15:04:47","31","31","5.0.14.0","2","116","trial1","naming","0","0","0","0","gift","0","2075","1","White_Screen.jpg","13","79","Box_GiftTopView.jpg","13"
"022420","15:04:47","31","31","5.0.14.0","2","117","trial1","naming","0","0","0","0","pickup truck","0","5654","1","White_Screen.jpg","14","17","PickupTruck.jpg","14"
"022420","15:04:47","31","31","5.0.14.0","2","118","trial1","naming","0","0","0","0","colander","0","3106","1","White_Screen.jpg","13","116","Sieve_SideView.jpg","13"
"022420","15:04:47","31","31","5.0.14.0","2","119","trial1","naming","0","0","0","0","doll","0","2326","1","White_Screen.jpg","14","40","Toy_DollHomeMade.jpg","14"
"022420","15:04:47","31","31","5.0.14.0","2","120","trial1","naming","0","0","0","0","plum","0","3054","1","White_Screen.jpg","13","89","Plum.jpg","13"
"022420","15:04:47","31","31","5.0.14.0","2","121","trial1","naming","0","0","0","0","cement mixer","0","3419","1","White_Screen.jpg","14","32","Mixer_Cement.jpg","14"
"022420","15:04:47","31","31","5.0.14.0","2","122","trial1","naming","0","0","0","0","toy horse","0","3608","1","White_Screen.jpg","14","53","Toy_RockingHorseBlack.jpg","14"
"022420","15:04:47","31","31","5.0.14.0","2","123","trial1","naming","0","0","0","0","keychain","0","2651","1","White_Screen.jpg","13","11","Keychain_Leather.jpg","13"
"022420","15:04:47","31","31","5.0.14.0","2","124","trial1","naming","0","0","0","0","fortune cookie","0","3188","1","White_Screen.jpg","13","107","FortuneCookie.jpg","13"
"022420","15:04:47","31","31","5.0.14.0","2","125","trial1","naming","0","0","0","0","fire extinguisher","0","3519","1","White_Screen.jpg","14","166","FireExtinguisher.jpg","14"
"022420","15:04:47","31","31","5.0.14.0","2","126","trial1","naming","0","0","0","0","viking helmet","0","2974","1","White_Screen.jpg","13","57","Mask_Viking.jpg","13"
"022420","15:04:47","31","31","5.0.14.0","2","127","trial1","naming","0","0","0","0","make up mirror","0","6791","1","White_Screen.jpg","8","174","Compact_Powder.jpg","8"
"022420","15:04:47","31","31","5.0.14.0","2","128","trial1","naming","0","0","0","0","grinder","0","3620","1","White_Screen.jpg","14","38","ProcessorFood_Old.jpg","14"
"022420","15:04:47","31","31","5.0.14.0","2","129","trial1","naming","0","0","0","0","scooter","0","2217","1","White_Screen.jpg","14","169","Scooter.jpg","14"
"022420","15:04:47","31","31","5.0.14.0","2","130","trial1","naming","0","0","0","0","goose","0","3090","1","White_Screen.jpg","13","10","Bird_CanadianGoose.jpg","13"
"022420","15:04:47","31","31","5.0.14.0","2","131","trial1","naming","0","0","0","0","ruler","0","2530","1","White_Screen.jpg","13","126","Ruler_Wooden.jpg","13"
"022420","15:04:47","31","31","5.0.14.0","2","132","trial1","naming","0","0","0","0","canteen and spoon","0","4602","1","White_Screen.jpg","13","112","Lunchbox.jpg","13"
"022420","15:04:47","31","31","5.0.14.0","2","133","trial1","naming","0","0","0","0","hairband","0","2716","1","White_Screen.jpg","13","24","HairBand.jpg","13"
"022420","15:04:47","31","31","5.0.14.0","2","134","trial1","naming","0","0","0","0","licorice","0","2896","1","White_Screen.jpg","14","18","Licorice.jpg","14"
"022420","15:04:47","31","31","5.0.14.0","2","135","trial1","naming","0","0","0","0","marble pillar","0","3430","1","White_Screen.jpg","14","198","ColumnMarble.jpg","14"
"022420","15:04:47","31","31","5.0.14.0","2","136","trial1","naming","0","0","0","0","boombox","0","3327","1","White_Screen.jpg","14","158","Boombox.jpg","14"
"022420","15:04:47","31","31","5.0.14.0","2","137","trial1","naming","0","0","0","0","leaf blower","0","3711","1","White_Screen.jpg","15","12","LeafBlower.jpg","15"
"022420","15:04:47","31","31","5.0.14.0","2","138","trial1","naming","0","0","0","0","lamp","0","2219","1","White_Screen.jpg","14","13","LampPost_WhiteOrnate.jpg","14"
"022420","15:04:47","31","31","5.0.14.0","2","139","trial1","naming","0","0","0","0","dolphin","0","2540","1","White_Screen.jpg","15","163","Dolphine.jpg","15"
"022420","15:04:47","31","31","5.0.14.0","2","140","trial1","naming","0","0","0","0","harmonica case","0","3942","1","White_Screen.jpg","14","14","Case_WoodenOrnate.jpg","14"
"022420","15:04:47","31","31","5.0.14.0","2","141","trial1","naming","0","0","0","0","hat","0","2985","1","White_Screen.jpg","13","87","Hat_Cowboy.jpg","13"
"022420","15:04:47","31","31","5.0.14.0","2","142","trial1","naming","0","0","0","0","kangaroo","0","2542","1","White_Screen.jpg","9","44","Kangaroo.jpg","9"
"022420","15:04:47","31","31","5.0.14.0","2","143","trial1","naming","0","0","0","0","butcher knife","0","4208","1","White_Screen.jpg","8","136","Cleaver_Meat.jpg","8"
"022420","15:04:47","31","31","5.0.14.0","2","144","trial1","naming","0","0","0","0","slinky","0","2337","1","White_Screen.jpg","8","96","Toy_Slinky.jpg","8"
"022420","15:04:47","31","31","5.0.14.0","2","145","trial1","naming","0","0","0","0","tomato sauce","0","5485","1","White_Screen.jpg","14","61","TomatoSauce.jpg","14"
"022420","15:04:47","31","31","5.0.14.0","2","146","trial1","naming","0","0","0","0","light fixture","0","4685","1","White_Screen.jpg","15","117","Light_PostIsolated.jpg","15"
"022420","15:04:47","31","31","5.0.14.0","2","147","trial1","naming","0","0","0","0","light bulb","0","2835","1","White_Screen.jpg","12","73","LightBulb_White.jpg","12"
"022420","15:04:47","31","31","5.0.14.0","2","148","trial1","naming","0","0","0","0","raw chicken","0","5051","1","White_Screen.jpg","8","99","Chicken_Raw.jpg","8"
"022420","15:04:47","31","31","5.0.14.0","2","149","trial1","naming","0","0","0","0","head lamp","0","2986","1","White_Screen.jpg","13","90","FlashlightHeadBand.jpg","13"
"022420","15:04:47","31","31","5.0.14.0","2","150","trial1","naming","0","0","0","0","lettuce","0","2673","1","White_Screen.jpg","14","102","Lettuce_Romaine.jpg","14"
"022420","15:04:47","31","31","5.0.14.0","2","151","trial1","naming","0","0","0","0","wet floor sign","0","4613","1","White_Screen.jpg","14","188","Sign_Caution.jpg","14"
"022420","15:04:47","31","31","5.0.14.0","2","152","trial1","naming","0","0","0","0","ambulance","0","2537","1","White_Screen.jpg","13","65","Ambulance.jpg","13"
"022420","15:04:47","31","31","5.0.14.0","2","154","trial1","naming","0","0","0","0","hammer","0","4087","1","White_Screen.jpg","13","76","Mallet.jpg","13"
"022420","15:04:47","31","31","5.0.14.0","2","155","trial1","naming","0","0","0","0","thermos","0","3018","1","White_Screen.jpg","13","115","Thermos_Decorated.jpg","13"
"022420","15:04:47","31","31","5.0.14.0","2","156","trial1","naming","0","0","0","0","race track","0","3429","1","White_Screen.jpg","13","129","Toy_RaceTrack.jpg","13"
"022420","15:04:47","31","31","5.0.14.0","2","157","trial1","naming","0","0","0","0","traffic light sign","0","3769","1","White_Screen.jpg","14","45","sign_traffic.jpg","14"
"022420","15:04:47","31","31","5.0.14.0","2","158","trial1","naming","0","0","0","0","timer","0","2694","1","White_Screen.jpg","8","15","TimerKitchen.jpg","8"
"022420","15:04:47","31","31","5.0.14.0","2","159","trial1","naming","0","0","0","0","socks","0","2171","1","White_Screen.jpg","12","162","Socks_Winter.jpg","12"
"022420","15:04:47","31","31","5.0.14.0","2","160","trial1","naming","0","0","0","0","desk object","0","8262","1","White_Screen.jpg","12","105","MemoPaperSpike.jpg","12"
"022420","15:04:47","31","31","5.0.14.0","2","161","trial1","naming","0","0","0","0","bed","0","1732","1","White_Screen.jpg","13","157","Bed_ChildBirch.jpg","13"
"022420","15:04:47","31","31","5.0.14.0","2","162","trial1","naming","0","0","0","0","grate","0","2301","1","White_Screen.jpg","14","28","ManholeCover.jpg","14"
"022420","15:04:47","31","31","5.0.14.0","2","163","trial1","naming","0","0","0","0","child's toy","0","5186","1","White_Screen.jpg","12","47","Toy_Shapesorter.jpg","12"
"022420","15:04:47","31","31","5.0.14.0","2","164","trial1","naming","0","0","0","0","travel mug","0","3779","1","White_Screen.jpg","13","33","Mug_Travel.jpg","13"
"022420","15:04:47","31","31","5.0.14.0","2","165","trial1","naming","0","0","0","0","cantaloupe","0","3646","1","White_Screen.jpg","14","142","Cantaloupe.jpg","14"
"022420","15:04:47","31","31","5.0.14.0","2","166","trial1","naming","0","0","0","0","pumpkin","0","2979","1","White_Screen.jpg","14","167","Pumpkin.jpg","14"
"022420","15:04:47","31","31","5.0.14.0","2","167","trial1","naming","0","0","0","0","camera","0","3911","1","White_Screen.jpg","14","114","Camera_Digital.jpg","14"
"022420","15:04:47","31","31","5.0.14.0","2","168","trial1","naming","0","0","0","0","bulldog","0","2570","1","White_Screen.jpg","14","147","Dog_Bulldog.jpg","14"
"022420","15:04:47","31","31","5.0.14.0","2","169","trial1","naming","0","0","0","0","DJ thing","0","9909","1","White_Screen.jpg","8","93","DJMixer.jpg","8"
"022420","15:04:47","31","31","5.0.14.0","2","170","trial1","naming","0","0","0","0","slacks","0","2738","1","White_Screen.jpg","12","80","Pants.jpg","12"
"022420","15:04:47","31","31","5.0.14.0","2","171","trial1","naming","0","0","0","0","harmonica","0","2569","1","White_Screen.jpg","14","46","Harmonica.jpg","14"
"022420","15:04:47","31","31","5.0.14.0","2","172","trial1","naming","0","0","0","0","airplane","0","4837","1","White_Screen.jpg","14","182","Airplane_Fighter.jpg","14"
"022420","15:04:47","31","31","5.0.14.0","2","173","trial1","naming","0","0","0","0","keyring","0","2838","1","White_Screen.jpg","13","193","Keychain_Metal.jpg","13"
"022420","15:04:47","31","31","5.0.14.0","2","174","trial1","naming","0","0","0","0","baby doll","0","3005","1","White_Screen.jpg","8","132","Toy_Babydoll.jpg","8"
"022420","15:04:47","31","31","5.0.14.0","2","175","trial1","naming","0","0","0","0","dreidel","0","4039","1","White_Screen.jpg","12","8","Dreidel.jpg","12"
"022420","15:04:47","31","31","5.0.14.0","2","176","trial1","naming","0","0","0","0","sleeping bag","0","3524","1","White_Screen.jpg","13","187","InflatableSleepingBag.jpg","13"
"022420","15:04:47","31","31","5.0.14.0","2","177","trial1","naming","0","0","0","0","canteen","0","3163","1","White_Screen.jpg","8","49","Flask_Metal.jpg","8"
"022420","15:04:47","31","31","5.0.14.0","2","178","trial1","naming","0","0","0","0","potted plant","0","3037","1","White_Screen.jpg","13","137","Shrub_Cedar.jpg","13"
"022420","15:04:47","31","31","5.0.14.0","2","179","trial1","naming","0","0","0","0","winter boots","0","3455","1","White_Screen.jpg","14","143","Shoes_Snowboarding.jpg","14"
"022420","15:04:47","31","31","5.0.14.0","2","180","trial1","naming","0","0","0","0","can opener","0","5075","1","White_Screen.jpg","13","68","Carbiner_Ascender.jpg","13"
"022420","15:04:47","31","31","5.0.14.0","2","181","trial1","naming","0","0","0","0","lawn chair","0","3823","1","White_Screen.jpg","14","111","Chair_PlasticGreen.jpg","14"
"022420","15:04:47","31","31","5.0.14.0","2","182","trial1","naming","0","0","0","0","plastic container","0","6423","1","White_Screen.jpg","13","54","Container_RedPlastic.jpg","13"
"022420","15:04:47","31","31","5.0.14.0","2","183","trial1","naming","0","0","0","0","table of elements","0","5340","1","White_Screen.jpg","13","178","PeriodicTable.jpg","13"
"022420","15:04:47","31","31","5.0.14.0","2","184","trial1","naming","0","0","0","0","diamonds","0","7149","1","White_Screen.jpg","10","6","Rock_Agate.jpg","10"
"022420","15:04:47","31","31","5.0.14.0","2","185","trial1","naming","0","0","0","0","key holder","0","4690","1","White_Screen.jpg","13","36","KeyHook_Empty.jpg","13"
"022420","15:04:47","31","31","5.0.14.0","2","186","trial1","naming","0","0","0","0","dinner","0","3284","1","White_Screen.jpg","14","88","Chicken_Dinner.jpg","14"
"022420","15:04:47","31","31","5.0.14.0","2","187","trial1","naming","0","0","0","0","coliseum","0","2691","1","White_Screen.jpg","8","181","Colosseum.jpg","8"
"022420","15:04:47","31","31","5.0.14.0","2","188","trial1","naming","0","0","0","0","flower","0","2255","1","White_Screen.jpg","8","144","Flower_Crane.jpg","8"
"022420","15:04:47","31","31","5.0.14.0","2","189","trial1","naming","0","0","0","0","bridge","0","2267","1","White_Screen.jpg","14","185","BridgeWooden.jpg","14"
"022420","15:04:47","31","31","5.0.14.0","2","190","trial1","naming","0","0","0","0","eiffel tower","0","2758","1","White_Screen.jpg","12","120","TowerEiffel.jpg","12"
"022420","15:04:47","31","31","5.0.14.0","2","191","trial1","naming","0","0","0","0","conference table","0","3460","1","White_Screen.jpg","14","27","Table_Conference.jpg","14"
"022420","15:04:47","31","31","5.0.14.0","2","192","trial1","naming","0","0","0","0","goat","0","1920","1","White_Screen.jpg","13","26","RamAnimal.jpg","13"
"022420","15:04:47","31","31","5.0.14.0","2","193","trial1","naming","0","0","0","0","headphones","0","3334","1","White_Screen.jpg","8","150","Headphones.jpg","8"
"022420","15:04:47","31","31","5.0.14.0","2","194","trial1","naming","0","0","0","0","heater","0","5444","1","White_Screen.jpg","13","69","Fireplace_Outdoor.jpg","13"
"022420","15:04:47","31","31","5.0.14.0","2","195","trial1","naming","0","0","0","0","switch board","0","3933","1","White_Screen.jpg","14","4","SoundMixer_White.jpg","14"
"022420","15:04:47","31","31","5.0.14.0","2","196","trial1","naming","0","0","0","0","hot sauce","0","2686","1","White_Screen.jpg","8","110","Jar_Strawberry.jpg","8"
"022420","15:04:47","31","31","5.0.14.0","2","197","trial1","naming","0","0","0","0","book of matches","0","4116","1","White_Screen.jpg","10","86","MatchBook.jpg","10"
"022420","15:04:47","31","31","5.0.14.0","2","198","trial1","naming","0","0","0","0","conch","0","4234","1","White_Screen.jpg","8","31","Seashell_RoseMurex.jpg","8"
"022420","15:04:47","31","31","5.0.14.0","2","199","trial1","naming","0","0","0","0","perfume","0","2610","1","White_Screen.jpg","8","155","Cologne.jpg","8"
"022420","15:04:47","31","31","5.0.14.0","2","200","trial1","naming","0","0","0","0","ladle","0","2457","1","White_Screen.jpg","13","159","Ladle.jpg","13"
"022420","15:04:47","31","31","5.0.14.0","2","201","trial1","naming","0","0","0","0","mask","0","2394","1","White_Screen.jpg","14","173","Mask_Masquerade.jpg","14"
"022420","15:04:47","31","31","5.0.14.0","2","202","trial1","naming","0","0","0","0","snail shell","0","3789","1","White_Screen.jpg","14","2","Fossil.jpg","14"
"022420","15:04:47","31","31","5.0.14.0","2","203","trial1","naming","0","0","0","0","switch board","0","4129","1","White_Screen.jpg","13","62","ControlPanel.jpg","13"
"022420","15:04:47","31","31","5.0.14.0","3","1","demographics_block","gender","0","0","0","0","male","1","7360","0","0","0","0","0","0"
"022420","15:04:47","31","31","5.0.14.0","3","1","demographics_block","age","0","0","0","0","29","1","7360","0","0","0","0","0","0"
"022420","15:04:47","31","31","5.0.14.0","3","1","demographics_block","education","0","0","0","0","18","1","7360","0","0","0","0","0","0"
"022420","15:04:47","31","31","5.0.14.0","3","2","demographics_block","left_right_handed","0","0","0","0","Right","1","5920","0","0","0","0","0","0"
"022420","15:04:47","31","31","5.0.14.0","3","2","demographics_block","raceoption1","0","0","0","0","","1","5920","0","0","0","0","0","0"
"022420","15:04:47","31","31","5.0.14.0","3","2","demographics_block","raceoption2","0","0","0","0","","1","5920","0","0","0","0","0","0"
"022420","15:04:47","31","31","5.0.14.0","3","2","demographics_block","raceoption3","0","0","0","0","","1","5920","0","0","0","0","0","0"
"022420","15:04:47","31","31","5.0.14.0","3","2","demographics_block","raceoption4","0","0","0","0","","1","5920","0","0","0","0","0","0"
"022420","15:04:47","31","31","5.0.14.0","3","2","demographics_block","raceoption5","0","0","0","0","","1","5920","0","0","0","0","0","0"
"022420","15:04:47","31","31","5.0.14.0","3","2","demographics_block","raceoption6","0","0","0","0","","1","5920","0","0","0","0","0","0"
"022420","15:04:47","31","31","5.0.14.0","3","2","demographics_block","raceoption7","0","0","0","0","6","1","5920","0","0","0","0","0","0"
"022420","15:04:47","31","31","5.0.14.0","3","2","demographics_block","raceoption8","0","0","0","0","","1","5920","0","0","0","0","0","0"
"022420","15:04:47","31","31","5.0.14.0","3","2","demographics_block","raceoption9","0","0","0","0","","1","5920","0","0","0","0","0","0"
"022420","15:04:47","31","31","5.0.14.0","3","2","demographics_block","raceother","0","0","0","0","","1","5920","0","0","0","0","0","0"
"022420","15:04:47","31","31","5.0.14.0","3","2","demographics_block","raceother","0","0","0","0","","1","5920","0","0","0","0","0","0"
"022420","15:04:47","31","31","5.0.14.0","3","2","demographics_block","english_language","0","0","0","0","Yes","1","5920","0","0","0","0","0","0"
"022420","15:04:47","31","31","5.0.14.0","3","2","demographics_block","english_languageother","0","0","0","0","","1","5920","0","0","0","0","0","0"
"022420","15:04:47","31","31","5.0.14.0","3","3","demographics_block","eyesight","0","0","0","0","Yes","1","3188","0","0","0","0","0","0"
"022420","15:04:47","31","31","5.0.14.0","3","3","demographics_block","colorblind","0","0","0","0","No","1","3188","0","0","0","0","0","0"
"022420","15:04:47","31","31","5.0.14.0","4","1","worker_id_block","worker_id_textbox","0","0","0","0","A3GAQNTZ1V1VO","1","2848","0","0","0","0","0","0"
"022420","15:12:38","36","36","5.0.14.0","2","1","trial1","naming","0","0","0","0","juiceEnter Name","0","5967","1","White_Screen.jpg","104","186","JuiceBox.jpg","104"
"022420","15:12:38","36","36","5.0.14.0","2","2","trial1","naming","0","0","0","0","planeEnter Name","0","3132","1","White_Screen.jpg","26","133","Airplane_Commercial.jpg","26"
"022420","15:12:38","36","36","5.0.14.0","2","3","trial1","naming","0","0","0","0","scooterEnter Name","0","4363","1","White_Screen.jpg","24","169","Scooter.jpg","24"
"022420","15:12:38","36","36","5.0.14.0","2","4","trial1","naming","0","0","0","0","bikeEnter Name","0","2208","1","White_Screen.jpg","23","91","Bicycle_Adult.jpg","23"
"022420","15:12:38","36","36","5.0.14.0","2","5","trial1","naming","0","0","0","0","tinEnter Name","0","3477","1","White_Screen.jpg","24","64","Canister_Tea.jpg","24"
"022420","15:12:38","36","36","5.0.14.0","2","6","trial1","naming","0","0","0","0","scrubberEnter Name","0","4091","1","White_Screen.jpg","23","104","Brush_Nail.jpg","23"
"022420","15:12:38","36","36","5.0.14.0","2","7","trial1","naming","0","0","0","0","enEnter Name","0","4634","1","White_Screen.jpg","23","168","JumpingJack.jpg","23"
"022420","15:12:38","36","36","5.0.14.0","2","8","trial1","naming","0","0","0","0","Enter Name","0","132","1","White_Screen.jpg","25","14","Case_WoodenOrnate.jpg","25"
"022420","15:12:38","36","36","5.0.14.0","2","9","trial1","naming","0","0","0","0","Enter Name","0","121","1","White_Screen.jpg","27","99","Chicken_Raw.jpg","27"
"022420","15:12:38","36","36","5.0.14.0","2","10","trial1","naming","0","0","0","0","waterEnter Name","0","3972","1","White_Screen.jpg","21","82","Humidifier.jpg","21"
"022420","15:12:38","36","36","5.0.14.0","2","11","trial1","naming","0","0","0","0","licoriceEnter Name","0","3961","1","White_Screen.jpg","23","18","Licorice.jpg","23"
"022420","15:12:38","36","36","5.0.14.0","2","12","trial1","naming","0","0","0","0","bootsEnter Name","0","2202","1","White_Screen.jpg","23","195","Boots_KneeHigh.jpg","23"
"022420","15:12:38","36","36","5.0.14.0","2","13","trial1","naming","0","0","0","0","lawn mowerEnter Name","0","4861","1","White_Screen.jpg","23","41","LawnMower.jpg","23"
"022420","15:12:38","36","36","5.0.14.0","2","14","trial1","naming","0","0","0","0","flowerEnter Name","0","2603","1","White_Screen.jpg","25","144","Flower_Crane.jpg","25"
"022420","15:12:38","36","36","5.0.14.0","2","15","trial1","naming","0","0","0","0","bustEnter Name","0","3621","1","White_Screen.jpg","22","78","Statue_Head.jpg","22"
"022420","15:12:38","36","36","5.0.14.0","2","16","trial1","naming","0","0","0","0","cannonEnter Name","0","2744","1","White_Screen.jpg","23","199","Cannon.jpg","23"
"022420","15:12:38","36","36","5.0.14.0","2","17","trial1","naming","0","0","0","0","mixerEnter Name","0","2937","1","White_Screen.jpg","20","32","Mixer_Cement.jpg","20"
"022420","15:12:38","36","36","5.0.14.0","2","18","trial1","naming","0","0","0","0","handEnter Name","0","2495","1","White_Screen.jpg","24","50","Hand.jpg","24"
"022420","15:12:38","36","36","5.0.14.0","2","19","trial1","naming","0","0","0","0","slinkyEnter Name","0","2608","1","White_Screen.jpg","22","96","Toy_Slinky.jpg","22"
"022420","15:12:38","36","36","5.0.14.0","2","20","trial1","naming","0","0","0","0","hammerEnter Name","0","4219","1","White_Screen.jpg","22","76","Mallet.jpg","22"
"022420","15:12:38","36","36","5.0.14.0","2","21","trial1","naming","0","0","0","0","bulbEnter Name","0","3096","1","White_Screen.jpg","21","73","LightBulb_White.jpg","21"
"022420","15:12:38","36","36","5.0.14.0","2","22","trial1","naming","0","0","0","0","wireEnter Name","0","2149","1","White_Screen.jpg","22","100","Wire_Soldering.jpg","22"
"022420","15:12:38","36","36","5.0.14.0","2","23","trial1","naming","0","0","0","0","brEnter Name","0","2512","1","White_Screen.jpg","24","72","Bird_Falcon.jpg","24"
"022420","15:12:38","36","36","5.0.14.0","2","24","trial1","naming","0","0","0","0","speakerEnter Name","0","4962","1","White_Screen.jpg","21","92","Hockey_Puck.jpg","21"
"022420","15:12:38","36","36","5.0.14.0","2","25","trial1","naming","0","0","0","0","teeth guardEnter Name","0","10000","1","White_Screen.jpg","23","171","TeethMould.jpg","23"
"022420","15:12:38","36","36","5.0.14.0","2","26","trial1","naming","0","0","0","0","Enter Name","0","185","1","White_Screen.jpg","22","146","Tape_Scotch.jpg","22"
"022420","15:12:38","36","36","5.0.14.0","2","27","trial1","naming","0","0","0","0","leveEnter Name","0","7127","1","White_Screen.jpg","21","55","Ruler_Digital.jpg","21"
"022420","15:12:38","36","36","5.0.14.0","2","28","trial1","naming","0","0","0","0","blocksEnter Name","0","3157","1","White_Screen.jpg","24","35","Toy_BlocksLetter.jpg","24"
"022420","15:12:38","36","36","5.0.14.0","2","29","trial1","naming","0","0","0","0","toyEnter Name","0","3475","1","White_Screen.jpg","23","109","Toy_Helicopter.jpg","23"
"022420","15:12:38","36","36","5.0.14.0","2","30","trial1","naming","0","0","0","0","weightsEnter Name","0","3594","1","White_Screen.jpg","20","51","MassageRoller.jpg","20"
"022420","15:12:38","36","36","5.0.14.0","2","31","trial1","naming","0","0","0","0","carrotsEnter Name","0","2763","1","White_Screen.jpg","20","95","Carrot.jpg","20"
"022420","15:12:38","36","36","5.0.14.0","2","32","trial1","naming","0","0","0","0","turntable miEnter Name","0","8656","1","White_Screen.jpg","18","93","DJMixer.jpg","18"
"022420","15:12:38","36","36","5.0.14.0","2","33","trial1","naming","0","0","0","0","signEnter Name","0","2518","1","White_Screen.jpg","26","7","Sign_HumpBridgeAhead.jpg","26"
"022420","15:12:38","36","36","5.0.14.0","2","34","trial1","naming","0","0","0","0","ropeEnter Name","0","2227","1","White_Screen.jpg","21","180","Noose.jpg","21"
"022420","15:12:38","36","36","5.0.14.0","2","35","trial1","naming","0","0","0","0","laternEnter Name","0","3417","1","White_Screen.jpg","20","117","Light_PostIsolated.jpg","20"
"022420","15:12:38","36","36","5.0.14.0","2","36","trial1","naming","0","0","0","0","tapeEnter Name","0","2282","1","White_Screen.jpg","22","183","Tape_Clear.jpg","22"
"022420","15:12:38","36","36","5.0.14.0","2","37","trial1","naming","0","0","0","0","screwEnter Name","0","2795","1","White_Screen.jpg","17","48","Bolt_WithNut.jpg","17"
"022420","15:12:38","36","36","5.0.14.0","2","38","trial1","naming","0","0","0","0","pugEnter Name","0","3373","1","White_Screen.jpg","21","147","Dog_Bulldog.jpg","21"
"022420","15:12:38","36","36","5.0.14.0","2","39","trial1","naming","0","0","0","0","speakerEnter Name","0","2575","1","White_Screen.jpg","20","176","Speakers_Theatre.jpg","20"
"022420","15:12:38","36","36","5.0.14.0","2","40","trial1","naming","0","0","0","0","ligtEnter Name","0","2966","1","White_Screen.jpg","19","13","LampPost_WhiteOrnate.jpg","19"
"022420","15:12:38","36","36","5.0.14.0","2","41","trial1","naming","0","0","0","0","grateEnter Name","0","2903","1","White_Screen.jpg","19","28","ManholeCover.jpg","19"
"022420","15:12:38","36","36","5.0.14.0","2","42","trial1","naming","0","0","0","0","strainerEnter Name","0","6121","1","White_Screen.jpg","20","116","Sieve_SideView.jpg","20"
"022420","15:12:38","36","36","5.0.14.0","2","43","trial1","naming","0","0","0","0","instrumentEnter Name","0","6290","1","White_Screen.jpg","20","119","Cabasa.jpg","20"
"022420","15:12:38","36","36","5.0.14.0","2","44","trial1","naming","0","0","0","0","hangerEnter Name","0","3106","1","White_Screen.jpg","18","36","KeyHook_Empty.jpg","18"
"022420","15:12:38","36","36","5.0.14.0","2","45","trial1","naming","0","0","0","0","chairEnter Name","0","5041","1","White_Screen.jpg","17","111","Chair_PlasticGreen.jpg","17"
"022420","15:12:38","36","36","5.0.14.0","2","46","trial1","naming","0","0","0","0","harmonicaEnter Name","0","4156","1","White_Screen.jpg","19","46","Harmonica.jpg","19"
"022420","15:12:38","36","36","5.0.14.0","2","47","trial1","naming","0","0","0","0","forget the nEnter Name","0","7824","1","White_Screen.jpg","20","165","MetalDetector.jpg","20"
"022420","15:12:38","36","36","5.0.14.0","2","48","trial1","naming","0","0","0","0","breadEnter Name","0","2411","1","White_Screen.jpg","26","39","Basket_Bread.jpg","26"
"022420","15:12:38","36","36","5.0.14.0","2","49","trial1","naming","0","0","0","0","kiteEnter Name","0","2169","1","White_Screen.jpg","20","66","Kite_Rainbow.jpg","20"
"022420","15:12:38","36","36","5.0.14.0","2","50","trial1","naming","0","0","0","0","treeEnter Name","0","2761","1","White_Screen.jpg","20","137","Shrub_Cedar.jpg","20"
"022420","15:12:38","36","36","5.0.14.0","2","52","trial1","naming","0","0","0","0","lightEnter Name","0","4380","1","White_Screen.jpg","19","56","Heater_Outdoor.jpg","19"
"022420","15:12:38","36","36","5.0.14.0","2","53","trial1","naming","0","0","0","0","pineappleEnter Name","0","3752","1","White_Screen.jpg","20","84","Pineapple.jpg","20"
"022420","15:12:38","36","36","5.0.14.0","2","54","trial1","naming","0","0","0","0","fireplsceEnter Name","0","6545","1","White_Screen.jpg","21","69","Fireplace_Outdoor.jpg","21"
"022420","15:12:38","36","36","5.0.14.0","2","55","trial1","naming","0","0","0","0","knifeEnter Name","0","2518","1","White_Screen.jpg","19","81","Knife_Kitchen.jpg","19"
"022420","15:12:38","36","36","5.0.14.0","2","56","trial1","naming","0","0","0","0","lettuceEnter Name","0","2896","1","White_Screen.jpg","21","102","Lettuce_Romaine.jpg","21"
"022420","15:12:38","36","36","5.0.14.0","2","57","trial1","naming","0","0","0","0","chainEnter Name","0","2791","1","White_Screen.jpg","20","193","Keychain_Metal.jpg","20"
"022420","15:12:38","36","36","5.0.14.0","2","58","trial1","naming","0","0","0","0","coolerEnter Name","0","2759","1","White_Screen.jpg","20","9","Cooler.jpg","20"
"022420","15:12:38","36","36","5.0.14.0","2","59","trial1","naming","0","0","0","0","whaleEnter Name","0","2619","1","White_Screen.jpg","23","160","Toy_Shark.jpg","23"
"022420","15:12:38","36","36","5.0.14.0","2","60","trial1","naming","0","0","0","0","heaphonesEnter Name","0","4305","1","White_Screen.jpg","21","150","Headphones.jpg","21"
"022420","15:12:38","36","36","5.0.14.0","2","61","trial1","naming","0","0","0","0","mixing boarEnter Name","0","3900","1","White_Screen.jpg","19","4","SoundMixer_White.jpg","19"
"022420","15:12:38","36","36","5.0.14.0","2","62","trial1","naming","0","0","0","0","waterfountaiEnter Name","0","5976","1","White_Screen.jpg","23","127","WaterFountain.jpg","23"
"022420","15:12:38","36","36","5.0.14.0","2","63","trial1","naming","0","0","0","0","cameraEnter Name","0","3401","1","White_Screen.jpg","21","123","Camera_Antique.jpg","21"
"022420","15:12:38","36","36","5.0.14.0","2","64","trial1","naming","0","0","0","0","bridgeEnter Name","0","3000","1","White_Screen.jpg","25","185","BridgeWooden.jpg","25"
"022420","15:12:38","36","36","5.0.14.0","2","65","trial1","naming","0","0","0","0","glovesEnter Name","0","2879","1","White_Screen.jpg","21","63","Gloves_Winter.jpg","21"
"022420","15:12:38","36","36","5.0.14.0","2","66","trial1","naming","0","0","0","0","screwdriverEnter Name","0","3819","1","White_Screen.jpg","21","196","ScrewDriver.jpg","21"
"022420","15:12:38","36","36","5.0.14.0","2","67","trial1","naming","0","0","0","0","maskEnter Name","0","2392","1","White_Screen.jpg","18","57","Mask_Viking.jpg","18"
"022420","15:12:38","36","36","5.0.14.0","2","68","trial1","naming","0","0","0","0","cassetteEnter Name","0","3297","1","White_Screen.jpg","18","152","Cassette_Audio.jpg","18"
"022420","15:12:38","36","36","5.0.14.0","2","69","trial1","naming","0","0","0","0","labelEnter Name","0","7100","1","White_Screen.jpg","18","11","Keychain_Leather.jpg","18"
"022420","15:12:38","36","36","5.0.14.0","2","70","trial1","naming","0","0","0","0","hoopEnter Name","0","2677","1","White_Screen.jpg","22","85","Hulahoop.jpg","22"
"022420","15:12:38","36","36","5.0.14.0","2","71","trial1","naming","0","0","0","0","dollEnter Name","0","2359","1","White_Screen.jpg","19","132","Toy_Babydoll.jpg","19"
"022420","15:12:38","36","36","5.0.14.0","2","72","trial1","naming","0","0","0","0","salsaEnter Name","0","3754","1","White_Screen.jpg","21","110","Jar_Strawberry.jpg","21"
"022420","15:12:38","36","36","5.0.14.0","2","73","trial1","naming","0","0","0","0","ramEnter Name","0","2604","1","White_Screen.jpg","20","26","RamAnimal.jpg","20"
"022420","15:12:38","36","36","5.0.14.0","2","74","trial1","naming","0","0","0","0","candleEnter Name","0","2498","1","White_Screen.jpg","22","70","Candle_ChristmasDecor.jpg","22"
"022420","15:12:38","36","36","5.0.14.0","2","75","trial1","naming","0","0","0","0","dreidlEnter Name","0","4906","1","White_Screen.jpg","20","8","Dreidel.jpg","20"
"022420","15:12:38","36","36","5.0.14.0","2","76","trial1","naming","0","0","0","0","oysterEnter Name","0","3828","1","White_Screen.jpg","23","108","Oyster.jpg","23"
"022420","15:12:38","36","36","5.0.14.0","2","77","trial1","naming","0","0","0","0","secirityEnter Name","0","5161","1","White_Screen.jpg","22","16","ScannerShoplifting.jpg","22"
"022420","15:12:38","36","36","5.0.14.0","2","78","trial1","naming","0","0","0","0","pumpkinEnter Name","0","4445","1","White_Screen.jpg","20","71","Squash_Pumpkin.jpg","20"
"022420","15:12:38","36","36","5.0.14.0","2","79","trial1","naming","0","0","0","0","perfumeEnter Name","0","3251","1","White_Screen.jpg","20","155","Cologne.jpg","20"
"022420","15:12:38","36","36","5.0.14.0","2","80","trial1","naming","0","0","0","0","combEnter Name","0","2387","1","White_Screen.jpg","22","98","Comb_1.jpg","22"
"022420","15:12:38","36","36","5.0.14.0","2","81","trial1","naming","0","0","0","0","romeEnter Name","0","4385","1","White_Screen.jpg","21","181","Colosseum.jpg","21"
"022420","15:12:38","36","36","5.0.14.0","2","82","trial1","naming","0","0","0","0","busEnter Name","0","2640","1","White_Screen.jpg","18","122","Bus_DoubleDecker.jpg","18"
"022420","15:12:38","36","36","5.0.14.0","2","83","trial1","naming","0","0","0","0","hatEnter Name","0","1887","1","White_Screen.jpg","19","87","Hat_Cowboy.jpg","19"
"022420","15:12:38","36","36","5.0.14.0","2","84","trial1","naming","0","0","0","0","guitar cseEnter Name","0","4803","1","White_Screen.jpg","21","175","Guitarcase.jpg","21"
"022420","15:12:38","36","36","5.0.14.0","2","85","trial1","naming","0","0","0","0","brushEnter Name","0","3487","1","White_Screen.jpg","20","25","Brush_Shoe.jpg","20"
"022420","15:12:38","36","36","5.0.14.0","2","86","trial1","naming","0","0","0","0","fruitEnter Name","0","5731","1","White_Screen.jpg","20","42","Lychee.jpg","20"
"022420","15:12:38","36","36","5.0.14.0","2","87","trial1","naming","0","0","0","0","bongoEnter Name","0","3347","1","White_Screen.jpg","21","94","Drum_Conga.jpg","21"
"022420","15:12:38","36","36","5.0.14.0","2","88","trial1","naming","0","0","0","0","cameraEnter Name","0","2590","1","White_Screen.jpg","20","114","Camera_Digital.jpg","20"
"022420","15:12:38","36","36","5.0.14.0","2","89","trial1","naming","0","0","0","0","dartboardEnter Name","0","4483","1","White_Screen.jpg","20","118","DartBoard.jpg","20"
"022420","15:12:38","36","36","5.0.14.0","2","90","trial1","naming","0","0","0","0","furnitureEnter Name","0","7229","1","White_Screen.jpg","20","20","Altar.jpg","20"
"022420","15:12:38","36","36","5.0.14.0","2","91","trial1","naming","0","0","0","0","signEnter Name","0","2219","1","White_Screen.jpg","25","45","sign_traffic.jpg","25"
"022420","15:12:38","36","36","5.0.14.0","2","92","trial1","naming","0","0","0","0","lemonEnter Name","0","2544","1","White_Screen.jpg","20","191","Lemon.jpg","20"
"022420","15:12:38","36","36","5.0.14.0","2","93","trial1","naming","0","0","0","0","kangarooEnter Name","0","3567","1","White_Screen.jpg","21","44","Kangaroo.jpg","21"
"022420","15:12:38","36","36","5.0.14.0","2","94","trial1","naming","0","0","0","0","woodwindEnter Name","0","6238","1","White_Screen.jpg","22","149","RecorderInstrument.jpg","22"
"022420","15:12:38","36","36","5.0.14.0","2","95","trial1","naming","0","0","0","0","caseEnter Name","0","2622","1","White_Screen.jpg","21","54","Container_RedPlastic.jpg","21"
"022420","15:12:38","36","36","5.0.14.0","2","96","trial1","naming","0","0","0","0","toyEnter Name","0","2553","1","White_Screen.jpg","22","97","Toy_Octopus.jpg","22"
"022420","15:12:38","36","36","5.0.14.0","2","97","trial1","naming","0","0","0","0","truckEnter Name","0","3116","1","White_Screen.jpg","25","17","PickupTruck.jpg","25"
"022420","15:12:38","36","36","5.0.14.0","2","98","trial1","naming","0","0","0","0","sneakerEnter Name","0","2541","1","White_Screen.jpg","18","197","Shoe_Sneaker.jpg","18"
"022420","15:12:38","36","36","5.0.14.0","2","99","trial1","naming","0","0","0","0","ambulanceEnter Name","0","3916","1","White_Screen.jpg","21","65","Ambulance.jpg","21"
"022420","15:12:38","36","36","5.0.14.0","2","100","trial1","naming","0","0","0","0","flaskEnter Name","0","3503","1","White_Screen.jpg","19","49","Flask_Metal.jpg","19"
"022420","15:12:38","36","36","5.0.14.0","2","101","trial1","naming","0","0","0","0","melonEnter Name","0","3157","1","White_Screen.jpg","20","142","Cantaloupe.jpg","20"
"022420","15:12:38","36","36","5.0.14.0","2","103","trial1","naming","0","0","0","0","forkEnter Name","0","2091","1","White_Screen.jpg","18","37","Fork_Regular.jpg","18"
"022420","15:12:38","36","36","5.0.14.0","2","104","trial1","naming","0","0","0","0","hatEnter Name","0","1903","1","White_Screen.jpg","19","190","Hat_Tuque.jpg","19"
"022420","15:12:38","36","36","5.0.14.0","2","105","trial1","naming","0","0","0","0","cerealEnter Name","0","4358","1","White_Screen.jpg","20","139","Bowl_Cereal.jpg","20"
"022420","15:12:38","36","36","5.0.14.0","2","106","trial1","naming","0","0","0","0","blocksEnter Name","0","2728","1","White_Screen.jpg","18","145","Toy_BlocksPlastic Colourful.jpg","18"
"022420","15:12:38","36","36","5.0.14.0","2","107","trial1","naming","0","0","0","0","suaceEnter Name","0","2870","1","White_Screen.jpg","24","61","TomatoSauce.jpg","24"
"022420","15:12:38","36","36","5.0.14.0","2","108","trial1","naming","0","0","0","0","socksEnter Name","0","2298","1","White_Screen.jpg","21","162","Socks_Winter.jpg","21"
"022420","15:12:38","36","36","5.0.14.0","2","109","trial1","naming","0","0","0","0","giftEnter Name","0","2470","1","White_Screen.jpg","19","79","Box_GiftTopView.jpg","19"
"022420","15:12:38","36","36","5.0.14.0","2","110","trial1","naming","0","0","0","0","pillerEnter Name","0","3021","1","White_Screen.jpg","17","198","ColumnMarble.jpg","17"
"022420","15:12:38","36","36","5.0.14.0","2","111","trial1","naming","0","0","0","0","teomosEnter Name","0","3495","1","White_Screen.jpg","21","115","Thermos_Decorated.jpg","21"
"022420","15:12:38","36","36","5.0.14.0","2","112","trial1","naming","0","0","0","0","bottleEnter Name","0","2644","1","White_Screen.jpg","27","30","Bottle_Plastic.jpg","27"
"022420","15:12:38","36","36","5.0.14.0","2","113","trial1","naming","0","0","0","0","timerEnter Name","0","2241","1","White_Screen.jpg","19","15","TimerKitchen.jpg","19"
"022420","15:12:38","36","36","5.0.14.0","2","114","trial1","naming","0","0","0","0","catherEnter Name","0","5155","1","White_Screen.jpg","20","43","NetButterfly.jpg","20"
"022420","15:12:38","36","36","5.0.14.0","2","115","trial1","naming","0","0","0","0","fortune cooiEnter Name","0","4696","1","White_Screen.jpg","18","107","FortuneCookie.jpg","18"
"022420","15:12:38","36","36","5.0.14.0","2","116","trial1","naming","0","0","0","0","toolEnter Name","0","3582","1","White_Screen.jpg","19","68","Carbiner_Ascender.jpg","19"
"022420","15:12:38","36","36","5.0.14.0","2","117","trial1","naming","0","0","0","0","desk setEnter Name","0","4898","1","White_Screen.jpg","19","27","Table_Conference.jpg","19"
"022420","15:12:38","36","36","5.0.14.0","2","118","trial1","naming","0","0","0","0","leaf blowerEnter Name","0","4849","1","White_Screen.jpg","19","12","LeafBlower.jpg","19"
"022420","15:12:38","36","36","5.0.14.0","2","119","trial1","naming","0","0","0","0","hatEnter Name","0","1932","1","White_Screen.jpg","19","59","Hat_Hard.jpg","19"
"022420","15:12:38","36","36","5.0.14.0","2","120","trial1","naming","0","0","0","0","ladleEnter Name","0","4756","1","White_Screen.jpg","19","159","Ladle.jpg","19"
"022420","15:12:38","36","36","5.0.14.0","2","121","trial1","naming","0","0","0","0","helmutEnter Name","0","2842","1","White_Screen.jpg","19","125","Helmet_Football.jpg","19"
"022420","15:12:38","36","36","5.0.14.0","2","122","trial1","naming","0","0","0","0","fishEnter Name","0","3238","1","White_Screen.jpg","20","170","Brooch_Fish.jpg","20"
"022420","15:12:38","36","36","5.0.14.0","2","123","trial1","naming","0","0","0","0","signEnter Name","0","2797","1","White_Screen.jpg","22","188","Sign_Caution.jpg","22"
"022420","15:12:38","36","36","5.0.14.0","2","124","trial1","naming","0","0","0","0","maksEnter Name","0","2767","1","White_Screen.jpg","18","173","Mask_Masquerade.jpg","18"
"022420","15:12:38","36","36","5.0.14.0","2","125","trial1","naming","0","0","0","0","sifterEnter Name","0","3515","1","White_Screen.jpg","20","38","ProcessorFood_Old.jpg","20"
"022420","15:12:38","36","36","5.0.14.0","2","126","trial1","naming","0","0","0","0","bowlEnter Name","0","2353","1","White_Screen.jpg","20","67","Bowl_Glass.jpg","20"
"022420","15:12:38","36","36","5.0.14.0","2","127","trial1","naming","0","0","0","0","plungerEnter Name","0","3657","1","White_Screen.jpg","20","194","Plunger.jpg","20"
"022420","15:12:38","36","36","5.0.14.0","2","128","trial1","naming","0","0","0","0","lightEnter Name","0","2568","1","White_Screen.jpg","19","90","FlashlightHeadBand.jpg","19"
"022420","15:12:38","36","36","5.0.14.0","2","129","trial1","naming","0","0","0","0","boomobxEnter Name","0","3584","1","White_Screen.jpg","20","158","Boombox.jpg","20"
"022420","15:12:38","36","36","5.0.14.0","2","130","trial1","naming","0","0","0","0","warmerEnter Name","0","4204","1","White_Screen.jpg","20","21","Grill_Electric.jpg","20"
"022420","15:12:38","36","36","5.0.14.0","2","131","trial1","naming","0","0","0","0","breadEnter Name","0","2286","1","White_Screen.jpg","28","138","Bread_Carrot.jpg","28"
"022420","15:12:38","36","36","5.0.14.0","2","132","trial1","naming","0","0","0","0","seatEnter Name","0","3390","1","White_Screen.jpg","20","60","Stool_Foot.jpg","20"
"022420","15:12:38","36","36","5.0.14.0","2","133","trial1","naming","0","0","0","0","cupEnter Name","0","2545","1","White_Screen.jpg","21","34","Cup_Styrofoam.jpg","21"
"022420","15:12:38","36","36","5.0.14.0","2","134","trial1","naming","0","0","0","0","gearsEnter Name","0","3143","1","White_Screen.jpg","19","172","Clock_Interior.jpg","19"
"022420","15:12:38","36","36","5.0.14.0","2","135","trial1","naming","0","0","0","0","dollEnter Name","0","2516","1","White_Screen.jpg","17","40","Toy_DollHomeMade.jpg","17"
"022420","15:12:38","36","36","5.0.14.0","2","136","trial1","naming","0","0","0","0","wheelbarroEnter Name","0","4563","1","White_Screen.jpg","22","148","Wheelbarrow_Green.jpg","22"
"022420","15:12:38","36","36","5.0.14.0","2","137","trial1","naming","0","0","0","0","pumpkinEnter Name","0","4411","1","White_Screen.jpg","20","167","Pumpkin.jpg","20"
"022420","15:12:38","36","36","5.0.14.0","2","138","trial1","naming","0","0","0","0","horseEnter Name","0","4823","1","White_Screen.jpg","17","53","Toy_RockingHorseBlack.jpg","17"
"022420","15:12:38","36","36","5.0.14.0","2","139","trial1","naming","0","0","0","0","ventEnter Name","0","2651","1","White_Screen.jpg","19","103","AirVent.jpg","19"
"022420","15:12:38","36","36","5.0.14.0","2","140","trial1","naming","0","0","0","0","storageEnter Name","0","2594","1","White_Screen.jpg","19","19","ElectricSwitchboard.jpg","19"
"022420","15:12:38","36","36","5.0.14.0","2","141","trial1","naming","0","0","0","0","dolphinEnter Name","0","3668","1","White_Screen.jpg","21","163","Dolphine.jpg","21"
"022420","15:12:38","36","36","5.0.14.0","2","142","trial1","naming","0","0","0","0","boxEnter Name","0","4305","1","White_Screen.jpg","18","62","ControlPanel.jpg","18"
"022420","15:12:38","36","36","5.0.14.0","2","143","trial1","naming","0","0","0","0","mailerEnter Name","0","2757","1","White_Screen.jpg","19","151","Envelope_Manila.jpg","19"
"022420","15:12:38","36","36","5.0.14.0","2","144","trial1","naming","0","0","0","0","carEnter Name","0","1476","1","White_Screen.jpg","27","179","Car_Sedan.jpg","27"
"022420","15:12:38","36","36","5.0.14.0","2","145","trial1","naming","0","0","0","0","headbandEnter Name","0","5097","1","White_Screen.jpg","22","24","HairBand.jpg","22"
"022420","15:12:38","36","36","5.0.14.0","2","146","trial1","naming","0","0","0","0","pantsEnter Name","0","2450","1","White_Screen.jpg","19","80","Pants.jpg","19"
"022420","15:12:38","36","36","5.0.14.0","2","147","trial1","naming","0","0","0","0","keysEnter Name","0","5423","1","White_Screen.jpg","20","153","KeyHook_Occupied.jpg","20"
"022420","15:12:38","36","36","5.0.14.0","2","148","trial1","naming","0","0","0","0","instrumentEnter Name","0","7416","1","White_Screen.jpg","21","83","Balalaika.jpg","21"
"022420","15:12:38","36","36","5.0.14.0","2","149","trial1","naming","0","0","0","0","appleEnter Name","0","1936","1","White_Screen.jpg","20","177","Apple_RedAndGreen.jpg","20"
"022420","15:12:38","36","36","5.0.14.0","2","150","trial1","naming","0","0","0","0","nailEnter Name","0","2679","1","White_Screen.jpg","19","75","Nail.jpg","19"
"022420","15:12:38","36","36","5.0.14.0","2","151","trial1","naming","0","0","0","0","zucchiniEnter Name","0","4842","1","White_Screen.jpg","21","164","Zucchini.jpg","21"
"022420","15:12:38","36","36","5.0.14.0","2","152","trial1","naming","0","0","0","0","planeEnter Name","0","2145","1","White_Screen.jpg","20","182","Airplane_Fighter.jpg","20"
"022420","15:12:38","36","36","5.0.14.0","2","154","trial1","naming","0","0","0","0","lunckboxEnter Name","0","7421","1","White_Screen.jpg","19","112","Lunchbox.jpg","19"
"022420","15:12:38","36","36","5.0.14.0","2","155","trial1","naming","0","0","0","0","gpsEnter Name","0","5448","1","White_Screen.jpg","20","23","GPS.jpg","20"
"022420","15:12:38","36","36","5.0.14.0","2","156","trial1","naming","0","0","0","0","rulerEnter Name","0","2994","1","White_Screen.jpg","17","126","Ruler_Wooden.jpg","17"
"022420","15:12:38","36","36","5.0.14.0","2","157","trial1","naming","0","0","0","0","Enter Name","0","1048","1","White_Screen.jpg","18","140","Pot_BlackOld.jpg","18"
"022420","15:12:38","36","36","5.0.14.0","2","158","trial1","naming","0","0","0","0","bootsEnter Name","0","2544","1","White_Screen.jpg","18","29","Shoes_WomenBoots.jpg","18"
"022420","15:12:38","36","36","5.0.14.0","2","159","trial1","naming","0","0","0","0","piticher Enter Name","0","4323","1","White_Screen.jpg","23","192","MilkPitcher.jpg","23"
"022420","15:12:38","36","36","5.0.14.0","2","160","trial1","naming","0","0","0","0","posterEnter Name","0","3248","1","White_Screen.jpg","21","178","PeriodicTable.jpg","21"
"022420","15:12:38","36","36","5.0.14.0","2","161","trial1","naming","0","0","0","0","rockEnter Name","0","3049","1","White_Screen.jpg","21","6","Rock_Agate.jpg","21"
"022420","15:12:38","36","36","5.0.14.0","2","162","trial1","naming","0","0","0","0","beerEnter Name","0","2701","1","White_Screen.jpg","19","184","Glass_Beer.jpg","19"
"022420","15:12:38","36","36","5.0.14.0","2","163","trial1","naming","0","0","0","0","duckEnter Name","0","4013","1","White_Screen.jpg","23","134","DonaldDuck_Toy.jpg","23"
"022420","15:12:38","36","36","5.0.14.0","2","164","trial1","naming","0","0","0","0","hammerEnter Name","0","4687","1","White_Screen.jpg","22","74","SledgeHammer.jpg","22"
"022420","15:12:38","36","36","5.0.14.0","2","165","trial1","naming","0","0","0","0","spiderEnter Name","0","3654","1","White_Screen.jpg","19","106","Spider.jpg","19"
"022420","15:12:38","36","36","5.0.14.0","2","166","trial1","naming","0","0","0","0","plantEnter Name","0","3987","1","White_Screen.jpg","17","3","HerbsInBag.jpg","17"
"022420","15:12:38","36","36","5.0.14.0","2","167","trial1","naming","0","0","0","0","ladleEnter Name","0","4403","1","White_Screen.jpg","18","189","Pot_TurkishCoffee.jpg","18"
"022420","15:12:38","36","36","5.0.14.0","2","168","trial1","naming","0","0","0","0","eiffel towerEnter Name","0","5602","1","White_Screen.jpg","19","120","TowerEiffel.jpg","19"
"022420","15:12:38","36","36","5.0.14.0","2","169","trial1","naming","0","0","0","0","note holderEnter Name","0","6812","1","White_Screen.jpg","22","105","MemoPaperSpike.jpg","22"
"022420","15:12:38","36","36","5.0.14.0","2","170","trial1","naming","0","0","0","0","rugEnter Name","0","2179","1","White_Screen.jpg","19","22","Mat_Door.jpg","19"
"022420","15:12:38","36","36","5.0.14.0","2","171","trial1","naming","0","0","0","0","sinkEnter Name","0","2359","1","White_Screen.jpg","20","141","Sink_Kitchen.jpg","20"
"022420","15:12:38","36","36","5.0.14.0","2","172","trial1","naming","0","0","0","0","cupEnter Name","0","3406","1","White_Screen.jpg","19","33","Mug_Travel.jpg","19"
"022420","15:12:38","36","36","5.0.14.0","2","173","trial1","naming","0","0","0","0","rollEnter Name","0","2757","1","White_Screen.jpg","20","156","Bread_Roll.jpg","20"
"022420","15:12:38","36","36","5.0.14.0","2","174","trial1","naming","0","0","0","0","snailEnter Name","0","3548","1","White_Screen.jpg","19","2","Fossil.jpg","19"
"022420","15:12:38","36","36","5.0.14.0","2","175","trial1","naming","0","0","0","0","knifeEnter Name","0","3879","1","White_Screen.jpg","17","136","Cleaver_Meat.jpg","17"
"022420","15:12:38","36","36","5.0.14.0","2","176","trial1","naming","0","0","0","0","drillEnter Name","0","3040","1","White_Screen.jpg","19","200","Toy_Drill.jpg","19"
"022420","15:12:38","36","36","5.0.14.0","2","177","trial1","naming","0","0","0","0","birdEnter Name","0","3213","1","White_Screen.jpg","20","113","Puffin.jpg","20"
"022420","15:12:38","36","36","5.0.14.0","2","178","trial1","naming","0","0","0","0","rollEnter Name","0","2900","1","White_Screen.jpg","17","187","InflatableSleepingBag.jpg","17"
"022420","15:12:38","36","36","5.0.14.0","2","179","trial1","naming","0","0","0","0","birdEnter Name","0","2277","1","White_Screen.jpg","20","10","Bird_CanadianGoose.jpg","20"
"022420","15:12:38","36","36","5.0.14.0","2","180","trial1","naming","0","0","0","0","shellEnter Name","0","2497","1","White_Screen.jpg","18","31","Seashell_RoseMurex.jpg","18"
"022420","15:12:38","36","36","5.0.14.0","2","181","trial1","naming","0","0","0","0","flagEnter Name","0","2309","1","White_Screen.jpg","21","52","PirateFlag.jpg","21"
"022420","15:12:38","36","36","5.0.14.0","2","182","trial1","naming","0","0","0","0","greandeEnter Name","0","5419","1","White_Screen.jpg","27","1","Bomb.jpg","27"
"022420","15:12:38","36","36","5.0.14.0","2","183","trial1","naming","0","0","0","0","clockEnter Name","0","2386","1","White_Screen.jpg","18","130","Clock_Wall.jpg","18"
"022420","15:12:38","36","36","5.0.14.0","2","184","trial1","naming","0","0","0","0","appleEnter Name","0","2044","1","White_Screen.jpg","20","89","Plum.jpg","20"
"022420","15:12:38","36","36","5.0.14.0","2","185","trial1","naming","0","0","0","0","planeEnter Name","0","2445","1","White_Screen.jpg","20","161","Jet.jpg","20"
"022420","15:12:38","36","36","5.0.14.0","2","186","trial1","naming","0","0","0","0","fanEnter Name","0","2942","1","White_Screen.jpg","19","128","Fan_Blades.jpg","19"
"022420","15:12:38","36","36","5.0.14.0","2","187","trial1","naming","0","0","0","0","powderEnter Name","0","5681","1","White_Screen.jpg","20","174","Compact_Powder.jpg","20"
"022420","15:12:38","36","36","5.0.14.0","2","188","trial1","naming","0","0","0","0","foodEnter Name","0","3569","1","White_Screen.jpg","19","88","Chicken_Dinner.jpg","19"
"022420","15:12:38","36","36","5.0.14.0","2","189","trial1","naming","0","0","0","0","toolsEnter Name","0","2701","1","White_Screen.jpg","21","131","Toolbox_BlackOpen.jpg","21"
"022420","15:12:38","36","36","5.0.14.0","2","190","trial1","naming","0","0","0","0","trackEnter Name","0","2907","1","White_Screen.jpg","17","129","Toy_RaceTrack.jpg","17"
"022420","15:12:38","36","36","5.0.14.0","2","191","trial1","naming","0","0","0","0","bootsEnter Name","0","2574","1","White_Screen.jpg","17","143","Shoes_Snowboarding.jpg","17"
"022420","15:12:38","36","36","5.0.14.0","2","192","trial1","naming","0","0","0","0","knifeEnter Name","0","3914","1","White_Screen.jpg","20","154","Knife_Butter.jpg","20"
"022420","15:12:38","36","36","5.0.14.0","2","193","trial1","naming","0","0","0","0","bedEnter Name","0","2246","1","White_Screen.jpg","19","157","Bed_ChildBirch.jpg","19"
"022420","15:12:38","36","36","5.0.14.0","2","194","trial1","naming","0","0","0","0","drainerEnter Name","0","4296","1","White_Screen.jpg","18","5","DryRack_Dishes.jpg","18"
"022420","15:12:38","36","36","5.0.14.0","2","195","trial1","naming","0","0","0","0","toysEnter Name","0","3566","1","White_Screen.jpg","19","77","Toy_StackingRing.jpg","19"
"022420","15:12:38","36","36","5.0.14.0","2","196","trial1","naming","0","0","0","0","toyEnter Name","0","3586","1","White_Screen.jpg","20","47","Toy_Shapesorter.jpg","20"
"022420","15:12:38","36","36","5.0.14.0","2","197","trial1","naming","0","0","0","0","ribbonEnter Name","0","3862","1","White_Screen.jpg","21","135","Tape_Washi.jpg","21"
"022420","15:12:38","36","36","5.0.14.0","2","198","trial1","naming","0","0","0","0","holderEnter Name","0","3649","1","White_Screen.jpg","19","101","PedestalGreek.jpg","19"
"022420","15:12:38","36","36","5.0.14.0","2","199","trial1","naming","0","0","0","0","chocolatesEnter Name","0","4592","1","White_Screen.jpg","22","58","Box_Chocolate.jpg","22"
"022420","15:12:38","36","36","5.0.14.0","2","200","trial1","naming","0","0","0","0","matchesEnter Name","0","5783","1","White_Screen.jpg","19","86","MatchBook.jpg","19"
"022420","15:12:38","36","36","5.0.14.0","2","201","trial1","naming","0","0","0","0","fire extinguiEnter Name","0","8239","1","White_Screen.jpg","20","166","FireExtinguisher.jpg","20"
"022420","15:12:38","36","36","5.0.14.0","2","202","trial1","naming","0","0","0","0","buildingEnter Name","0","4059","1","White_Screen.jpg","18","124","BuildingChinese.jpg","18"
"022420","15:12:38","36","36","5.0.14.0","2","203","trial1","naming","0","0","0","0","sculptureEnter Name","0","4768","1","White_Screen.jpg","19","121","SculptureMetalFish.jpg","19"
"022420","15:12:38","36","36","5.0.14.0","3","1","demographics_block","gender","0","0","0","0","female","1","9512","0","0","0","0","0","0"
"022420","15:12:38","36","36","5.0.14.0","3","1","demographics_block","age","0","0","0","0","52","1","9512","0","0","0","0","0","0"
"022420","15:12:38","36","36","5.0.14.0","3","1","demographics_block","education","0","0","0","0","16","1","9512","0","0","0","0","0","0"
"022420","15:12:38","36","36","5.0.14.0","3","2","demographics_block","left_right_handed","0","0","0","0","Left","1","7568","0","0","0","0","0","0"
"022420","15:12:38","36","36","5.0.14.0","3","2","demographics_block","raceoption1","0","0","0","0","0","1","7568","0","0","0","0","0","0"
"022420","15:12:38","36","36","5.0.14.0","3","2","demographics_block","raceoption2","0","0","0","0","","1","7568","0","0","0","0","0","0"
"022420","15:12:38","36","36","5.0.14.0","3","2","demographics_block","raceoption3","0","0","0","0","","1","7568","0","0","0","0","0","0"
"022420","15:12:38","36","36","5.0.14.0","3","2","demographics_block","raceoption4","0","0","0","0","","1","7568","0","0","0","0","0","0"
"022420","15:12:38","36","36","5.0.14.0","3","2","demographics_block","raceoption5","0","0","0","0","4","1","7568","0","0","0","0","0","0"
"022420","15:12:38","36","36","5.0.14.0","3","2","demographics_block","raceoption6","0","0","0","0","","1","7568","0","0","0","0","0","0"
"022420","15:12:38","36","36","5.0.14.0","3","2","demographics_block","raceoption7","0","0","0","0","","1","7568","0","0","0","0","0","0"
"022420","15:12:38","36","36","5.0.14.0","3","2","demographics_block","raceoption8","0","0","0","0","","1","7568","0","0","0","0","0","0"
"022420","15:12:38","36","36","5.0.14.0","3","2","demographics_block","raceoption9","0","0","0","0","","1","7568","0","0","0","0","0","0"
"022420","15:12:38","36","36","5.0.14.0","3","2","demographics_block","raceother","0","0","0","0","","1","7568","0","0","0","0","0","0"
"022420","15:12:38","36","36","5.0.14.0","3","2","demographics_block","raceother","0","0","0","0","","1","7568","0","0","0","0","0","0"
"022420","15:12:38","36","36","5.0.14.0","3","2","demographics_block","english_language","0","0","0","0","Yes","1","7568","0","0","0","0","0","0"
"022420","15:12:38","36","36","5.0.14.0","3","2","demographics_block","english_languageother","0","0","0","0","","1","7568","0","0","0","0","0","0"
"022420","15:12:38","36","36","5.0.14.0","3","3","demographics_block","eyesight","0","0","0","0","Yes","1","4669","0","0","0","0","0","0"
"022420","15:12:38","36","36","5.0.14.0","3","3","demographics_block","colorblind","0","0","0","0","No","1","4669","0","0","0","0","0","0"
"022420","15:12:38","36","36","5.0.14.0","4","1","worker_id_block","worker_id_textbox","0","0","0","0","A49A0FF6ZXYDU","1","5370","0","0","0","0","0","0"
"022420","15:10:31","34","34","5.0.14.0","2","1","trial1","naming","0","0","0","0","puzzle","0","4340","1","White_Screen.jpg","28","47","Toy_Shapesorter.jpg","28"
"022420","15:10:31","34","34","5.0.14.0","2","2","trial1","naming","0","0","0","0","water fountain","0","5076","1","White_Screen.jpg","2","127","WaterFountain.jpg","2"
"022420","15:10:31","34","34","5.0.14.0","2","3","trial1","naming","0","0","0","0","shell","0","3027","1","White_Screen.jpg","2","31","Seashell_RoseMurex.jpg","2"
"022420","15:10:31","34","34","5.0.14.0","2","4","trial1","naming","0","0","0","0","tape player","0","3755","1","White_Screen.jpg","2","152","Cassette_Audio.jpg","2"
"022420","15:10:31","34","34","5.0.14.0","2","5","trial1","naming","0","0","0","0","yield bridge","0","5588","1","White_Screen.jpg","2","7","Sign_HumpBridgeAhead.jpg","2"
"022420","15:10:31","34","34","5.0.14.0","2","6","trial1","naming","0","0","0","0","bridge","0","3135","1","White_Screen.jpg","2","185","BridgeWooden.jpg","2"
"022420","15:10:31","34","34","5.0.14.0","2","7","trial1","naming","0","0","0","0","rocking horse","0","4819","1","White_Screen.jpg","2","53","Toy_RockingHorseBlack.jpg","2"
"022420","15:10:31","34","34","5.0.14.0","2","8","trial1","naming","0","0","0","0","scrub brush","0","4988","1","White_Screen.jpg","2","104","Brush_Nail.jpg","2"
"022420","15:10:31","34","34","5.0.14.0","2","9","trial1","naming","0","0","0","0","coffee mug","0","8097","1","White_Screen.jpg","2","33","Mug_Travel.jpg","2"
"022420","15:10:31","34","34","5.0.14.0","2","10","trial1","naming","0","0","0","0","strainer","0","2630","1","White_Screen.jpg","2","116","Sieve_SideView.jpg","2"
"022420","15:10:31","34","34","5.0.14.0","2","11","trial1","naming","0","0","0","0","squash","0","4196","1","White_Screen.jpg","3","71","Squash_Pumpkin.jpg","3"
"022420","15:10:31","34","34","5.0.14.0","2","12","trial1","naming","0","0","0","0","tape","0","3283","1","White_Screen.jpg","2","135","Tape_Washi.jpg","2"
"022420","15:10:31","34","34","5.0.14.0","2","13","trial1","naming","0","0","0","0","sink strainer","0","5055","1","White_Screen.jpg","2","5","DryRack_Dishes.jpg","2"
"022420","15:10:31","34","34","5.0.14.0","2","14","trial1","naming","0","0","0","0","boots","0","2785","1","White_Screen.jpg","2","143","Shoes_Snowboarding.jpg","2"
"022420","15:10:31","34","34","5.0.14.0","2","15","trial1","naming","0","0","0","0","tomato sauce","0","7162","1","White_Screen.jpg","2","110","Jar_Strawberry.jpg","2"
"022420","15:10:31","34","34","5.0.14.0","2","16","trial1","naming","0","0","0","0","clock works","0","6931","1","White_Screen.jpg","2","172","Clock_Interior.jpg","2"
"022420","15:10:31","34","34","5.0.14.0","2","17","trial1","naming","0","0","0","0","hair clasp","0","5151","1","White_Screen.jpg","2","24","HairBand.jpg","2"
"022420","15:10:31","34","34","5.0.14.0","2","18","trial1","naming","0","0","0","0","boots","0","2074","1","White_Screen.jpg","2","195","Boots_KneeHigh.jpg","2"
"022420","15:10:31","34","34","5.0.14.0","2","19","trial1","naming","0","0","0","0","gauge","0","5873","1","White_Screen.jpg","2","55","Ruler_Digital.jpg","2"
"022420","15:10:31","34","34","5.0.14.0","2","20","trial1","naming","0","0","0","0","headlight","0","3528","1","White_Screen.jpg","2","90","FlashlightHeadBand.jpg","2"
"022420","15:10:31","34","34","5.0.14.0","2","21","trial1","naming","0","0","0","0","climbing ratch","0","10000","1","White_Screen.jpg","2","68","Carbiner_Ascender.jpg","2"
"022420","15:10:31","34","34","5.0.14.0","2","22","trial1","naming","0","0","0","0","Enter Name","0","157","1","White_Screen.jpg","2","153","KeyHook_Occupied.jpg","2"
"022420","15:10:31","34","34","5.0.14.0","2","23","trial1","naming","0","0","0","0","necklace","0","5525","1","White_Screen.jpg","2","85","Hulahoop.jpg","2"
"022420","15:10:31","34","34","5.0.14.0","2","24","trial1","naming","0","0","0","0","mask","0","2497","1","White_Screen.jpg","2","173","Mask_Masquerade.jpg","2"
"022420","15:10:31","34","34","5.0.14.0","2","25","trial1","naming","0","0","0","0","socks","0","1665","1","White_Screen.jpg","2","162","Socks_Winter.jpg","2"
"022420","15:10:31","34","34","5.0.14.0","2","26","trial1","naming","0","0","0","0","wheel barrow","0","6709","1","White_Screen.jpg","2","148","Wheelbarrow_Green.jpg","2"
"022420","15:10:31","34","34","5.0.14.0","2","27","trial1","naming","0","0","0","0","dj set","0","6117","1","White_Screen.jpg","2","93","DJMixer.jpg","2"
"022420","15:10:31","34","34","5.0.14.0","2","28","trial1","naming","0","0","0","0","cooler","0","2647","1","White_Screen.jpg","2","9","Cooler.jpg","2"
"022420","15:10:31","34","34","5.0.14.0","2","29","trial1","naming","0","0","0","0","comb","0","2667","1","White_Screen.jpg","2","98","Comb_1.jpg","2"
"022420","15:10:31","34","34","5.0.14.0","2","30","trial1","naming","0","0","0","0","toy drill","0","5101","1","White_Screen.jpg","2","200","Toy_Drill.jpg","2"
"022420","15:10:31","34","34","5.0.14.0","2","31","trial1","naming","0","0","0","0","fire exstiquisher","0","5346","1","White_Screen.jpg","2","166","FireExtinguisher.jpg","2"
"022420","15:10:31","34","34","5.0.14.0","2","32","trial1","naming","0","0","0","0","clam","0","7255","1","White_Screen.jpg","2","108","Oyster.jpg","2"
"022420","15:10:31","34","34","5.0.14.0","2","33","trial1","naming","0","0","0","0","tape player","0","6565","1","White_Screen.jpg","2","158","Boombox.jpg","2"
"022420","15:10:31","34","34","5.0.14.0","2","34","trial1","naming","0","0","0","0","tea tin","0","5387","1","White_Screen.jpg","2","64","Canister_Tea.jpg","2"
"022420","15:10:31","34","34","5.0.14.0","2","35","trial1","naming","0","0","0","0","mouth guard","0","4832","1","White_Screen.jpg","2","171","TeethMould.jpg","2"
"022420","15:10:31","34","34","5.0.14.0","2","36","trial1","naming","0","0","0","0","airplane","0","3095","1","White_Screen.jpg","2","133","Airplane_Commercial.jpg","2"
"022420","15:10:31","34","34","5.0.14.0","2","37","trial1","naming","0","0","0","0","keyring","0","5085","1","White_Screen.jpg","2","193","Keychain_Metal.jpg","2"
"022420","15:10:31","34","34","5.0.14.0","2","38","trial1","naming","0","0","0","0","speaker","0","2479","1","White_Screen.jpg","2","176","Speakers_Theatre.jpg","2"
"022420","15:10:31","34","34","5.0.14.0","2","39","trial1","naming","0","0","0","0","baby doll","0","4307","1","White_Screen.jpg","2","132","Toy_Babydoll.jpg","2"
"022420","15:10:31","34","34","5.0.14.0","2","40","trial1","naming","0","0","0","0","envelope","0","4184","1","White_Screen.jpg","2","151","Envelope_Manila.jpg","2"
"022420","15:10:31","34","34","5.0.14.0","2","41","trial1","naming","0","0","0","0","guitar case","0","3558","1","White_Screen.jpg","2","175","Guitarcase.jpg","2"
"022420","15:10:31","34","34","5.0.14.0","2","42","trial1","naming","0","0","0","0","building","0","5953","1","White_Screen.jpg","2","124","BuildingChinese.jpg","2"
"022420","15:10:31","34","34","5.0.14.0","2","43","trial1","naming","0","0","0","0","toy","0","5796","1","White_Screen.jpg","2","77","Toy_StackingRing.jpg","2"
"022420","15:10:31","34","34","5.0.14.0","2","44","trial1","naming","0","0","0","0","locker","0","3497","1","White_Screen.jpg","2","19","ElectricSwitchboard.jpg","2"
"022420","15:10:31","34","34","5.0.14.0","2","45","trial1","naming","0","0","0","0","flower","0","4086","1","White_Screen.jpg","2","144","Flower_Crane.jpg","2"
"022420","15:10:31","34","34","5.0.14.0","2","46","trial1","naming","0","0","0","0","candy box","0","4291","1","White_Screen.jpg","2","58","Box_Chocolate.jpg","2"
"022420","15:10:31","34","34","5.0.14.0","2","47","trial1","naming","0","0","0","0","beer","0","4263","1","White_Screen.jpg","1","184","Glass_Beer.jpg","1"
"022420","15:10:31","34","34","5.0.14.0","2","48","trial1","naming","0","0","0","0","cantelope","0","4161","1","White_Screen.jpg","2","142","Cantaloupe.jpg","2"
"022420","15:10:31","34","34","5.0.14.0","2","49","trial1","naming","0","0","0","0","sneaker","0","2258","1","White_Screen.jpg","2","197","Shoe_Sneaker.jpg","2"
"022420","15:10:31","34","34","5.0.14.0","2","50","trial1","naming","0","0","0","0","gloves","0","2029","1","White_Screen.jpg","2","63","Gloves_Winter.jpg","2"
"022420","15:10:31","34","34","5.0.14.0","2","52","trial1","naming","0","0","0","0","wood box","0","5345","1","White_Screen.jpg","2","14","Case_WoodenOrnate.jpg","2"
"022420","15:10:31","34","34","5.0.14.0","2","53","trial1","naming","0","0","0","0","leaf blower","0","3856","1","White_Screen.jpg","2","12","LeafBlower.jpg","2"
"022420","15:10:31","34","34","5.0.14.0","2","54","trial1","naming","0","0","0","0","ruler","0","1934","1","White_Screen.jpg","2","126","Ruler_Wooden.jpg","2"
"022420","15:10:31","34","34","5.0.14.0","2","55","trial1","naming","0","0","0","0","milk pitcher","0","9364","1","White_Screen.jpg","2","192","MilkPitcher.jpg","2"
"022420","15:10:31","34","34","5.0.14.0","2","56","trial1","naming","0","0","0","0","matches","0","2353","1","White_Screen.jpg","2","86","MatchBook.jpg","2"
"022420","15:10:31","34","34","5.0.14.0","2","57","trial1","naming","0","0","0","0","helmet","0","2967","1","White_Screen.jpg","2","59","Hat_Hard.jpg","2"
"022420","15:10:31","34","34","5.0.14.0","2","58","trial1","naming","0","0","0","0","electric grill","0","5234","1","White_Screen.jpg","2","21","Grill_Electric.jpg","2"
"022420","15:10:31","34","34","5.0.14.0","2","59","trial1","naming","0","0","0","0","apple juice","0","5629","1","White_Screen.jpg","2","186","JuiceBox.jpg","2"
"022420","15:10:31","34","34","5.0.14.0","2","60","trial1","naming","0","0","0","0","statue bust","0","4261","1","White_Screen.jpg","2","78","Statue_Head.jpg","2"
"022420","15:10:31","34","34","5.0.14.0","2","61","trial1","naming","0","0","0","0","airport screener","0","6259","1","White_Screen.jpg","2","16","ScannerShoplifting.jpg","2"
"022420","15:10:31","34","34","5.0.14.0","2","62","trial1","naming","0","0","0","0","key holder","0","4251","1","White_Screen.jpg","2","11","Keychain_Leather.jpg","2"
"022420","15:10:31","34","34","5.0.14.0","2","63","trial1","naming","0","0","0","0","military jet","0","7214","1","White_Screen.jpg","2","161","Jet.jpg","2"
"022420","15:10:31","34","34","5.0.14.0","2","64","trial1","naming","0","0","0","0","humidifier","0","6311","1","White_Screen.jpg","2","82","Humidifier.jpg","2"
"022420","15:10:31","34","34","5.0.14.0","2","65","trial1","naming","0","0","0","0","hand","0","1833","1","White_Screen.jpg","2","50","Hand.jpg","2"
"022420","15:10:31","34","34","5.0.14.0","2","66","trial1","naming","0","0","0","0","cucumber","0","4471","1","White_Screen.jpg","2","164","Zucchini.jpg","2"
"022420","15:10:31","34","34","5.0.14.0","2","67","trial1","naming","0","0","0","0","flask","0","3618","1","White_Screen.jpg","2","49","Flask_Metal.jpg","2"
"022420","15:10:31","34","34","5.0.14.0","2","68","trial1","naming","0","0","0","0","congo","0","3053","1","White_Screen.jpg","2","94","Drum_Conga.jpg","2"
"022420","15:10:31","34","34","5.0.14.0","2","69","trial1","naming","0","0","0","0","chicken","0","3113","1","White_Screen.jpg","2","99","Chicken_Raw.jpg","2"
"022420","15:10:31","34","34","5.0.14.0","2","70","trial1","naming","0","0","0","0","gps","0","3768","1","White_Screen.jpg","2","23","GPS.jpg","2"
"022420","15:10:31","34","34","5.0.14.0","2","71","trial1","naming","0","0","0","0","plunger","0","2963","1","White_Screen.jpg","2","194","Plunger.jpg","2"
"022420","15:10:31","34","34","5.0.14.0","2","72","trial1","naming","0","0","0","0","eifel tower","0","4838","1","White_Screen.jpg","2","120","TowerEiffel.jpg","2"
"022420","15:10:31","34","34","5.0.14.0","2","73","trial1","naming","0","0","0","0","metal detector","0","6612","1","White_Screen.jpg","2","165","MetalDetector.jpg","2"
"022420","15:10:31","34","34","5.0.14.0","2","74","trial1","naming","0","0","0","0","mallet","0","2455","1","White_Screen.jpg","2","76","Mallet.jpg","2"
"022420","15:10:31","34","34","5.0.14.0","2","75","trial1","naming","0","0","0","0","column","0","4845","1","White_Screen.jpg","2","198","ColumnMarble.jpg","2"
"022420","15:10:31","34","34","5.0.14.0","2","76","trial1","naming","0","0","0","0","bowl","0","2332","1","White_Screen.jpg","1","67","Bowl_Glass.jpg","1"
"022420","15:10:31","34","34","5.0.14.0","2","77","trial1","naming","0","0","0","0","plastic blocks","0","5313","1","White_Screen.jpg","2","145","Toy_BlocksPlastic Colourful.jpg","2"
"022420","15:10:31","34","34","5.0.14.0","2","78","trial1","naming","0","0","0","0","bread","0","2586","1","White_Screen.jpg","2","138","Bread_Carrot.jpg","2"
"022420","15:10:31","34","34","5.0.14.0","2","79","trial1","naming","0","0","0","0","rug","0","1671","1","White_Screen.jpg","2","22","Mat_Door.jpg","2"
"022420","15:10:31","34","34","5.0.14.0","2","80","trial1","naming","0","0","0","0","camera","0","3598","1","White_Screen.jpg","2","123","Camera_Antique.jpg","2"
"022420","15:10:31","34","34","5.0.14.0","2","81","trial1","naming","0","0","0","0","tape","0","1779","1","White_Screen.jpg","2","183","Tape_Clear.jpg","2"
"022420","15:10:31","34","34","5.0.14.0","2","82","trial1","naming","0","0","0","0","gas heater","0","5918","1","White_Screen.jpg","2","56","Heater_Outdoor.jpg","2"
"022420","15:10:31","34","34","5.0.14.0","2","83","trial1","naming","0","0","0","0","ladel","0","4366","1","White_Screen.jpg","2","159","Ladle.jpg","2"
"022420","15:10:31","34","34","5.0.14.0","2","84","trial1","naming","0","0","0","0","doll","0","2502","1","White_Screen.jpg","2","40","Toy_DollHomeMade.jpg","2"
"022420","15:10:31","34","34","5.0.14.0","2","85","trial1","naming","0","0","0","0","headphones","0","3031","1","White_Screen.jpg","2","150","Headphones.jpg","2"
"022420","15:10:31","34","34","5.0.14.0","2","86","trial1","naming","0","0","0","0","noose","0","2655","1","White_Screen.jpg","2","180","Noose.jpg","2"
"022420","15:10:31","34","34","5.0.14.0","2","87","trial1","naming","0","0","0","0","perfume bottle","0","3825","1","White_Screen.jpg","2","155","Cologne.jpg","2"
"022420","15:10:31","34","34","5.0.14.0","2","88","trial1","naming","0","0","0","0","cement mixer","0","5546","1","White_Screen.jpg","2","32","Mixer_Cement.jpg","2"
"022420","15:10:31","34","34","5.0.14.0","2","89","trial1","naming","0","0","0","0","canteen kit","0","4317","1","White_Screen.jpg","2","112","Lunchbox.jpg","2"
"022420","15:10:31","34","34","5.0.14.0","2","90","trial1","naming","0","0","0","0","bike","0","1815","1","White_Screen.jpg","2","91","Bicycle_Adult.jpg","2"
"022420","15:10:31","34","34","5.0.14.0","2","91","trial1","naming","0","0","0","0","pants","0","1882","1","White_Screen.jpg","2","80","Pants.jpg","2"
"022420","15:10:31","34","34","5.0.14.0","2","92","trial1","naming","0","0","0","0","fan blade","0","3062","1","White_Screen.jpg","2","128","Fan_Blades.jpg","2"
"022420","15:10:31","34","34","5.0.14.0","2","93","trial1","naming","0","0","0","0","coffee grinder","0","4051","1","White_Screen.jpg","2","38","ProcessorFood_Old.jpg","2"
"022420","15:10:31","34","34","5.0.14.0","2","94","trial1","naming","0","0","0","0","light bulb","0","2861","1","White_Screen.jpg","2","73","LightBulb_White.jpg","2"
"022420","15:10:31","34","34","5.0.14.0","2","95","trial1","naming","0","0","0","0","onion","0","3311","1","White_Screen.jpg","2","42","Lychee.jpg","2"
"022420","15:10:31","34","34","5.0.14.0","2","96","trial1","naming","0","0","0","0","carrots","0","2512","1","White_Screen.jpg","2","95","Carrot.jpg","2"
"022420","15:10:31","34","34","5.0.14.0","2","97","trial1","naming","0","0","0","0","cereal bowl","0","5803","1","White_Screen.jpg","2","139","Bowl_Cereal.jpg","2"
"022420","15:10:31","34","34","5.0.14.0","2","98","trial1","naming","0","0","0","0","ground pounder","0","7060","1","White_Screen.jpg","2","168","JumpingJack.jpg","2"
"022420","15:10:31","34","34","5.0.14.0","2","99","trial1","naming","0","0","0","0","shell","0","3217","1","White_Screen.jpg","2","2","Fossil.jpg","2"
"022420","15:10:31","34","34","5.0.14.0","2","100","trial1","naming","0","0","0","0","steel bowl","0","4177","1","White_Screen.jpg","2","140","Pot_BlackOld.jpg","2"
"022420","15:10:31","34","34","5.0.14.0","2","101","trial1","naming","0","0","0","0","rock","0","5616","1","White_Screen.jpg","2","6","Rock_Agate.jpg","2"
"022420","15:10:31","34","34","5.0.14.0","2","103","trial1","naming","0","0","0","0","bird","0","5419","1","White_Screen.jpg","1","113","Puffin.jpg","1"
"022420","15:10:31","34","34","5.0.14.0","2","104","trial1","naming","0","0","0","0","knit hat","0","4043","1","White_Screen.jpg","2","190","Hat_Tuque.jpg","2"
"022420","15:10:31","34","34","5.0.14.0","2","105","trial1","naming","0","0","0","0","thanksgiving dinner","0","7122","1","White_Screen.jpg","2","88","Chicken_Dinner.jpg","2"
"022420","15:10:31","34","34","5.0.14.0","2","106","trial1","naming","0","0","0","0","camera","0","3225","1","White_Screen.jpg","2","114","Camera_Digital.jpg","2"
"022420","15:10:31","34","34","5.0.14.0","2","107","trial1","naming","0","0","0","0","note holder","0","5017","1","White_Screen.jpg","2","105","MemoPaperSpike.jpg","2"
"022420","15:10:31","34","34","5.0.14.0","2","108","trial1","naming","0","0","0","0","ram","0","3715","1","White_Screen.jpg","2","26","RamAnimal.jpg","2"
"022420","15:10:31","34","34","5.0.14.0","2","109","trial1","naming","0","0","0","0","lawnmower","0","2848","1","White_Screen.jpg","2","41","LawnMower.jpg","2"
"022420","15:10:31","34","34","5.0.14.0","2","110","trial1","naming","0","0","0","0","spider","0","2511","1","White_Screen.jpg","2","106","Spider.jpg","2"
"022420","15:10:31","34","34","5.0.14.0","2","111","trial1","naming","0","0","0","0","slinky","0","3260","1","White_Screen.jpg","2","96","Toy_Slinky.jpg","2"
"022420","15:10:31","34","34","5.0.14.0","2","112","trial1","naming","0","0","0","0","hat","0","3013","1","White_Screen.jpg","2","87","Hat_Cowboy.jpg","2"
"022420","15:10:31","34","34","5.0.14.0","2","113","trial1","naming","0","0","0","0","fortune cookie","0","4005","1","White_Screen.jpg","2","107","FortuneCookie.jpg","2"
"022420","15:10:31","34","34","5.0.14.0","2","114","trial1","naming","0","0","0","0","tomato sauce","0","4159","1","White_Screen.jpg","2","61","TomatoSauce.jpg","2"
"022420","15:10:31","34","34","5.0.14.0","2","115","trial1","naming","0","0","0","0","dart board","0","2689","1","White_Screen.jpg","2","118","DartBoard.jpg","2"
"022420","15:10:31","34","34","5.0.14.0","2","116","trial1","naming","0","0","0","0","light ahead","0","4612","1","White_Screen.jpg","2","45","sign_traffic.jpg","2"
"022420","15:10:31","34","34","5.0.14.0","2","117","trial1","naming","0","0","0","0","boots","0","2011","1","White_Screen.jpg","2","29","Shoes_WomenBoots.jpg","2"
"022420","15:10:31","34","34","5.0.14.0","2","118","trial1","naming","0","0","0","0","tables","0","5805","1","White_Screen.jpg","2","20","Altar.jpg","2"
"022420","15:10:31","34","34","5.0.14.0","2","119","trial1","naming","0","0","0","0","lemon","0","2772","1","White_Screen.jpg","2","191","Lemon.jpg","2"
"022420","15:10:31","34","34","5.0.14.0","2","120","trial1","naming","0","0","0","0","lettuce","0","3487","1","White_Screen.jpg","2","102","Lettuce_Romaine.jpg","2"
"022420","15:10:31","34","34","5.0.14.0","2","121","trial1","naming","0","0","0","0","shark toy","0","2976","1","White_Screen.jpg","2","160","Toy_Shark.jpg","2"
"022420","15:10:31","34","34","5.0.14.0","2","122","trial1","naming","0","0","0","0","automobile","0","3823","1","White_Screen.jpg","2","179","Car_Sedan.jpg","2"
"022420","15:10:31","34","34","5.0.14.0","2","123","trial1","naming","0","0","0","0","conference table","0","6028","1","White_Screen.jpg","2","27","Table_Conference.jpg","2"
"022420","15:10:31","34","34","5.0.14.0","2","124","trial1","naming","0","0","0","0","duck","0","3018","1","White_Screen.jpg","2","10","Bird_CanadianGoose.jpg","2"
"022420","15:10:31","34","34","5.0.14.0","2","125","trial1","naming","0","0","0","0","candle set","0","6168","1","White_Screen.jpg","2","70","Candle_ChristmasDecor.jpg","2"
"022420","15:10:31","34","34","5.0.14.0","2","126","trial1","naming","0","0","0","0","yukalelee","0","6337","1","White_Screen.jpg","2","83","Balalaika.jpg","2"
"022420","15:10:31","34","34","5.0.14.0","2","127","trial1","naming","0","0","0","0","emergency board","0","7249","1","White_Screen.jpg","2","62","ControlPanel.jpg","2"
"022420","15:10:31","34","34","5.0.14.0","2","128","trial1","naming","0","0","0","0","periodic table","0","4354","1","White_Screen.jpg","2","178","PeriodicTable.jpg","2"
"022420","15:10:31","34","34","5.0.14.0","2","129","trial1","naming","0","0","0","0","clock","0","1941","1","White_Screen.jpg","2","130","Clock_Wall.jpg","2"
"022420","15:10:31","34","34","5.0.14.0","2","130","trial1","naming","0","0","0","0","pirate flag","0","3175","1","White_Screen.jpg","2","52","PirateFlag.jpg","2"
"022420","15:10:31","34","34","5.0.14.0","2","131","trial1","naming","0","0","0","0","dolphin","0","3420","1","White_Screen.jpg","2","163","Dolphine.jpg","2"
"022420","15:10:31","34","34","5.0.14.0","2","132","trial1","naming","0","0","0","0","nail","0","3381","1","White_Screen.jpg","2","75","Nail.jpg","2"
"022420","15:10:31","34","34","5.0.14.0","2","133","trial1","naming","0","0","0","0","vent cover","0","2983","1","White_Screen.jpg","2","103","AirVent.jpg","2"
"022420","15:10:31","34","34","5.0.14.0","2","134","trial1","naming","0","0","0","0","licorace","0","3682","1","White_Screen.jpg","2","18","Licorice.jpg","2"
"022420","15:10:31","34","34","5.0.14.0","2","135","trial1","naming","0","0","0","0","laddle","0","5266","1","White_Screen.jpg","2","189","Pot_TurkishCoffee.jpg","2"
"022420","15:10:31","34","34","5.0.14.0","2","136","trial1","naming","0","0","0","0","sink","0","2364","1","White_Screen.jpg","2","141","Sink_Kitchen.jpg","2"
"022420","15:10:31","34","34","5.0.14.0","2","137","trial1","naming","0","0","0","0","steel wire","0","3558","1","White_Screen.jpg","2","100","Wire_Soldering.jpg","2"
"022420","15:10:31","34","34","5.0.14.0","2","138","trial1","naming","0","0","0","0","thermos","0","7470","1","White_Screen.jpg","3","115","Thermos_Decorated.jpg","3"
"022420","15:10:31","34","34","5.0.14.0","2","139","trial1","naming","0","0","0","0","wood toy","0","3750","1","White_Screen.jpg","2","8","Dreidel.jpg","2"
"022420","15:10:31","34","34","5.0.14.0","2","140","trial1","naming","0","0","0","0","brush","0","3265","1","White_Screen.jpg","2","25","Brush_Shoe.jpg","2"
"022420","15:10:31","34","34","5.0.14.0","2","141","trial1","naming","0","0","0","0","shrub plant","0","6009","1","White_Screen.jpg","2","137","Shrub_Cedar.jpg","2"
"022420","15:10:31","34","34","5.0.14.0","2","142","trial1","naming","0","0","0","0","light column","0","4771","1","White_Screen.jpg","2","13","LampPost_WhiteOrnate.jpg","2"
"022420","15:10:31","34","34","5.0.14.0","2","143","trial1","naming","0","0","0","0","timer","0","2143","1","White_Screen.jpg","2","15","TimerKitchen.jpg","2"
"022420","15:10:31","34","34","5.0.14.0","2","144","trial1","naming","0","0","0","0","stool","0","5342","1","White_Screen.jpg","2","60","Stool_Foot.jpg","2"
"022420","15:10:31","34","34","5.0.14.0","2","145","trial1","naming","0","0","0","0","mixer board","0","4759","1","White_Screen.jpg","2","4","SoundMixer_White.jpg","2"
"022420","15:10:31","34","34","5.0.14.0","2","146","trial1","naming","0","0","0","0","coal stove","0","4624","1","White_Screen.jpg","1","69","Fireplace_Outdoor.jpg","1"
"022420","15:10:31","34","34","5.0.14.0","2","147","trial1","naming","0","0","0","0","football helmet","0","4791","1","White_Screen.jpg","2","125","Helmet_Football.jpg","2"
"022420","15:10:31","34","34","5.0.14.0","2","148","trial1","naming","0","0","0","0","kite","0","2653","1","White_Screen.jpg","2","66","Kite_Rainbow.jpg","2"
"022420","15:10:31","34","34","5.0.14.0","2","149","trial1","naming","0","0","0","0","toy octopus","0","5215","1","White_Screen.jpg","2","97","Toy_Octopus.jpg","2"
"022420","15:10:31","34","34","5.0.14.0","2","150","trial1","naming","0","0","0","0","wood blocks","0","5277","1","White_Screen.jpg","2","35","Toy_BlocksLetter.jpg","2"
"022420","15:10:31","34","34","5.0.14.0","2","151","trial1","naming","0","0","0","0","plastic container","0","3658","1","White_Screen.jpg","1","54","Container_RedPlastic.jpg","1"
"022420","15:10:31","34","34","5.0.14.0","2","152","trial1","naming","0","0","0","0","knife","0","2890","1","White_Screen.jpg","2","154","Knife_Butter.jpg","2"
"022420","15:10:31","34","34","5.0.14.0","2","154","trial1","naming","0","0","0","0","styrofoam cup","0","4203","1","White_Screen.jpg","2","34","Cup_Styrofoam.jpg","2"
"022420","15:10:31","34","34","5.0.14.0","2","155","trial1","naming","0","0","0","0","plastic chair","0","3313","1","White_Screen.jpg","2","111","Chair_PlasticGreen.jpg","2"
"022420","15:10:31","34","34","5.0.14.0","2","156","trial1","naming","0","0","0","0","colosium","0","3184","1","White_Screen.jpg","2","181","Colosseum.jpg","2"
"022420","15:10:31","34","34","5.0.14.0","2","157","trial1","naming","0","0","0","0","ambulance","0","3648","1","White_Screen.jpg","3","65","Ambulance.jpg","3"
"022420","15:10:31","34","34","5.0.14.0","2","158","trial1","naming","0","0","0","0","training stick","0","5931","1","White_Screen.jpg","2","51","MassageRoller.jpg","2"
"022420","15:10:31","34","34","5.0.14.0","2","159","trial1","naming","0","0","0","0","screw","0","6311","1","White_Screen.jpg","2","48","Bolt_WithNut.jpg","2"
"022420","15:10:31","34","34","5.0.14.0","2","160","trial1","naming","0","0","0","0","apple","0","2250","1","White_Screen.jpg","1","177","Apple_RedAndGreen.jpg","1"
"022420","15:10:31","34","34","5.0.14.0","2","161","trial1","naming","0","0","0","0","apple","0","3009","1","White_Screen.jpg","2","89","Plum.jpg","2"
"022420","15:10:31","34","34","5.0.14.0","2","162","trial1","naming","0","0","0","0","bus","0","4737","1","White_Screen.jpg","2","122","Bus_DoubleDecker.jpg","2"
"022420","15:10:31","34","34","5.0.14.0","2","163","trial1","naming","0","0","0","0","plastic bottle","0","3898","1","White_Screen.jpg","2","30","Bottle_Plastic.jpg","2"
"022420","15:10:31","34","34","5.0.14.0","2","164","trial1","naming","0","0","0","0","kitchen knife","0","4671","1","White_Screen.jpg","2","81","Knife_Kitchen.jpg","2"
"022420","15:10:31","34","34","5.0.14.0","2","165","trial1","naming","0","0","0","0","roller","0","4654","1","White_Screen.jpg","2","119","Cabasa.jpg","2"
