"date","time","group","subject","build","blocknum","trialnum","blockcode","trialcode","pretrialpause","posttrialpause","trialduration","trialtimeout","response","correct","latency","stimulusnumber1","stimulusitem1","stimulusonset1","stimulusnumber2","stimulusitem2","stimulusonset2"
"091219","12:41:26","20","20","5.0.14.0","2","1","trial1","naming","0","0","0","0","card","0","3075","1","White_Screen.jpg","21","120","Card_TwoSpade.jpg","21"
"091219","12:41:26","20","20","5.0.14.0","2","2","trial1","naming","0","0","0","0","dream catcher","0","3958","1","White_Screen.jpg","7","47","Dreamcatcher.jpg","7"
"091219","12:41:26","20","20","5.0.14.0","2","3","trial1","naming","0","0","0","0","tray","0","4861","1","White_Screen.jpg","4","27","SoapDish.jpg","4"
"091219","12:41:26","20","20","5.0.14.0","2","4","trial1","naming","0","0","0","0","puzzle","0","5794","1","White_Screen.jpg","5","97","Puzzle_Animal.jpg","5"
"091219","12:41:26","20","20","5.0.14.0","2","5","trial1","naming","0","0","0","0","brush","0","3117","1","White_Screen.jpg","5","44","Brush_Cleaning.jpg","5"
"091219","12:41:26","20","20","5.0.14.0","2","6","trial1","naming","0","0","0","0","license plate","0","3921","1","White_Screen.jpg","5","190","LicensePlate.jpg","5"
"091219","12:41:26","20","20","5.0.14.0","2","7","trial1","naming","0","0","0","0","statue","0","3264","1","White_Screen.jpg","5","151","Sphinx.jpg","5"
"091219","12:41:26","20","20","5.0.14.0","2","8","trial1","naming","0","0","0","0","pocket knife","0","4851","1","White_Screen.jpg","5","139","Scalpel.jpg","5"
"091219","12:41:26","20","20","5.0.14.0","2","9","trial1","naming","0","0","0","0","box cutter","0","4973","1","White_Screen.jpg","4","132","Boxcutter.jpg","4"
"091219","12:41:26","20","20","5.0.14.0","2","10","trial1","naming","0","0","0","0","dreidel","0","3974","1","White_Screen.jpg","5","199","Toy_Top.jpg","5"
"091219","12:41:26","20","20","5.0.14.0","2","11","trial1","naming","0","0","0","0","knee brace","0","3653","1","White_Screen.jpg","7","89","Brace_Leg.jpg","7"
"091219","12:41:26","20","20","5.0.14.0","2","12","trial1","naming","0","0","0","0","mallet","0","2703","1","White_Screen.jpg","4","33","Hammer_Reflex.jpg","4"
"091219","12:41:26","20","20","5.0.14.0","2","13","trial1","naming","0","0","0","0","jug","0","2629","1","White_Screen.jpg","8","82","Jug_GallonWhite.jpg","8"
"091219","12:41:26","20","20","5.0.14.0","2","14","trial1","naming","0","0","0","0","blanket","0","4779","1","White_Screen.jpg","6","131","Mat_Bamboo.jpg","6"
"091219","12:41:26","20","20","5.0.14.0","2","15","trial1","naming","0","0","0","0","flashlight","0","3128","1","White_Screen.jpg","4","174","Flashlight.jpg","4"
"091219","12:41:26","20","20","5.0.14.0","2","16","trial1","naming","0","0","0","0","battery","0","2929","1","White_Screen.jpg","7","19","Battery_Car.jpg","7"
"091219","12:41:26","20","20","5.0.14.0","2","17","trial1","naming","0","0","0","0","shoelace","0","3197","1","White_Screen.jpg","6","21","ShoeLace_Flat.jpg","6"
"091219","12:41:26","20","20","5.0.14.0","2","18","trial1","naming","0","0","0","0","police tape","0","4443","1","White_Screen.jpg","5","155","PoliceTape.jpg","5"
"091219","12:41:26","20","20","5.0.14.0","2","19","trial1","naming","0","0","0","0","battery cable","0","10000","1","White_Screen.jpg","6","81","Cable_JumpStart.jpg","6"
"091219","12:41:26","20","20","5.0.14.0","2","20","trial1","naming","0","0","0","0","propane torch","0","4850","1","White_Screen.jpg","5","98","Stove_Propane.jpg","5"
"091219","12:41:26","20","20","5.0.14.0","2","21","trial1","naming","0","0","0","0","turkey","0","2289","1","White_Screen.jpg","4","87","TurkeyDinner.jpg","4"
"091219","12:41:26","20","20","5.0.14.0","2","22","trial1","naming","0","0","0","0","ball","0","6158","1","White_Screen.jpg","5","169","Glass_Ball.jpg","5"
"091219","12:41:26","20","20","5.0.14.0","2","23","trial1","naming","0","0","0","0","gold","0","2839","1","White_Screen.jpg","6","156","GoldNugget.jpg","6"
"091219","12:41:26","20","20","5.0.14.0","2","24","trial1","naming","0","0","0","0","brush","0","4790","1","White_Screen.jpg","5","54","Brush_Shaving.jpg","5"
"091219","12:41:26","20","20","5.0.14.0","2","25","trial1","naming","0","0","0","0","utensils","0","7588","1","White_Screen.jpg","6","65","PenHolder.jpg","6"
"091219","12:41:26","20","20","5.0.14.0","2","26","trial1","naming","0","0","0","0","flowers","0","3854","1","White_Screen.jpg","4","63","Flowers_DryBouquet.jpg","4"
"091219","12:41:26","20","20","5.0.14.0","2","27","trial1","naming","0","0","0","0","airplane","0","2486","1","White_Screen.jpg","4","198","SpaceShuttle.jpg","4"
"091219","12:41:26","20","20","5.0.14.0","2","28","trial1","naming","0","0","0","0","game boy","0","2786","1","White_Screen.jpg","5","159","Gameboy.jpg","5"
"091219","12:41:26","20","20","5.0.14.0","2","29","trial1","naming","0","0","0","0","mosquito","0","2343","1","White_Screen.jpg","5","94","Dragonfly.jpg","5"
"091219","12:41:26","20","20","5.0.14.0","2","30","trial1","naming","0","0","0","0","chicken","0","2868","1","White_Screen.jpg","4","84","Bird_Hen.jpg","4"
"091219","12:41:26","20","20","5.0.14.0","2","31","trial1","naming","0","0","0","0","present","0","2130","1","White_Screen.jpg","6","122","Box_Present.jpg","6"
"091219","12:41:26","20","20","5.0.14.0","2","32","trial1","naming","0","0","0","0","stool","0","1678","1","White_Screen.jpg","6","66","Stool_Wood.jpg","6"
"091219","12:41:26","20","20","5.0.14.0","2","33","trial1","naming","0","0","0","0","horse","0","6136","1","White_Screen.jpg","5","95","ChessPiece_Knight.jpg","5"
"091219","12:41:26","20","20","5.0.14.0","2","34","trial1","naming","0","0","0","0","papers","0","5827","1","White_Screen.jpg","4","75","PaperStack.jpg","4"
"091219","12:41:26","20","20","5.0.14.0","2","35","trial1","naming","0","0","0","0","scroll","0","3332","1","White_Screen.jpg","6","90","Scroll.jpg","6"
"091219","12:41:26","20","20","5.0.14.0","2","36","trial1","naming","0","0","0","0","boat","0","2270","1","White_Screen.jpg","5","71","Toy_Boat.jpg","5"
"091219","12:41:26","20","20","5.0.14.0","2","37","trial1","naming","0","0","0","0","fire truck","0","4652","1","White_Screen.jpg","5","180","Toy_Firetruck.jpg","5"
"091219","12:41:26","20","20","5.0.14.0","2","38","trial1","naming","0","0","0","0","pliers","0","7925","1","White_Screen.jpg","5","53","Crowbar.jpg","5"
"091219","12:41:26","20","20","5.0.14.0","2","39","trial1","naming","0","0","0","0","basket","0","3847","1","White_Screen.jpg","5","16","Jug_Wicker.jpg","5"
"091219","12:41:26","20","20","5.0.14.0","2","40","trial1","naming","0","0","0","0","watermelon","0","2270","1","White_Screen.jpg","5","31","WatermelonSlice.jpg","5"
"091219","12:41:26","20","20","5.0.14.0","2","41","trial1","naming","0","0","0","0","trimmers","0","6315","1","White_Screen.jpg","5","106","HairClipper.jpg","5"
"091219","12:41:26","20","20","5.0.14.0","2","42","trial1","naming","0","0","0","0","basket","0","5715","1","White_Screen.jpg","4","9","Bucket_Rusty.jpg","4"
"091219","12:41:26","20","20","5.0.14.0","2","43","trial1","naming","0","0","0","0","booties","0","2647","1","White_Screen.jpg","4","74","Socks_Baby.jpg","4"
"091219","12:41:26","20","20","5.0.14.0","2","44","trial1","naming","0","0","0","0","violin","0","2429","1","White_Screen.jpg","5","55","DoubleBass.jpg","5"
"091219","12:41:26","20","20","5.0.14.0","2","45","trial1","naming","0","0","0","0","clam","0","3352","1","White_Screen.jpg","7","181","Clam.jpg","7"
"091219","12:41:26","20","20","5.0.14.0","2","46","trial1","naming","0","0","0","0","cup","0","1858","1","White_Screen.jpg","5","15","Cup_Bathroom.jpg","5"
"091219","12:41:26","20","20","5.0.14.0","2","47","trial1","naming","0","0","0","0","desk","0","2663","1","White_Screen.jpg","4","191","Table_Magazine.jpg","4"
"091219","12:41:26","20","20","5.0.14.0","2","48","trial1","naming","0","0","0","0","piercing","0","5495","1","White_Screen.jpg","4","138","Earring_Hoop.jpg","4"
"091219","12:41:26","20","20","5.0.14.0","2","49","trial1","naming","0","0","0","0","wallet","0","2700","1","White_Screen.jpg","6","126","Makeup_Bag.jpg","6"
"091219","12:41:26","20","20","5.0.14.0","2","50","trial1","naming","0","0","0","0","door lock","0","6726","1","White_Screen.jpg","5","188","CodeDoorLock.jpg","5"
"091219","12:41:26","20","20","5.0.14.0","2","52","trial1","naming","0","0","0","0","baster","0","7958","1","White_Screen.jpg","6","18","Baster.jpg","6"
"091219","12:41:26","20","20","5.0.14.0","2","53","trial1","naming","0","0","0","0","pretzel","0","2307","1","White_Screen.jpg","7","101","Pretzel_Knot.jpg","7"
"091219","12:41:26","20","20","5.0.14.0","2","54","trial1","naming","0","0","0","0","toy chest","0","2905","1","White_Screen.jpg","5","115","Chest_Toys.jpg","5"
"091219","12:41:26","20","20","5.0.14.0","2","55","trial1","naming","0","0","0","0","ship","0","3176","1","White_Screen.jpg","5","102","Boat_Ferry.jpg","5"
"091219","12:41:26","20","20","5.0.14.0","2","56","trial1","naming","0","0","0","0","caterpillar","0","6230","1","White_Screen.jpg","5","42","Caterpillar.jpg","5"
"091219","12:41:26","20","20","5.0.14.0","2","57","trial1","naming","0","0","0","0","ironing table","0","5667","1","White_Screen.jpg","5","140","Sled.jpg","5"
"091219","12:41:26","20","20","5.0.14.0","2","58","trial1","naming","0","0","0","0","nail file","0","2886","1","White_Screen.jpg","4","119","NailFiles.jpg","4"
"091219","12:41:26","20","20","5.0.14.0","2","59","trial1","naming","0","0","0","0","lamp base","0","9514","1","White_Screen.jpg","6","23","Candleholder_Tall.jpg","6"
"091219","12:41:26","20","20","5.0.14.0","2","60","trial1","naming","0","0","0","0","tie","0","1582","1","White_Screen.jpg","6","103","Tie.jpg","6"
"091219","12:41:26","20","20","5.0.14.0","2","61","trial1","naming","0","0","0","0","faucet","0","3456","1","White_Screen.jpg","5","100","Faucet.jpg","5"
"091219","12:41:26","20","20","5.0.14.0","2","62","trial1","naming","0","0","0","0","tombstone","0","4557","1","White_Screen.jpg","5","110","Mailbox_Antique.jpg","5"
"091219","12:41:26","20","20","5.0.14.0","2","63","trial1","naming","0","0","0","0","bowl","0","3043","1","White_Screen.jpg","7","57","Tray_Wooden.jpg","7"
"091219","12:41:26","20","20","5.0.14.0","2","64","trial1","naming","0","0","0","0","air hockey","0","4027","1","White_Screen.jpg","5","17","Gametable_AirHockey.jpg","5"
"091219","12:41:26","20","20","5.0.14.0","2","65","trial1","naming","0","0","0","0","gate","0","2038","1","White_Screen.jpg","6","77","GatedEntrance.jpg","6"
"091219","12:41:26","20","20","5.0.14.0","2","66","trial1","naming","0","0","0","0","game","0","4786","1","White_Screen.jpg","5","162","Boardgame_ChineseCheckers.jpg","5"
"091219","12:41:26","20","20","5.0.14.0","2","67","trial1","naming","0","0","0","0","cigars","0","4906","1","White_Screen.jpg","5","171","CigarCase.jpg","5"
"091219","12:41:26","20","20","5.0.14.0","2","68","trial1","naming","0","0","0","0","shopping bag","0","7560","1","White_Screen.jpg","7","186","Bag_PaperWithFlour.jpg","7"
"091219","12:41:26","20","20","5.0.14.0","2","69","trial1","naming","0","0","0","0","street sweeper","0","3792","1","White_Screen.jpg","5","148","StreetSweeper.jpg","5"
"091219","12:41:26","20","20","5.0.14.0","2","70","trial1","naming","0","0","0","0","mop","0","1646","1","White_Screen.jpg","9","29","Mop.jpg","9"
"091219","12:41:26","20","20","5.0.14.0","2","71","trial1","naming","0","0","0","0","water bottle","0","4443","1","White_Screen.jpg","5","46","Canteen.jpg","5"
"091219","12:41:26","20","20","5.0.14.0","2","72","trial1","naming","0","0","0","0","high heel","0","2521","1","White_Screen.jpg","7","34","Shoe_Highheel.jpg","7"
"091219","12:41:26","20","20","5.0.14.0","2","73","trial1","naming","0","0","0","0","sand castle","0","2641","1","White_Screen.jpg","4","37","Castle_Sand.jpg","4"
"091219","12:41:26","20","20","5.0.14.0","2","74","trial1","naming","0","0","0","0","reindeer","0","2271","1","White_Screen.jpg","4","184","Nyala.jpg","4"
"091219","12:41:26","20","20","5.0.14.0","2","75","trial1","naming","0","0","0","0","watering jug","0","3815","1","White_Screen.jpg","5","43","WateringCan_Antique.jpg","5"
"091219","12:41:26","20","20","5.0.14.0","2","76","trial1","naming","0","0","0","0","tank","0","1685","1","White_Screen.jpg","7","67","Toy_Tank.jpg","7"
"091219","12:41:26","20","20","5.0.14.0","2","77","trial1","naming","0","0","0","0","pasta","0","2195","1","White_Screen.jpg","4","185","Pasta_Fettuccine.jpg","4"
"091219","12:41:26","20","20","5.0.14.0","2","78","trial1","naming","0","0","0","0","surgery tools","0","9030","1","White_Screen.jpg","5","128","Tray_Medical.jpg","5"
"091219","12:41:26","20","20","5.0.14.0","2","79","trial1","naming","0","0","0","0","three","0","5487","1","White_Screen.jpg","4","78","Magnet_Three.jpg","4"
"091219","12:41:26","20","20","5.0.14.0","2","80","trial1","naming","0","0","0","0","umbrella","0","3515","1","White_Screen.jpg","6","79","Umbrella_Retractable.jpg","6"
"091219","12:41:26","20","20","5.0.14.0","2","81","trial1","naming","0","0","0","0","box","0","2887","1","White_Screen.jpg","6","40","Box_WoodCrate.jpg","6"
"091219","12:41:26","20","20","5.0.14.0","2","82","trial1","naming","0","0","0","0","motorized scooter","0","4106","1","White_Screen.jpg","5","7","MobilityScooter.jpg","5"
"091219","12:41:26","20","20","5.0.14.0","2","83","trial1","naming","0","0","0","0","fire hydrant","0","2874","1","White_Screen.jpg","5","72","FireHydrant.jpg","5"
"091219","12:41:26","20","20","5.0.14.0","2","84","trial1","naming","0","0","0","0","macaroni","0","2562","1","White_Screen.jpg","6","143","Pasta_Macaroni.jpg","6"
"091219","12:41:26","20","20","5.0.14.0","2","85","trial1","naming","0","0","0","0","floss","0","4490","1","White_Screen.jpg","4","136","DentalFloss.jpg","4"
"091219","12:41:26","20","20","5.0.14.0","2","86","trial1","naming","0","0","0","0","screw","0","4392","1","White_Screen.jpg","7","83","Screw.jpg","7"
"091219","12:41:26","20","20","5.0.14.0","2","87","trial1","naming","0","0","0","0","stove","0","4181","1","White_Screen.jpg","6","52","Oven.jpg","6"
"091219","12:41:26","20","20","5.0.14.0","2","88","trial1","naming","0","0","0","0","keyboard key","0","6800","1","White_Screen.jpg","5","127","ComputerKeyboard_F1.jpg","5"
"091219","12:41:26","20","20","5.0.14.0","2","89","trial1","naming","0","0","0","0","animal","0","4855","1","White_Screen.jpg","8","50","HorseshoeCrab.jpg","8"
"091219","12:41:26","20","20","5.0.14.0","2","90","trial1","naming","0","0","0","0","saw","0","1780","1","White_Screen.jpg","5","161","Saw.jpg","5"
"091219","12:41:26","20","20","5.0.14.0","2","91","trial1","naming","0","0","0","0","plate","0","3676","1","White_Screen.jpg","6","26","Plate_Children.jpg","6"
"091219","12:41:26","20","20","5.0.14.0","2","92","trial1","naming","0","0","0","0","bow","0","3539","1","White_Screen.jpg","5","196","Archery_ArrowsBows.jpg","5"
"091219","12:41:26","20","20","5.0.14.0","2","93","trial1","naming","0","0","0","0","doll","0","2626","1","White_Screen.jpg","4","35","Doll_Rag.jpg","4"
"091219","12:41:26","20","20","5.0.14.0","2","94","trial1","naming","0","0","0","0","chewing gum","0","3919","1","White_Screen.jpg","4","178","ChewingGum.jpg","4"
"091219","12:41:26","20","20","5.0.14.0","2","95","trial1","naming","0","0","0","0","clip","0","4245","1","White_Screen.jpg","5","20","Clothespin_Red.jpg","5"
"091219","12:41:26","20","20","5.0.14.0","2","96","trial1","naming","0","0","0","0","food","0","6617","1","White_Screen.jpg","6","64","PassionFruit.jpg","6"
"091219","12:41:26","20","20","5.0.14.0","2","97","trial1","naming","0","0","0","0","cell phone","0","7298","1","White_Screen.jpg","7","163","Phone_Wireless.jpg","7"
"091219","12:41:26","20","20","5.0.14.0","2","98","trial1","naming","0","0","0","0","paper towel","0","4397","1","White_Screen.jpg","4","114","ShowerCap.jpg","4"
"091219","12:41:26","20","20","5.0.14.0","2","99","trial1","naming","0","0","0","0","christmas tree","0","3790","1","White_Screen.jpg","7","38","Tree_ChristmasMini.jpg","7"
"091219","12:41:26","20","20","5.0.14.0","2","100","trial1","naming","0","0","0","0","basketball","0","2979","1","White_Screen.jpg","6","104","Ball_Basketball.jpg","6"
"091219","12:41:26","20","20","5.0.14.0","2","101","trial1","naming","0","0","0","0","dishwasher","0","3108","1","White_Screen.jpg","7","48","WashingMachine.jpg","7"
"091219","12:41:26","20","20","5.0.14.0","2","103","trial1","naming","0","0","0","0","drumsticks","0","3229","1","White_Screen.jpg","4","142","Stick_Drum.jpg","4"
"091219","12:41:26","20","20","5.0.14.0","2","104","trial1","naming","0","0","0","0","garbage can","0","4036","1","White_Screen.jpg","5","197","PaperShredder.jpg","5"
"091219","12:41:26","20","20","5.0.14.0","2","105","trial1","naming","0","0","0","0","manilla folder","0","5197","1","White_Screen.jpg","5","135","FileDivider.jpg","5"
"091219","12:41:26","20","20","5.0.14.0","2","106","trial1","naming","0","0","0","0","coral","0","2732","1","White_Screen.jpg","5","166","Coral.jpg","5"
"091219","12:41:26","20","20","5.0.14.0","2","107","trial1","naming","0","0","0","0","bowl","0","2233","1","White_Screen.jpg","5","10","ContactLens.jpg","5"
"091219","12:41:26","20","20","5.0.14.0","2","108","trial1","naming","0","0","0","0","radio","0","7413","1","White_Screen.jpg","5","117","Clock_Radioalarm.jpg","5"
"091219","12:41:26","20","20","5.0.14.0","2","109","trial1","naming","0","0","0","0","hay","0","2391","1","White_Screen.jpg","5","25","Hay.jpg","5"
"091219","12:41:26","20","20","5.0.14.0","2","110","trial1","naming","0","0","0","0","dress","0","1940","1","White_Screen.jpg","4","118","Dress_Blue.jpg","4"
"091219","12:41:26","20","20","5.0.14.0","2","111","trial1","naming","0","0","0","0","jug","0","4192","1","White_Screen.jpg","4","61","MilkJug.jpg","4"
"091219","12:41:26","20","20","5.0.14.0","2","112","trial1","naming","0","0","0","0","deodorant stick","0","3903","1","White_Screen.jpg","6","167","Deodorant.jpg","6"
"091219","12:41:26","20","20","5.0.14.0","2","113","trial1","naming","0","0","0","0","toy","0","3785","1","White_Screen.jpg","5","41","Toy_ModelMolecule.jpg","5"
"091219","12:41:26","20","20","5.0.14.0","2","114","trial1","naming","0","0","0","0","toy car","0","3966","1","White_Screen.jpg","5","3","Toy_TrailerAirport.jpg","5"
"091219","12:41:26","20","20","5.0.14.0","2","115","trial1","naming","0","0","0","0","toy","0","8023","1","White_Screen.jpg","5","165","Toy_Wooden rings.jpg","5"
"091219","12:41:26","20","20","5.0.14.0","2","116","trial1","naming","0","0","0","0","casket","0","3428","1","White_Screen.jpg","6","62","CasketOpen.jpg","6"
"091219","12:41:26","20","20","5.0.14.0","2","117","trial1","naming","0","0","0","0","sword","0","2944","1","White_Screen.jpg","5","30","Sword.jpg","5"
"091219","12:41:26","20","20","5.0.14.0","2","118","trial1","naming","0","0","0","0","badge","0","1894","1","White_Screen.jpg","6","152","BadgeSpecialAgent.jpg","6"
"091219","12:41:26","20","20","5.0.14.0","2","119","trial1","naming","0","0","0","0","hair clip","0","8199","1","White_Screen.jpg","6","141","HairClip.jpg","6"
"091219","12:41:26","20","20","5.0.14.0","2","120","trial1","naming","0","0","0","0","seashell","0","3262","1","White_Screen.jpg","7","157","Seashell_AlternateTellin.jpg","7"
"091219","12:41:26","20","20","5.0.14.0","2","121","trial1","naming","0","0","0","0","panda","0","1888","1","White_Screen.jpg","6","22","Panda.jpg","6"
"091219","12:41:26","20","20","5.0.14.0","2","122","trial1","naming","0","0","0","0","connector","0","4362","1","White_Screen.jpg","5","121","VGAport.jpg","5"
"091219","12:41:26","20","20","5.0.14.0","2","123","trial1","naming","0","0","0","0","dog house","0","2553","1","White_Screen.jpg","5","107","DogHouse.jpg","5"
"091219","12:41:26","20","20","5.0.14.0","2","124","trial1","naming","0","0","0","0","vertebrae","0","3831","1","White_Screen.jpg","5","109","SpinalCord.jpg","5"
"091219","12:41:26","20","20","5.0.14.0","2","125","trial1","naming","0","0","0","0","basket","0","7212","1","White_Screen.jpg","5","153","DrinkingFountain.jpg","5"
"091219","12:41:26","20","20","5.0.14.0","2","126","trial1","naming","0","0","0","0","toolbox","0","3324","1","White_Screen.jpg","4","85","Toolbox_Old.jpg","4"
"091219","12:41:26","20","20","5.0.14.0","2","127","trial1","naming","0","0","0","0","shovel","0","4360","1","White_Screen.jpg","4","154","LitterScoop.jpg","4"
"091219","12:41:26","20","20","5.0.14.0","2","128","trial1","naming","0","0","0","0","gas mask","0","2790","1","White_Screen.jpg","5","189","Mask_Gas.jpg","5"
"091219","12:41:26","20","20","5.0.14.0","2","129","trial1","naming","0","0","0","0","bookcase","0","7299","1","White_Screen.jpg","4","36","Cabinet_Display.jpg","4"
"091219","12:41:26","20","20","5.0.14.0","2","130","trial1","naming","0","0","0","0","grandfather clock","0","3979","1","White_Screen.jpg","7","32","Clock_Grandfather.jpg","7"
"091219","12:41:26","20","20","5.0.14.0","2","131","trial1","naming","0","0","0","0","paint applier","0","6581","1","White_Screen.jpg","6","116","PaintRollTray.jpg","6"
"091219","12:41:26","20","20","5.0.14.0","2","132","trial1","naming","0","0","0","0","wheelie","0","6555","1","White_Screen.jpg","4","69","Hoverboard.jpg","4"
"091219","12:41:26","20","20","5.0.14.0","2","133","trial1","naming","0","0","0","0","seperator","0","6283","1","White_Screen.jpg","5","96","CigarCutter.jpg","5"
"091219","12:41:26","20","20","5.0.14.0","2","134","trial1","naming","0","0","0","0","prom dress","0","3460","1","White_Screen.jpg","4","113","Dress_Party.jpg","4"
"091219","12:41:26","20","20","5.0.14.0","2","135","trial1","naming","0","0","0","0","jewelry box","0","4140","1","White_Screen.jpg","7","93","Box_Floral.jpg","7"
"091219","12:41:26","20","20","5.0.14.0","2","136","trial1","naming","0","0","0","0","can opener","0","2924","1","White_Screen.jpg","6","192","CanOpener.jpg","6"
"091219","12:41:26","20","20","5.0.14.0","2","137","trial1","naming","0","0","0","0","dumbbell","0","2414","1","White_Screen.jpg","4","58","Weights_Dumbells.jpg","4"
"091219","12:41:26","20","20","5.0.14.0","2","138","trial1","naming","0","0","0","0","thermometer","0","10000","1","White_Screen.jpg","6","14","AlarmSystem.jpg","6"
"091219","12:41:26","20","20","5.0.14.0","2","139","trial1","naming","0","0","0","0","safe","0","2038","1","White_Screen.jpg","5","158","Cabinet_Office.jpg","5"
"091219","12:41:26","20","20","5.0.14.0","2","140","trial1","naming","0","0","0","0","pressurized tank","0","7001","1","White_Screen.jpg","5","147","Stove_Camping.jpg","5"
"091219","12:41:26","20","20","5.0.14.0","2","141","trial1","naming","0","0","0","0","pill bug","0","6421","1","White_Screen.jpg","5","49","Toy_Ladybug.jpg","5"
"091219","12:41:26","20","20","5.0.14.0","2","142","trial1","naming","0","0","0","0","lipstick","0","2455","1","White_Screen.jpg","4","133","NailPolish.jpg","4"
"091219","12:41:26","20","20","5.0.14.0","2","143","trial1","naming","0","0","0","0","shower brush","0","4957","1","White_Screen.jpg","5","145","Brush_BathBack.jpg","5"
"091219","12:41:26","20","20","5.0.14.0","2","144","trial1","naming","0","0","0","0","grill","0","2844","1","White_Screen.jpg","5","5","GrillRack.jpg","5"
"091219","12:41:26","20","20","5.0.14.0","2","145","trial1","naming","0","0","0","0","sailboat","0","3229","1","White_Screen.jpg","7","179","Boat_Sail.jpg","7"
"091219","12:41:26","20","20","5.0.14.0","2","146","trial1","naming","0","0","0","0","cane","0","1788","1","White_Screen.jpg","7","129","Cane_Metal.jpg","7"
"091219","12:41:26","20","20","5.0.14.0","2","147","trial1","naming","0","0","0","0","gift bag","0","2214","1","White_Screen.jpg","5","56","Bag_Gift.jpg","5"
"091219","12:41:26","20","20","5.0.14.0","2","148","trial1","naming","0","0","0","0","stamp","0","3610","1","White_Screen.jpg","5","8","Stamp.jpg","5"
"091219","12:41:26","20","20","5.0.14.0","2","149","trial1","naming","0","0","0","0","kebab","0","3755","1","White_Screen.jpg","5","168","Kebab_Vegetables.jpg","5"
"091219","12:41:26","20","20","5.0.14.0","2","150","trial1","naming","0","0","0","0","oxygen mask","0","5854","1","White_Screen.jpg","4","28","Mask_CPR.jpg","4"
"091219","12:41:26","20","20","5.0.14.0","2","151","trial1","naming","0","0","0","0","crib","0","3037","1","White_Screen.jpg","7","150","Crib_Standard.jpg","7"
"091219","12:41:26","20","20","5.0.14.0","2","152","trial1","naming","0","0","0","0","paddle","0","4886","1","White_Screen.jpg","6","12","Paddle_Beach.jpg","6"
"091219","12:41:26","20","20","5.0.14.0","2","154","trial1","naming","0","0","0","0","end table","0","6734","1","White_Screen.jpg","6","108","Dresser.jpg","6"
"091219","12:41:26","20","20","5.0.14.0","2","155","trial1","naming","0","0","0","0","armor","0","2108","1","White_Screen.jpg","7","123","Helmet_Knight.jpg","7"
"091219","12:41:26","20","20","5.0.14.0","2","156","trial1","naming","0","0","0","0","ladel","0","3771","1","White_Screen.jpg","5","86","Mirror_Dental.jpg","5"
"091219","12:41:26","20","20","5.0.14.0","2","157","trial1","naming","0","0","0","0","nothing appears","0","6371","1","White_Screen.jpg","4","137","White_Screen.jpg","4"
"091219","12:41:26","20","20","5.0.14.0","2","158","trial1","naming","0","0","0","0","dump truck","0","6062","1","White_Screen.jpg","4","4","Tractor_Yellow.jpg","4"
"091219","12:41:26","20","20","5.0.14.0","2","159","trial1","naming","0","0","0","0","lock","0","4418","1","White_Screen.jpg","6","70","Lock_Key.jpg","6"
"091219","12:41:26","20","20","5.0.14.0","2","160","trial1","naming","0","0","0","0","slotted spoon","0","7533","1","White_Screen.jpg","6","92","Spatula.jpg","6"
"091219","12:41:26","20","20","5.0.14.0","2","161","trial1","naming","0","0","0","0","worker","0","5483","1","White_Screen.jpg","5","183","Toy_DollOffice.jpg","5"
"091219","12:41:26","20","20","5.0.14.0","2","162","trial1","naming","0","0","0","0","domino","0","5920","1","White_Screen.jpg","4","73","Domino.jpg","4"
"091219","12:41:26","20","20","5.0.14.0","2","163","trial1","naming","0","0","0","0","hockey stick","0","2955","1","White_Screen.jpg","9","193","Stick_IceHockey.jpg","9"
"091219","12:41:26","20","20","5.0.14.0","2","164","trial1","naming","0","0","0","0","yarmulke","0","4359","1","White_Screen.jpg","5","177","Yarmulke.jpg","5"
"091219","12:41:26","20","20","5.0.14.0","2","165","trial1","naming","0","0","0","0","giraffe","0","2583","1","White_Screen.jpg","6","24","Giraffe.jpg","6"
"091219","12:41:26","20","20","5.0.14.0","2","166","trial1","naming","0","0","0","0","jacket","0","2307","1","White_Screen.jpg","7","144","Jacket_Jean.jpg","7"
"091219","12:41:26","20","20","5.0.14.0","2","167","trial1","naming","0","0","0","0","yarn","0","2040","1","White_Screen.jpg","4","111","RibbonSpool.jpg","4"
"091219","12:41:26","20","20","5.0.14.0","2","168","trial1","naming","0","0","0","0","wreathe","0","2999","1","White_Screen.jpg","6","187","Wreath.jpg","6"
"091219","12:41:26","20","20","5.0.14.0","2","169","trial1","naming","0","0","0","0","bucket","0","2120","1","White_Screen.jpg","5","194","PaintCan.jpg","5"
"091219","12:41:26","20","20","5.0.14.0","2","170","trial1","naming","0","0","0","0","dish","0","8130","1","White_Screen.jpg","7","164","ButterDish.jpg","7"
"091219","12:41:26","20","20","5.0.14.0","2","171","trial1","naming","0","0","0","0","science device","0","9521","1","White_Screen.jpg","5","13","Centrifuge.jpg","5"
"091219","12:41:26","20","20","5.0.14.0","2","172","trial1","naming","0","0","0","0","strainer","0","3572","1","White_Screen.jpg","4","39","Colander.jpg","4"
"091219","12:41:26","20","20","5.0.14.0","2","173","trial1","naming","0","0","0","0","shorts","0","2622","1","White_Screen.jpg","4","80","Shorts_Plaid.jpg","4"
"091219","12:41:26","20","20","5.0.14.0","2","174","trial1","naming","0","0","0","0","teapot","0","1853","1","White_Screen.jpg","6","99","Teapot.jpg","6"
"091219","12:41:26","20","20","5.0.14.0","2","175","trial1","naming","0","0","0","0","stands","0","4371","1","White_Screen.jpg","5","76","Bleachers.jpg","5"
"091219","12:41:26","20","20","5.0.14.0","2","176","trial1","naming","0","0","0","0","roller coaster","0","3162","1","White_Screen.jpg","6","134","RollerCoaster.jpg","6"
"091219","12:41:26","20","20","5.0.14.0","2","177","trial1","naming","0","0","0","0","barometer","0","3063","1","White_Screen.jpg","6","59","Barometer.jpg","6"
"091219","12:41:26","20","20","5.0.14.0","2","178","trial1","naming","0","0","0","0","gloves","0","1572","1","White_Screen.jpg","6","68","Gloves_WhiteKnit.jpg","6"
"091219","12:41:26","20","20","5.0.14.0","2","179","trial1","naming","0","0","0","0","motorcycle","0","3200","1","White_Screen.jpg","5","176","Toy_Motorcycle.jpg","5"
"091219","12:41:26","20","20","5.0.14.0","2","180","trial1","naming","0","0","0","0","hard hat","0","3171","1","White_Screen.jpg","5","51","Helmet_Construction.jpg","5"
"091219","12:41:26","20","20","5.0.14.0","2","181","trial1","naming","0","0","0","0","bagpipes","0","4143","1","White_Screen.jpg","6","146","Bagpipes.jpg","6"
"091219","12:41:26","20","20","5.0.14.0","2","182","trial1","naming","0","0","0","0","basket","0","2094","1","White_Screen.jpg","5","124","Basket_Straw.jpg","5"
"091219","12:41:26","20","20","5.0.14.0","2","183","trial1","naming","0","0","0","0","don't know","0","7289","1","White_Screen.jpg","4","112","GutterAndDrainPipe.jpg","4"
"091219","12:41:26","20","20","5.0.14.0","2","184","trial1","naming","0","0","0","0","tiger","0","4870","1","White_Screen.jpg","7","195","TigerWhite.jpg","7"
"091219","12:41:26","20","20","5.0.14.0","2","185","trial1","naming","0","0","0","0","kebab","0","2393","1","White_Screen.jpg","7","172","Kebab_Meat.jpg","7"
"091219","12:41:26","20","20","5.0.14.0","2","186","trial1","naming","0","0","0","0","street sign","0","4285","1","White_Screen.jpg","5","170","Sign_TrafficArrow.jpg","5"
"091219","12:41:26","20","20","5.0.14.0","2","187","trial1","naming","0","0","0","0","sandal","0","4992","1","White_Screen.jpg","5","175","Slippers.jpg","5"
"091219","12:41:26","20","20","5.0.14.0","2","188","trial1","naming","0","0","0","0","goat","0","2193","1","White_Screen.jpg","6","6","Goat.jpg","6"
"091219","12:41:26","20","20","5.0.14.0","2","189","trial1","naming","0","0","0","0","birthday cake","0","3188","1","White_Screen.jpg","5","11","Cake_Birthday.jpg","5"
"091219","12:41:26","20","20","5.0.14.0","2","190","trial1","naming","0","0","0","0","pen","0","4334","1","White_Screen.jpg","6","149","PenStand.jpg","6"
"091219","12:41:26","20","20","5.0.14.0","2","191","trial1","naming","0","0","0","0","milk thing","0","10000","1","White_Screen.jpg","6","173","PumpBreast.jpg","6"
"091219","12:41:26","20","20","5.0.14.0","2","192","trial1","naming","0","0","0","0","book","0","3173","1","White_Screen.jpg","4","45","Book_Leather.jpg","4"
"091219","12:41:26","20","20","5.0.14.0","2","193","trial1","naming","0","0","0","0","mascera","0","4991","1","White_Screen.jpg","5","160","Makeup_Mascara.jpg","5"
"091219","12:41:26","20","20","5.0.14.0","2","194","trial1","naming","0","0","0","0","tank","0","4658","1","White_Screen.jpg","4","2","WaterHeater.jpg","4"
"091219","12:41:26","20","20","5.0.14.0","2","195","trial1","naming","0","0","0","0","light switch","0","2754","1","White_Screen.jpg","5","130","Switch_LightWhite.jpg","5"
"091219","12:41:26","20","20","5.0.14.0","2","196","trial1","naming","0","0","0","0","medicine","0","2201","1","White_Screen.jpg","5","91","PillBottle_Closed.jpg","5"
"091219","12:41:26","20","20","5.0.14.0","2","197","trial1","naming","0","0","0","0","orange","0","1652","1","White_Screen.jpg","5","200","Fruit_Orange.jpg","5"
"091219","12:41:26","20","20","5.0.14.0","2","198","trial1","naming","0","0","0","0","paddle","0","2681","1","White_Screen.jpg","6","88","Paddle_PingPong.jpg","6"
"091219","12:41:26","20","20","5.0.14.0","2","199","trial1","naming","0","0","0","0","asparagus","0","2148","1","White_Screen.jpg","8","105","Asparagus.jpg","8"
"091219","12:41:26","20","20","5.0.14.0","2","200","trial1","naming","0","0","0","0","crutches","0","3147","1","White_Screen.jpg","6","182","Crutches.jpg","6"
"091219","12:41:26","20","20","5.0.14.0","2","201","trial1","naming","0","0","0","0","dinosaur","0","3251","1","White_Screen.jpg","5","125","Toy_DinosaurBrontosaurus.jpg","5"
"091219","12:41:26","20","20","5.0.14.0","2","202","trial1","naming","0","0","0","0","popup toy","0","3772","1","White_Screen.jpg","4","60","Toy_JackInTheBox.jpg","4"
"091219","12:41:26","20","20","5.0.14.0","2","203","trial1","naming","0","0","0","0","rotary telephone","0","3603","1","White_Screen.jpg","5","1","Telephone_DialAntique.jpg","5"
"091219","12:41:26","20","20","5.0.14.0","3","1","demographics_block","gender","0","0","0","0","Male","1","6375","0","0","0","0","0","0"
"091219","12:41:26","20","20","5.0.14.0","3","1","demographics_block","age","0","0","0","0","25","1","6375","0","0","0","0","0","0"
"091219","12:41:26","20","20","5.0.14.0","3","1","demographics_block","education","0","0","0","0","16","1","6375","0","0","0","0","0","0"
"091219","12:41:26","20","20","5.0.14.0","3","2","demographics_block","left_right_handed","0","0","0","0","Right","1","5907","0","0","0","0","0","0"
"091219","12:41:26","20","20","5.0.14.0","3","2","demographics_block","raceoption1","0","0","0","0","0","1","5907","0","0","0","0","0","0"
"091219","12:41:26","20","20","5.0.14.0","3","2","demographics_block","raceoption2","0","0","0","0","","1","5907","0","0","0","0","0","0"
"091219","12:41:26","20","20","5.0.14.0","3","2","demographics_block","raceoption3","0","0","0","0","","1","5907","0","0","0","0","0","0"
"091219","12:41:26","20","20","5.0.14.0","3","2","demographics_block","raceoption4","0","0","0","0","","1","5907","0","0","0","0","0","0"
"091219","12:41:26","20","20","5.0.14.0","3","2","demographics_block","raceoption5","0","0","0","0","","1","5907","0","0","0","0","0","0"
"091219","12:41:26","20","20","5.0.14.0","3","2","demographics_block","raceoption6","0","0","0","0","","1","5907","0","0","0","0","0","0"
"091219","12:41:26","20","20","5.0.14.0","3","2","demographics_block","raceoption7","0","0","0","0","","1","5907","0","0","0","0","0","0"
"091219","12:41:26","20","20","5.0.14.0","3","2","demographics_block","raceoption8","0","0","0","0","","1","5907","0","0","0","0","0","0"
"091219","12:41:26","20","20","5.0.14.0","3","2","demographics_block","raceoption9","0","0","0","0","","1","5907","0","0","0","0","0","0"
"091219","12:41:26","20","20","5.0.14.0","3","2","demographics_block","raceother","0","0","0","0","","1","5907","0","0","0","0","0","0"
"091219","12:41:26","20","20","5.0.14.0","3","2","demographics_block","raceother","0","0","0","0","","1","5907","0","0","0","0","0","0"
"091219","12:41:26","20","20","5.0.14.0","3","2","demographics_block","english_language","0","0","0","0","Yes","1","5907","0","0","0","0","0","0"
"091219","12:41:26","20","20","5.0.14.0","3","2","demographics_block","english_languageother","0","0","0","0","","1","5907","0","0","0","0","0","0"
"091219","12:41:26","20","20","5.0.14.0","3","3","demographics_block","eyesight","0","0","0","0","Yes","1","2737","0","0","0","0","0","0"
"091219","12:41:26","20","20","5.0.14.0","3","3","demographics_block","colorblind","0","0","0","0","No","1","2737","0","0","0","0","0","0"
"091219","12:41:26","20","20","5.0.14.0","4","1","worker_id_block","worker_id_textbox","0","0","0","0","A272X64FOZFYLB","1","3340","0","0","0","0","0","0"
"date","time","group","subject","build","blocknum","trialnum","blockcode","trialcode","pretrialpause","posttrialpause","trialduration","trialtimeout","response","correct","latency","stimulusnumber1","stimulusitem1","stimulusonset1","stimulusnumber2","stimulusitem2","stimulusonset2"
"091219","10:38:22","26","26","5.0.14.0","2","1","trial1","naming","0","0","0","0","boat","0","6090","1","White_Screen.jpg","12","71","Toy_Boat.jpg","12"
"091219","10:38:22","26","26","5.0.14.0","2","2","trial1","naming","0","0","0","0","spine","0","2303","1","White_Screen.jpg","-3","109","SpinalCord.jpg","-3"
"091219","10:38:22","26","26","5.0.14.0","2","3","trial1","naming","0","0","0","0","barometer","0","3208","1","White_Screen.jpg","-3","59","Barometer.jpg","-3"
"091219","10:38:22","26","26","5.0.14.0","2","4","trial1","naming","0","0","0","0","strainer","0","2815","1","White_Screen.jpg","-5","39","Colander.jpg","-5"
"091219","10:38:22","26","26","5.0.14.0","2","5","trial1","naming","0","0","0","0","stamp","0","1756","1","White_Screen.jpg","-1","8","Stamp.jpg","-1"
"091219","10:38:22","26","26","5.0.14.0","2","6","trial1","naming","0","0","0","0","box","0","1469","1","White_Screen.jpg","-3","40","Box_WoodCrate.jpg","-3"
"091219","10:38:22","26","26","5.0.14.0","2","7","trial1","naming","0","0","0","0","top","0","2586","1","White_Screen.jpg","-3","199","Toy_Top.jpg","-3"
"091219","10:38:22","26","26","5.0.14.0","2","8","trial1","naming","0","0","0","0","game","0","3130","1","White_Screen.jpg","-5","162","Boardgame_ChineseCheckers.jpg","-5"
"091219","10:38:22","26","26","5.0.14.0","2","9","trial1","naming","0","0","0","0","cello","0","2880","1","White_Screen.jpg","-1","55","DoubleBass.jpg","-1"
"091219","10:38:22","26","26","5.0.14.0","2","10","trial1","naming","0","0","0","0","battery","0","1916","1","White_Screen.jpg","-3","19","Battery_Car.jpg","-3"
"091219","10:38:22","26","26","5.0.14.0","2","11","trial1","naming","0","0","0","0","fire hydrant","0","3381","1","White_Screen.jpg","-2","72","FireHydrant.jpg","-2"
"091219","10:38:22","26","26","5.0.14.0","2","12","trial1","naming","0","0","0","0","dream catcher","0","3356","1","White_Screen.jpg","-1","47","Dreamcatcher.jpg","-1"
"091219","10:38:22","26","26","5.0.14.0","2","13","trial1","naming","0","0","0","0","license plate","0","3391","1","White_Screen.jpg","-4","190","LicensePlate.jpg","-4"
"091219","10:38:22","26","26","5.0.14.0","2","14","trial1","naming","0","0","0","0","water heater","0","4245","1","White_Screen.jpg","-2","2","WaterHeater.jpg","-2"
"091219","10:38:22","26","26","5.0.14.0","2","15","trial1","naming","0","0","0","0","casket","0","3608","1","White_Screen.jpg","-1","62","CasketOpen.jpg","-1"
"091219","10:38:22","26","26","5.0.14.0","2","16","trial1","naming","0","0","0","0","bowl","0","3478","1","White_Screen.jpg","-1","26","Plate_Children.jpg","-1"
"091219","10:38:22","26","26","5.0.14.0","2","17","trial1","naming","0","0","0","0","toy","0","3361","1","White_Screen.jpg","-2","165","Toy_Wooden rings.jpg","-2"
"091219","10:38:22","26","26","5.0.14.0","2","18","trial1","naming","0","0","0","0","breat milk bottle","0","7144","1","White_Screen.jpg","-1","173","PumpBreast.jpg","-1"
"091219","10:38:22","26","26","5.0.14.0","2","19","trial1","naming","0","0","0","0","nail file","0","2583","1","White_Screen.jpg","-2","119","NailFiles.jpg","-2"
"091219","10:38:22","26","26","5.0.14.0","2","20","trial1","naming","0","0","0","0","tea pot","0","2687","1","White_Screen.jpg","-1","99","Teapot.jpg","-1"
"091219","10:38:22","26","26","5.0.14.0","2","21","trial1","naming","0","0","0","0","nail polish","0","2890","1","White_Screen.jpg","-3","133","NailPolish.jpg","-3"
"091219","10:38:22","26","26","5.0.14.0","2","22","trial1","naming","0","0","0","0","crow bar","0","2605","1","White_Screen.jpg","-2","53","Crowbar.jpg","-2"
"091219","10:38:22","26","26","5.0.14.0","2","23","trial1","naming","0","0","0","0","clip","0","3804","1","White_Screen.jpg","-1","20","Clothespin_Red.jpg","-1"
"091219","10:38:22","26","26","5.0.14.0","2","24","trial1","naming","0","0","0","0","three","0","4033","1","White_Screen.jpg","-1","78","Magnet_Three.jpg","-1"
"091219","10:38:22","26","26","5.0.14.0","2","25","trial1","naming","0","0","0","0","ferry","0","3054","1","White_Screen.jpg","-1","102","Boat_Ferry.jpg","-1"
"091219","10:38:22","26","26","5.0.14.0","2","26","trial1","naming","0","0","0","0","wheel chair","0","4242","1","White_Screen.jpg","-1","7","MobilityScooter.jpg","-1"
"091219","10:38:22","26","26","5.0.14.0","2","27","trial1","naming","0","0","0","0","vga cord","0","6175","1","White_Screen.jpg","-1","121","VGAport.jpg","-1"
"091219","10:38:22","26","26","5.0.14.0","2","28","trial1","naming","0","0","0","0","paddle","0","1990","1","White_Screen.jpg","-4","88","Paddle_PingPong.jpg","-4"
"091219","10:38:22","26","26","5.0.14.0","2","29","trial1","naming","0","0","0","0","sphynx","0","2982","1","White_Screen.jpg","-5","151","Sphinx.jpg","-5"
"091219","10:38:22","26","26","5.0.14.0","2","30","trial1","naming","0","0","0","0","water fountain","0","3947","1","White_Screen.jpg","-1","153","DrinkingFountain.jpg","-1"
"091219","10:38:22","26","26","5.0.14.0","2","31","trial1","naming","0","0","0","0","construction","0","9930","1","White_Screen.jpg","-1","4","Tractor_Yellow.jpg","-1"
"091219","10:38:22","26","26","5.0.14.0","2","32","trial1","naming","0","0","0","0","water jug","0","9466","1","White_Screen.jpg","-1","43","WateringCan_Antique.jpg","-1"
"091219","10:38:22","26","26","5.0.14.0","2","33","trial1","naming","0","0","0","0","scroll","0","2277","1","White_Screen.jpg","-1","90","Scroll.jpg","-1"
"091219","10:38:22","26","26","5.0.14.0","2","34","trial1","naming","0","0","0","0","paper shredder","0","3168","1","White_Screen.jpg","-1","197","PaperShredder.jpg","-1"
"091219","10:38:22","26","26","5.0.14.0","2","35","trial1","naming","0","0","0","0","bow and arrow","0","3168","1","White_Screen.jpg","-1","196","Archery_ArrowsBows.jpg","-1"
"091219","10:38:22","26","26","5.0.14.0","2","36","trial1","naming","0","0","0","0","basket","0","1680","1","White_Screen.jpg","-1","124","Basket_Straw.jpg","-1"
"091219","10:38:22","26","26","5.0.14.0","2","37","trial1","naming","0","0","0","0","christmas tree","0","7827","1","White_Screen.jpg","-1","38","Tree_ChristmasMini.jpg","-1"
"091219","10:38:22","26","26","5.0.14.0","2","38","trial1","naming","0","0","0","0","bag of sand","0","3718","1","White_Screen.jpg","-1","186","Bag_PaperWithFlour.jpg","-1"
"091219","10:38:22","26","26","5.0.14.0","2","39","trial1","naming","0","0","0","0","cigars","0","3032","1","White_Screen.jpg","-1","171","CigarCase.jpg","-1"
"091219","10:38:22","26","26","5.0.14.0","2","40","trial1","naming","0","0","0","0","alarm panel","0","3909","1","White_Screen.jpg","-1","14","AlarmSystem.jpg","-1"
"091219","10:38:22","26","26","5.0.14.0","2","41","trial1","naming","0","0","0","0","stov","0","1833","1","White_Screen.jpg","-5","52","Oven.jpg","-5"
"091219","10:38:22","26","26","5.0.14.0","2","42","trial1","naming","0","0","0","0","inspection mirror","0","5459","1","White_Screen.jpg","-1","86","Mirror_Dental.jpg","-1"
"091219","10:38:22","26","26","5.0.14.0","2","43","trial1","naming","0","0","0","0","tools for stitches","0","8703","1","White_Screen.jpg","-1","128","Tray_Medical.jpg","-1"
"091219","10:38:22","26","26","5.0.14.0","2","44","trial1","naming","0","0","0","0","crime scene tape","0","6489","1","White_Screen.jpg","-2","155","PoliceTape.jpg","-2"
"091219","10:38:22","26","26","5.0.14.0","2","45","trial1","naming","0","0","0","0","kabobs","0","3785","1","White_Screen.jpg","-1","172","Kebab_Meat.jpg","-1"
"091219","10:38:22","26","26","5.0.14.0","2","46","trial1","naming","0","0","0","0","burner","0","2627","1","White_Screen.jpg","-3","98","Stove_Propane.jpg","-3"
"091219","10:38:22","26","26","5.0.14.0","2","47","trial1","naming","0","0","0","0","china cabinet","0","7496","1","White_Screen.jpg","-5","36","Cabinet_Display.jpg","-5"
"091219","10:38:22","26","26","5.0.14.0","2","48","trial1","naming","0","0","0","0","bleacher","0","3367","1","White_Screen.jpg","-1","76","Bleachers.jpg","-1"
"091219","10:38:22","26","26","5.0.14.0","2","49","trial1","naming","0","0","0","0","umbrella","0","2575","1","White_Screen.jpg","-1","79","Umbrella_Retractable.jpg","-1"
"091219","10:38:22","26","26","5.0.14.0","2","50","trial1","naming","0","0","0","0","crab fish","0","6021","1","White_Screen.jpg","-2","50","HorseshoeCrab.jpg","-2"
"091219","10:38:22","26","26","5.0.14.0","2","52","trial1","naming","0","0","0","0","brush","0","2484","1","White_Screen.jpg","-2","44","Brush_Cleaning.jpg","-2"
"091219","10:38:22","26","26","5.0.14.0","2","53","trial1","naming","0","0","0","0","brush","0","1862","1","White_Screen.jpg","-1","54","Brush_Shaving.jpg","-1"
"091219","10:38:22","26","26","5.0.14.0","2","54","trial1","naming","0","0","0","0","pencil holder","0","4994","1","White_Screen.jpg","-1","65","PenHolder.jpg","-1"
"091219","10:38:22","26","26","5.0.14.0","2","55","trial1","naming","0","0","0","0","jug","0","2201","1","White_Screen.jpg","-2","82","Jug_GallonWhite.jpg","-2"
"091219","10:38:22","26","26","5.0.14.0","2","56","trial1","naming","0","0","0","0","waste bin","0","2942","1","White_Screen.jpg","-1","15","Cup_Bathroom.jpg","-1"
"091219","10:38:22","26","26","5.0.14.0","2","57","trial1","naming","0","0","0","0","kebob","0","3287","1","White_Screen.jpg","-1","168","Kebab_Vegetables.jpg","-1"
"091219","10:38:22","26","26","5.0.14.0","2","58","trial1","naming","0","0","0","0","flowers","0","2185","1","White_Screen.jpg","-2","63","Flowers_DryBouquet.jpg","-2"
"091219","10:38:22","26","26","5.0.14.0","2","59","trial1","naming","0","0","0","0","gutter","0","2080","1","White_Screen.jpg","-1","112","GutterAndDrainPipe.jpg","-1"
"091219","10:38:22","26","26","5.0.14.0","2","60","trial1","naming","0","0","0","0","panda","0","1627","1","White_Screen.jpg","-1","22","Panda.jpg","-1"
"091219","10:38:22","26","26","5.0.14.0","2","61","trial1","naming","0","0","0","0","molecule ","0","10000","1","White_Screen.jpg","-1","41","Toy_ModelMolecule.jpg","-1"
"091219","10:38:22","26","26","5.0.14.0","2","62","trial1","naming","0","0","0","0","jumper cables","0","3823","1","White_Screen.jpg","-5","81","Cable_JumpStart.jpg","-5"
"091219","10:38:22","26","26","5.0.14.0","2","63","trial1","naming","0","0","0","0","hockey stick","0","2882","1","White_Screen.jpg","-1","193","Stick_IceHockey.jpg","-1"
"091219","10:38:22","26","26","5.0.14.0","2","64","trial1","naming","0","0","0","0","crutches","0","2359","1","White_Screen.jpg","-1","182","Crutches.jpg","-1"
"091219","10:38:22","26","26","5.0.14.0","2","65","trial1","naming","0","0","0","0","sword","0","3816","1","White_Screen.jpg","-5","30","Sword.jpg","-5"
"091219","10:38:22","26","26","5.0.14.0","2","66","trial1","naming","0","0","0","0","orange","0","2141","1","White_Screen.jpg","-3","200","Fruit_Orange.jpg","-3"
"091219","10:38:22","26","26","5.0.14.0","2","67","trial1","naming","0","0","0","0","deoderant","0","3190","1","White_Screen.jpg","-5","167","Deodorant.jpg","-5"
"091219","10:38:22","26","26","5.0.14.0","2","68","trial1","naming","0","0","0","0","hair clip","0","3438","1","White_Screen.jpg","-4","141","HairClip.jpg","-4"
"091219","10:38:22","26","26","5.0.14.0","2","69","trial1","naming","0","0","0","0","giraffe","0","1977","1","White_Screen.jpg","-1","24","Giraffe.jpg","-1"
"091219","10:38:22","26","26","5.0.14.0","2","70","trial1","naming","0","0","0","0","gazelle","0","4664","1","White_Screen.jpg","-1","184","Nyala.jpg","-1"
"091219","10:38:22","26","26","5.0.14.0","2","71","trial1","naming","0","0","0","0","mop","0","2819","1","White_Screen.jpg","-1","29","Mop.jpg","-1"
"091219","10:38:22","26","26","5.0.14.0","2","72","trial1","naming","0","0","0","0","present","0","1978","1","White_Screen.jpg","-1","122","Box_Present.jpg","-1"
"091219","10:38:22","26","26","5.0.14.0","2","73","trial1","naming","0","0","0","0","flash light","0","2432","1","White_Screen.jpg","-1","174","Flashlight.jpg","-1"
"091219","10:38:22","26","26","5.0.14.0","2","74","trial1","naming","0","0","0","0","canteen","0","2751","1","White_Screen.jpg","-1","46","Canteen.jpg","-1"
"091219","10:38:22","26","26","5.0.14.0","2","75","trial1","naming","0","0","0","0","pretzel","0","2806","1","White_Screen.jpg","-1","101","Pretzel_Knot.jpg","-1"
"091219","10:38:22","26","26","5.0.14.0","2","76","trial1","naming","0","0","0","0","tool box","0","3663","1","White_Screen.jpg","-3","85","Toolbox_Old.jpg","-3"
"091219","10:38:22","26","26","5.0.14.0","2","77","trial1","naming","0","0","0","0","drum sticks","0","2952","1","White_Screen.jpg","-1","142","Stick_Drum.jpg","-1"
"091219","10:38:22","26","26","5.0.14.0","2","78","trial1","naming","0","0","0","0","tank","0","1623","1","White_Screen.jpg","-1","67","Toy_Tank.jpg","-1"
"091219","10:38:22","26","26","5.0.14.0","2","79","trial1","naming","0","0","0","0","security lock","0","3832","1","White_Screen.jpg","-4","188","CodeDoorLock.jpg","-4"
"091219","10:38:22","26","26","5.0.14.0","2","80","trial1","naming","0","0","0","0","scalple","0","3258","1","White_Screen.jpg","-1","139","Scalpel.jpg","-1"
"091219","10:38:22","26","26","5.0.14.0","2","81","trial1","naming","0","0","0","0","oven shelf","0","5598","1","White_Screen.jpg","-1","5","GrillRack.jpg","-1"
"091219","10:38:22","26","26","5.0.14.0","2","82","trial1","naming","0","0","0","0","baster","0","2379","1","White_Screen.jpg","-1","18","Baster.jpg","-1"
"091219","10:38:22","26","26","5.0.14.0","2","83","trial1","naming","0","0","0","0","cell phone","0","2673","1","White_Screen.jpg","-1","163","Phone_Wireless.jpg","-1"
"091219","10:38:22","26","26","5.0.14.0","2","84","trial1","naming","0","0","0","0","fig","0","2607","1","White_Screen.jpg","-5","64","PassionFruit.jpg","-5"
"091219","10:38:22","26","26","5.0.14.0","2","85","trial1","naming","0","0","0","0","serving plater","0","4885","1","White_Screen.jpg","-3","57","Tray_Wooden.jpg","-3"
"091219","10:38:22","26","26","5.0.14.0","2","86","trial1","naming","0","0","0","0","slipper","0","2390","1","White_Screen.jpg","-1","175","Slippers.jpg","-1"
"091219","10:38:22","26","26","5.0.14.0","2","87","trial1","naming","0","0","0","0","pale","0","4534","1","White_Screen.jpg","-2","9","Bucket_Rusty.jpg","-2"
"091219","10:38:22","26","26","5.0.14.0","2","88","trial1","naming","0","0","0","0","shoe lace","0","2286","1","White_Screen.jpg","-1","21","ShoeLace_Flat.jpg","-1"
"091219","10:38:22","26","26","5.0.14.0","2","89","trial1","naming","0","0","0","0","armor","0","2097","1","White_Screen.jpg","-1","123","Helmet_Knight.jpg","-1"
"091219","10:38:22","26","26","5.0.14.0","2","90","trial1","naming","0","0","0","0","watermelon","0","3141","1","White_Screen.jpg","-1","31","WatermelonSlice.jpg","-1"
"091219","10:38:22","26","26","5.0.14.0","2","91","trial1","naming","0","0","0","0","air hockey","0","3687","1","White_Screen.jpg","-4","17","Gametable_AirHockey.jpg","-4"
"091219","10:38:22","26","26","5.0.14.0","2","92","trial1","naming","0","0","0","0","bag","0","1376","1","White_Screen.jpg","-1","56","Bag_Gift.jpg","-1"
"091219","10:38:22","26","26","5.0.14.0","2","93","trial1","naming","0","0","0","0","dragonfly","0","3944","1","White_Screen.jpg","-1","94","Dragonfly.jpg","-1"
"091219","10:38:22","26","26","5.0.14.0","2","94","trial1","naming","0","0","0","0","dog house","0","2232","1","White_Screen.jpg","-1","107","DogHouse.jpg","-1"
"091219","10:38:22","26","26","5.0.14.0","2","95","trial1","naming","0","0","0","0","book","0","1734","1","White_Screen.jpg","-1","45","Book_Leather.jpg","-1"
"091219","10:38:22","26","26","5.0.14.0","2","96","trial1","naming","0","0","0","0","card","0","3975","1","White_Screen.jpg","-1","120","Card_TwoSpade.jpg","-1"
"091219","10:38:22","26","26","5.0.14.0","2","97","trial1","naming","0","0","0","0","sled","0","2800","1","White_Screen.jpg","-5","140","Sled.jpg","-5"
"091219","10:38:22","26","26","5.0.14.0","2","98","trial1","naming","0","0","0","0","coral","0","1996","1","White_Screen.jpg","-1","166","Coral.jpg","-1"
"091219","10:38:22","26","26","5.0.14.0","2","99","trial1","naming","0","0","0","0","puzzle","0","2292","1","White_Screen.jpg","-1","97","Puzzle_Animal.jpg","-1"
"091219","10:38:22","26","26","5.0.14.0","2","100","trial1","naming","0","0","0","0","saw","0","1528","1","White_Screen.jpg","-5","161","Saw.jpg","-5"
"091219","10:38:22","26","26","5.0.14.0","2","101","trial1","naming","0","0","0","0","gold","0","1816","1","White_Screen.jpg","-1","156","GoldNugget.jpg","-1"
"091219","10:38:22","26","26","5.0.14.0","2","103","trial1","naming","0","0","0","0","hair net","0","5810","1","White_Screen.jpg","-2","114","ShowerCap.jpg","-2"
"091219","10:38:22","26","26","5.0.14.0","2","104","trial1","naming","0","0","0","0","sand castle","0","4086","1","White_Screen.jpg","-1","37","Castle_Sand.jpg","-1"
"091219","10:38:22","26","26","5.0.14.0","2","105","trial1","naming","0","0","0","0","caterpillar","0","3352","1","White_Screen.jpg","-1","42","Caterpillar.jpg","-1"
"091219","10:38:22","26","26","5.0.14.0","2","106","trial1","naming","0","0","0","0","gameboy","0","2273","1","White_Screen.jpg","-1","159","Gameboy.jpg","-1"
"091219","10:38:22","26","26","5.0.14.0","2","107","trial1","naming","0","0","0","0","turkey","0","2510","1","White_Screen.jpg","-5","87","TurkeyDinner.jpg","-5"
"091219","10:38:22","26","26","5.0.14.0","2","108","trial1","naming","0","0","0","0","screw","0","1679","1","White_Screen.jpg","-1","83","Screw.jpg","-1"
"091219","10:38:22","26","26","5.0.14.0","2","109","trial1","naming","0","0","0","0","zamboni","0","3770","1","White_Screen.jpg","-1","148","StreetSweeper.jpg","-1"
"091219","10:38:22","26","26","5.0.14.0","2","110","trial1","naming","0","0","0","0","crib","0","1946","1","White_Screen.jpg","-4","150","Crib_Standard.jpg","-4"
"091219","10:38:22","26","26","5.0.14.0","2","111","trial1","naming","0","0","0","0","contact","0","2738","1","White_Screen.jpg","-1","10","ContactLens.jpg","-1"
"091219","10:38:22","26","26","5.0.14.0","2","112","trial1","naming","0","0","0","0","rollercoaster","0","3405","1","White_Screen.jpg","-3","134","RollerCoaster.jpg","-3"
"091219","10:38:22","26","26","5.0.14.0","2","113","trial1","naming","0","0","0","0","domino","0","1866","1","White_Screen.jpg","-1","73","Domino.jpg","-1"
"091219","10:38:22","26","26","5.0.14.0","2","114","trial1","naming","0","0","0","0","hay","0","1349","1","White_Screen.jpg","-1","25","Hay.jpg","-1"
"091219","10:38:22","26","26","5.0.14.0","2","115","trial1","naming","0","0","0","0","ladybug","0","3191","1","White_Screen.jpg","-1","49","Toy_Ladybug.jpg","-1"
"091219","10:38:22","26","26","5.0.14.0","2","116","trial1","naming","0","0","0","0","goat","0","1975","1","White_Screen.jpg","-4","6","Goat.jpg","-4"
"091219","10:38:22","26","26","5.0.14.0","2","117","trial1","naming","0","0","0","0","clam","0","1496","1","White_Screen.jpg","-5","181","Clam.jpg","-5"
"091219","10:38:22","26","26","5.0.14.0","2","118","trial1","naming","0","0","0","0","lock","0","1569","1","White_Screen.jpg","-1","70","Lock_Key.jpg","-1"
"091219","10:38:22","26","26","5.0.14.0","2","119","trial1","naming","0","0","0","0","tie","0","1169","1","White_Screen.jpg","-1","103","Tie.jpg","-1"
"091219","10:38:22","26","26","5.0.14.0","2","120","trial1","naming","0","0","0","0","cpap","0","5257","1","White_Screen.jpg","-1","28","Mask_CPR.jpg","-1"
"091219","10:38:22","26","26","5.0.14.0","2","121","trial1","naming","0","0","0","0","paint bucket","0","6047","1","White_Screen.jpg","-3","194","PaintCan.jpg","-3"
"091219","10:38:22","26","26","5.0.14.0","2","122","trial1","naming","0","0","0","0","sign","0","1727","1","White_Screen.jpg","-1","170","Sign_TrafficArrow.jpg","-1"
"091219","10:38:22","26","26","5.0.14.0","2","123","trial1","naming","0","0","0","0","linguini","0","5657","1","White_Screen.jpg","-1","185","Pasta_Fettuccine.jpg","-1"
"091219","10:38:22","26","26","5.0.14.0","2","124","trial1","naming","0","0","0","0","wreath","0","2095","1","White_Screen.jpg","1","187","Wreath.jpg","1"
"091219","10:38:22","26","26","5.0.14.0","2","125","trial1","naming","0","0","0","0","can opener","0","2848","1","White_Screen.jpg","-5","192","CanOpener.jpg","-5"
"091219","10:38:22","26","26","5.0.14.0","2","126","trial1","naming","0","0","0","0","knight","0","4171","1","White_Screen.jpg","-1","95","ChessPiece_Knight.jpg","-1"
"091219","10:38:22","26","26","5.0.14.0","2","127","trial1","naming","0","0","0","0","gum","0","1620","1","White_Screen.jpg","-2","178","ChewingGum.jpg","-2"
"091219","10:38:22","26","26","5.0.14.0","2","128","trial1","naming","0","0","0","0","sail boat","0","2290","1","White_Screen.jpg","-3","179","Boat_Sail.jpg","-3"
"091219","10:38:22","26","26","5.0.14.0","2","129","trial1","naming","0","0","0","0","brush","0","2646","1","White_Screen.jpg","-5","145","Brush_BathBack.jpg","-5"
"091219","10:38:22","26","26","5.0.14.0","2","130","trial1","naming","0","0","0","0","bowl","0","5337","1","White_Screen.jpg","-1","27","SoapDish.jpg","-1"
"091219","10:38:22","26","26","5.0.14.0","2","131","trial1","naming","0","0","0","0","butter dish","0","5002","1","White_Screen.jpg","-1","164","ButterDish.jpg","-1"
"091219","10:38:22","26","26","5.0.14.0","2","132","trial1","naming","0","0","0","0","cigar cutter","0","3383","1","White_Screen.jpg","-1","96","CigarCutter.jpg","-1"
"091219","10:38:22","26","26","5.0.14.0","2","133","trial1","naming","0","0","0","0","bag pipe","0","3360","1","White_Screen.jpg","-1","146","Bagpipes.jpg","-1"
"091219","10:38:22","26","26","5.0.14.0","2","134","trial1","naming","0","0","0","0","elbow pasta","0","4783","1","White_Screen.jpg","-1","143","Pasta_Macaroni.jpg","-1"
"091219","10:38:22","26","26","5.0.14.0","2","135","trial1","naming","0","0","0","0","mascara","0","2957","1","White_Screen.jpg","-1","160","Makeup_Mascara.jpg","-1"
"091219","10:38:22","26","26","5.0.14.0","2","136","trial1","naming","0","0","0","0","dress","0","1918","1","White_Screen.jpg","-5","113","Dress_Party.jpg","-5"
"091219","10:38:22","26","26","5.0.14.0","2","137","trial1","naming","0","0","0","0","clippers","0","2039","1","White_Screen.jpg","-1","106","HairClipper.jpg","-1"
"091219","10:38:22","26","26","5.0.14.0","2","138","trial1","naming","0","0","0","0","gloves","0","1757","1","White_Screen.jpg","-2","68","Gloves_WhiteKnit.jpg","-2"
"091219","10:38:22","26","26","5.0.14.0","2","139","trial1","naming","0","0","0","0","cat litter scooper","0","5087","1","White_Screen.jpg","-5","154","LitterScoop.jpg","-5"
"091219","10:38:22","26","26","5.0.14.0","2","140","trial1","naming","0","0","0","0","paddle","0","2080","1","White_Screen.jpg","-1","12","Paddle_Beach.jpg","-1"
"091219","10:38:22","26","26","5.0.14.0","2","141","trial1","naming","0","0","0","0","tiger","0","3076","1","White_Screen.jpg","-1","195","TigerWhite.jpg","-1"
"091219","10:38:22","26","26","5.0.14.0","2","142","trial1","naming","0","0","0","0","toy","0","1918","1","White_Screen.jpg","-1","3","Toy_TrailerAirport.jpg","-1"
"091219","10:38:22","26","26","5.0.14.0","2","143","trial1","naming","0","0","0","0","divider","0","4273","1","White_Screen.jpg","-2","135","FileDivider.jpg","-2"
"091219","10:38:22","26","26","5.0.14.0","2","144","trial1","naming","0","0","0","0","mail box","0","2900","1","White_Screen.jpg","-2","110","Mailbox_Antique.jpg","-2"
"091219","10:38:22","26","26","5.0.14.0","2","145","trial1","naming","0","0","0","0","spatuler","0","5053","1","White_Screen.jpg","-1","92","Spatula.jpg","-1"
"091219","10:38:22","26","26","5.0.14.0","2","146","trial1","naming","0","0","0","0","weights","0","2842","1","White_Screen.jpg","-3","58","Weights_Dumbells.jpg","-3"
"091219","10:38:22","26","26","5.0.14.0","2","147","trial1","naming","0","0","0","0","cane","0","1853","1","White_Screen.jpg","-1","129","Cane_Metal.jpg","-1"
"091219","10:38:22","26","26","5.0.14.0","2","148","trial1","naming","0","0","0","0","bottle","0","4338","1","White_Screen.jpg","-3","16","Jug_Wicker.jpg","-3"
"091219","10:38:22","26","26","5.0.14.0","2","149","trial1","naming","0","0","0","0","mat","0","1810","1","White_Screen.jpg","-1","131","Mat_Bamboo.jpg","-1"
"091219","10:38:22","26","26","5.0.14.0","2","150","trial1","naming","0","0","0","0","burner","0","2208","1","White_Screen.jpg","-1","147","Stove_Camping.jpg","-1"
"091219","10:38:22","26","26","5.0.14.0","2","151","trial1","naming","0","0","0","0","light switch","0","2623","1","White_Screen.jpg","-1","130","Switch_LightWhite.jpg","-1"
"091219","10:38:22","26","26","5.0.14.0","2","152","trial1","naming","0","0","0","0","candle stick","0","3061","1","White_Screen.jpg","-3","23","Candleholder_Tall.jpg","-3"
"091219","10:38:22","26","26","5.0.14.0","2","154","trial1","naming","0","0","0","0","paint roller","0","2948","1","White_Screen.jpg","-3","116","PaintRollTray.jpg","-3"
"091219","10:38:22","26","26","5.0.14.0","2","155","trial1","naming","0","0","0","0","bean bag","0","3452","1","White_Screen.jpg","-1","177","Yarmulke.jpg","-1"
"091219","10:38:22","26","26","5.0.14.0","2","156","trial1","naming","0","0","0","0","ribbon","0","3576","1","White_Screen.jpg","-1","111","RibbonSpool.jpg","-1"
"091219","10:38:22","26","26","5.0.14.0","2","157","trial1","naming","0","0","0","0","floss","0","3782","1","White_Screen.jpg","-1","136","DentalFloss.jpg","-1"
"091219","10:38:22","26","26","5.0.14.0","2","158","trial1","naming","0","0","0","0","dresser","0","2390","1","White_Screen.jpg","-1","108","Dresser.jpg","-1"
"091219","10:38:22","26","26","5.0.14.0","2","159","trial1","naming","0","0","0","0","motorcycle toy","0","3638","1","White_Screen.jpg","-4","176","Toy_Motorcycle.jpg","-4"
"091219","10:38:22","26","26","5.0.14.0","2","160","trial1","naming","0","0","0","0","policie badge","0","4362","1","White_Screen.jpg","-1","152","BadgeSpecialAgent.jpg","-1"
"091219","10:38:22","26","26","5.0.14.0","2","161","trial1","naming","0","0","0","0","knee brace","0","3770","1","White_Screen.jpg","0","89","Brace_Leg.jpg","0"
"091219","10:38:22","26","26","5.0.14.0","2","162","trial1","naming","0","0","0","0","centrifuge","0","4824","1","White_Screen.jpg","-1","13","Centrifuge.jpg","-1"
"091219","10:38:22","26","26","5.0.14.0","2","163","trial1","naming","0","0","0","0","stool","0","1903","1","White_Screen.jpg","-5","66","Stool_Wood.jpg","-5"
"091219","10:38:22","26","26","5.0.14.0","2","164","trial1","naming","0","0","0","0","seat","0","3423","1","White_Screen.jpg","-1","191","Table_Magazine.jpg","-1"
"091219","10:38:22","26","26","5.0.14.0","2","165","trial1","naming","0","0","0","0","sphere","0","2696","1","White_Screen.jpg","-5","169","Glass_Ball.jpg","-5"
"091219","10:38:22","26","26","5.0.14.0","2","166","trial1","naming","0","0","0","0","key","0","3559","1","White_Screen.jpg","-1","127","ComputerKeyboard_F1.jpg","-1"
"091219","10:38:22","26","26","5.0.14.0","2","167","trial1","naming","0","0","0","0","pen holder","0","3705","1","White_Screen.jpg","-2","149","PenStand.jpg","-2"
"091219","10:38:22","26","26","5.0.14.0","2","168","trial1","naming","0","0","0","0","asparagus","0","2587","1","White_Screen.jpg","-1","105","Asparagus.jpg","-1"
"091219","10:38:22","26","26","5.0.14.0","2","169","trial1","naming","0","0","0","0","shoe","0","1479","1","White_Screen.jpg","-1","34","Shoe_Highheel.jpg","-1"
"091219","10:38:22","26","26","5.0.14.0","2","170","trial1","naming","0","0","0","0","ear ring","0","2419","1","White_Screen.jpg","-1","138","Earring_Hoop.jpg","-1"
"091219","10:38:22","26","26","5.0.14.0","2","171","trial1","naming","0","0","0","0","washer","0","2123","1","White_Screen.jpg","-5","48","WashingMachine.jpg","-5"
"091219","10:38:22","26","26","5.0.14.0","2","172","trial1","naming","0","0","0","0","hoverboard","0","3477","1","White_Screen.jpg","-3","69","Hoverboard.jpg","-3"
"091219","10:38:22","26","26","5.0.14.0","2","173","trial1","naming","0","0","0","0","water spigot","0","2750","1","White_Screen.jpg","-1","100","Faucet.jpg","-1"
"091219","10:38:22","26","26","5.0.14.0","2","174","trial1","naming","0","0","0","0","clock","0","1831","1","White_Screen.jpg","-1","32","Clock_Grandfather.jpg","-1"
"091219","10:38:22","26","26","5.0.14.0","2","175","trial1","naming","0","0","0","0","box","0","2181","1","White_Screen.jpg","-1","93","Box_Floral.jpg","-1"
"091219","10:38:22","26","26","5.0.14.0","2","176","trial1","naming","0","0","0","0","box cutter","0","4964","1","White_Screen.jpg","-1","132","Boxcutter.jpg","-1"
"091219","10:38:22","26","26","5.0.14.0","2","177","trial1","naming","0","0","0","0","chicken","0","1948","1","White_Screen.jpg","-2","84","Bird_Hen.jpg","-2"
"091219","10:38:22","26","26","5.0.14.0","2","178","trial1","naming","0","0","0","0","shorts","0","1973","1","White_Screen.jpg","-2","80","Shorts_Plaid.jpg","-2"
"091219","10:38:22","26","26","5.0.14.0","2","179","trial1","naming","0","0","0","0","birthday cake","0","3454","1","White_Screen.jpg","-5","11","Cake_Birthday.jpg","-5"
"091219","10:38:22","26","26","5.0.14.0","2","180","trial1","naming","0","0","0","0","bag","0","2746","1","White_Screen.jpg","-3","126","Makeup_Bag.jpg","-3"
"091219","10:38:22","26","26","5.0.14.0","2","181","trial1","naming","0","0","0","0","dinosaur","0","2778","1","White_Screen.jpg","-1","125","Toy_DinosaurBrontosaurus.jpg","-1"
"091219","10:38:22","26","26","5.0.14.0","2","182","trial1","naming","0","0","0","0","clam shell","0","2728","1","White_Screen.jpg","-1","157","Seashell_AlternateTellin.jpg","-1"
"091219","10:38:22","26","26","5.0.14.0","2","183","trial1","naming","0","0","0","0","fire truck","0","3202","1","White_Screen.jpg","-1","180","Toy_Firetruck.jpg","-1"
"091219","10:38:22","26","26","5.0.14.0","2","184","trial1","naming","0","0","0","0","jean jacket","0","2616","1","White_Screen.jpg","-1","144","Jacket_Jean.jpg","-1"
"091219","10:38:22","26","26","5.0.14.0","2","185","trial1","naming","0","0","0","0","alarm clock","0","2990","1","White_Screen.jpg","-1","117","Clock_Radioalarm.jpg","-1"
"091219","10:38:22","26","26","5.0.14.0","2","186","trial1","naming","0","0","0","0","hard hat","0","2046","1","White_Screen.jpg","-5","51","Helmet_Construction.jpg","-5"
"091219","10:38:22","26","26","5.0.14.0","2","187","trial1","naming","0","0","0","0","jack in the box","0","3315","1","White_Screen.jpg","-1","60","Toy_JackInTheBox.jpg","-1"
"091219","10:38:22","26","26","5.0.14.0","2","188","trial1","naming","0","0","0","0","basketball","0","2508","1","White_Screen.jpg","-1","104","Ball_Basketball.jpg","-1"
"091219","10:38:22","26","26","5.0.14.0","2","189","trial1","naming","0","0","0","0","phone","0","2320","1","White_Screen.jpg","-2","1","Telephone_DialAntique.jpg","-2"
"091219","10:38:22","26","26","5.0.14.0","2","190","trial1","naming","0","0","0","0","milk bucket","0","6577","1","White_Screen.jpg","-2","61","MilkJug.jpg","-2"
"091219","10:38:22","26","26","5.0.14.0","2","191","trial1","naming","0","0","0","0","dress","0","1663","1","White_Screen.jpg","-1","118","Dress_Blue.jpg","-1"
"091219","10:38:22","26","26","5.0.14.0","2","192","trial1","naming","0","0","0","0","doll","0","2203","1","White_Screen.jpg","-1","35","Doll_Rag.jpg","-1"
"091219","10:38:22","26","26","5.0.14.0","2","193","trial1","naming","0","0","0","0","socks","0","2514","1","White_Screen.jpg","-2","74","Socks_Baby.jpg","-2"
"091219","10:38:22","26","26","5.0.14.0","2","194","trial1","naming","0","0","0","0","shuttle","0","2411","1","White_Screen.jpg","-1","198","SpaceShuttle.jpg","-1"
"091219","10:38:22","26","26","5.0.14.0","2","195","trial1","naming","0","0","0","0","gate","0","3065","1","White_Screen.jpg","-1","77","GatedEntrance.jpg","-1"
"091219","10:38:22","26","26","5.0.14.0","2","196","trial1","naming","0","0","0","0","Enter Name","0","2389","1","White_Screen.jpg","-1","137","White_Screen.jpg","-1"
"091219","10:38:22","26","26","5.0.14.0","2","197","trial1","naming","0","0","0","0","cupboard","0","6077","1","White_Screen.jpg","-3","158","Cabinet_Office.jpg","-3"
"091219","10:38:22","26","26","5.0.14.0","2","198","trial1","naming","0","0","0","0","medicine","0","4231","1","White_Screen.jpg","-1","91","PillBottle_Closed.jpg","-1"
"091219","10:38:22","26","26","5.0.14.0","2","199","trial1","naming","0","0","0","0","gas mask","0","2307","1","White_Screen.jpg","-1","189","Mask_Gas.jpg","-1"
"091219","10:38:22","26","26","5.0.14.0","2","200","trial1","naming","0","0","0","0","paper","0","1846","1","White_Screen.jpg","-3","75","PaperStack.jpg","-3"
"091219","10:38:22","26","26","5.0.14.0","2","201","trial1","naming","0","0","0","0","desk","0","3562","1","White_Screen.jpg","-1","183","Toy_DollOffice.jpg","-1"
"091219","10:38:22","26","26","5.0.14.0","2","202","trial1","naming","0","0","0","0","reflex tool","0","3777","1","White_Screen.jpg","-1","33","Hammer_Reflex.jpg","-1"
"091219","10:38:22","26","26","5.0.14.0","2","203","trial1","naming","0","0","0","0","toy chest","0","3367","1","White_Screen.jpg","-1","115","Chest_Toys.jpg","-1"
"091219","10:38:22","26","26","5.0.14.0","3","1","demographics_block","gender","0","0","0","0","Male","1","25541","0","0","0","0","0","0"
"091219","10:38:22","26","26","5.0.14.0","3","1","demographics_block","age","0","0","0","0","37","1","25541","0","0","0","0","0","0"
"091219","10:38:22","26","26","5.0.14.0","3","1","demographics_block","education","0","0","0","0","16 ","1","25541","0","0","0","0","0","0"
"091219","10:38:22","26","26","5.0.14.0","3","2","demographics_block","left_right_handed","0","0","0","0","Left","1","7463","0","0","0","0","0","0"
"091219","10:38:22","26","26","5.0.14.0","3","2","demographics_block","raceoption1","0","0","0","0","0","1","7463","0","0","0","0","0","0"
"091219","10:38:22","26","26","5.0.14.0","3","2","demographics_block","raceoption2","0","0","0","0","","1","7463","0","0","0","0","0","0"
"091219","10:38:22","26","26","5.0.14.0","3","2","demographics_block","raceoption3","0","0","0","0","","1","7463","0","0","0","0","0","0"
"091219","10:38:22","26","26","5.0.14.0","3","2","demographics_block","raceoption4","0","0","0","0","","1","7463","0","0","0","0","0","0"
"091219","10:38:22","26","26","5.0.14.0","3","2","demographics_block","raceoption5","0","0","0","0","","1","7463","0","0","0","0","0","0"
"091219","10:38:22","26","26","5.0.14.0","3","2","demographics_block","raceoption6","0","0","0","0","","1","7463","0","0","0","0","0","0"
"091219","10:38:22","26","26","5.0.14.0","3","2","demographics_block","raceoption7","0","0","0","0","","1","7463","0","0","0","0","0","0"
"091219","10:38:22","26","26","5.0.14.0","3","2","demographics_block","raceoption8","0","0","0","0","","1","7463","0","0","0","0","0","0"
"091219","10:38:22","26","26","5.0.14.0","3","2","demographics_block","raceoption9","0","0","0","0","","1","7463","0","0","0","0","0","0"
"091219","10:38:22","26","26","5.0.14.0","3","2","demographics_block","raceother","0","0","0","0","","1","7463","0","0","0","0","0","0"
"091219","10:38:22","26","26","5.0.14.0","3","2","demographics_block","raceother","0","0","0","0","","1","7463","0","0","0","0","0","0"
"091219","10:38:22","26","26","5.0.14.0","3","2","demographics_block","english_language","0","0","0","0","Yes","1","7463","0","0","0","0","0","0"
"091219","10:38:22","26","26","5.0.14.0","3","2","demographics_block","english_languageother","0","0","0","0","","1","7463","0","0","0","0","0","0"
"091219","10:38:22","26","26","5.0.14.0","3","3","demographics_block","eyesight","0","0","0","0","Yes","1","5359","0","0","0","0","0","0"
"091219","10:38:22","26","26","5.0.14.0","3","3","demographics_block","colorblind","0","0","0","0","No","1","5359","0","0","0","0","0","0"
"091219","10:38:22","26","26","5.0.14.0","4","1","worker_id_block","worker_id_textbox","0","0","0","0","A5ANYM95KLQ6Q","1","41289","0","0","0","0","0","0"
"date","time","group","subject","build","blocknum","trialnum","blockcode","trialcode","pretrialpause","posttrialpause","trialduration","trialtimeout","response","correct","latency","stimulusnumber1","stimulusitem1","stimulusonset1","stimulusnumber2","stimulusitem2","stimulusonset2"
"091219","13:35:40","25","25","5.0.14.0","2","1","trial1","naming","0","0","0","0","ear ring","0","10000","1","White_Screen.jpg","24","138","Earring_Hoop.jpg","24"
"091219","13:35:40","25","25","5.0.14.0","2","2","trial1","naming","0","0","0","0","toy box","0","5599","1","White_Screen.jpg","4","115","Chest_Toys.jpg","4"
"091219","13:35:40","25","25","5.0.14.0","2","3","trial1","naming","0","0","0","0","nail file","0","6818","1","White_Screen.jpg","3","119","NailFiles.jpg","3"
"091219","13:35:40","25","25","5.0.14.0","2","4","trial1","naming","0","0","0","0","stool","0","4336","1","White_Screen.jpg","3","66","Stool_Wood.jpg","3"
"091219","13:35:40","25","25","5.0.14.0","2","5","trial1","naming","0","0","0","0","bail of hay","0","5016","1","White_Screen.jpg","3","25","Hay.jpg","3"
"091219","13:35:40","25","25","5.0.14.0","2","6","trial1","naming","0","0","0","0","umbrella","0","4105","1","White_Screen.jpg","3","79","Umbrella_Retractable.jpg","3"
"091219","13:35:40","25","25","5.0.14.0","2","7","trial1","naming","0","0","0","0","cushion","0","7899","1","White_Screen.jpg","3","177","Yarmulke.jpg","3"
"091219","13:35:40","25","25","5.0.14.0","2","8","trial1","naming","0","0","0","0","scalpel","0","5645","1","White_Screen.jpg","3","139","Scalpel.jpg","3"
"091219","13:35:40","25","25","5.0.14.0","2","9","trial1","naming","0","0","0","0","dentist mirror","0","9339","1","White_Screen.jpg","2","86","Mirror_Dental.jpg","2"
"091219","13:35:40","25","25","5.0.14.0","2","10","trial1","naming","0","0","0","0","walking stick","0","7093","1","White_Screen.jpg","3","129","Cane_Metal.jpg","3"
"091219","13:35:40","25","25","5.0.14.0","2","11","trial1","naming","0","0","0","0","nail polish","0","9006","1","White_Screen.jpg","4","133","NailPolish.jpg","4"
"091219","13:35:40","25","25","5.0.14.0","2","12","trial1","naming","0","0","0","0","casket","0","4643","1","White_Screen.jpg","2","62","CasketOpen.jpg","2"
"091219","13:35:40","25","25","5.0.14.0","2","13","trial1","naming","0","0","0","0","ball","0","5749","1","White_Screen.jpg","3","169","Glass_Ball.jpg","3"
"091219","13:35:40","25","25","5.0.14.0","2","14","trial1","naming","0","0","0","0","turkey","0","4491","1","White_Screen.jpg","3","87","TurkeyDinner.jpg","3"
"091219","13:35:40","25","25","5.0.14.0","2","15","trial1","naming","0","0","0","0","jacket","0","4397","1","White_Screen.jpg","2","144","Jacket_Jean.jpg","2"
"091219","13:35:40","25","25","5.0.14.0","2","16","trial1","naming","0","0","0","0","slipper","0","5998","1","White_Screen.jpg","3","175","Slippers.jpg","3"
"091219","13:35:40","25","25","5.0.14.0","2","17","trial1","naming","0","0","0","0","macaroni","0","5389","1","White_Screen.jpg","3","143","Pasta_Macaroni.jpg","3"
"091219","13:35:40","25","25","5.0.14.0","2","18","trial1","naming","0","0","0","0","book","0","3918","1","White_Screen.jpg","4","45","Book_Leather.jpg","4"
"091219","13:35:40","25","25","5.0.14.0","2","19","trial1","naming","0","0","0","0","soap dish","0","5363","1","White_Screen.jpg","3","27","SoapDish.jpg","3"
"091219","13:35:40","25","25","5.0.14.0","2","20","trial1","naming","0","0","0","0","crib","0","4828","1","White_Screen.jpg","3","150","Crib_Standard.jpg","3"
"091219","13:35:40","25","25","5.0.14.0","2","21","trial1","naming","0","0","0","0","booties","0","4834","1","White_Screen.jpg","3","74","Socks_Baby.jpg","3"
"091219","13:35:40","25","25","5.0.14.0","2","22","trial1","naming","0","0","0","0","police tape","0","6056","1","White_Screen.jpg","3","155","PoliceTape.jpg","3"
"091219","13:35:40","25","25","5.0.14.0","2","23","trial1","naming","0","0","0","0","asparagus","0","4306","1","White_Screen.jpg","4","105","Asparagus.jpg","4"
"091219","13:35:40","25","25","5.0.14.0","2","24","trial1","naming","0","0","0","0","bucket","0","4987","1","White_Screen.jpg","3","9","Bucket_Rusty.jpg","3"
"091219","13:35:40","25","25","5.0.14.0","2","25","trial1","naming","0","0","0","0","shoe","0","3287","1","White_Screen.jpg","2","34","Shoe_Highheel.jpg","2"
"091219","13:35:40","25","25","5.0.14.0","2","26","trial1","naming","0","0","0","0","bouquet","0","5959","1","White_Screen.jpg","2","63","Flowers_DryBouquet.jpg","2"
"091219","13:35:40","25","25","5.0.14.0","2","27","trial1","naming","0","0","0","0","orange","0","4012","1","White_Screen.jpg","2","200","Fruit_Orange.jpg","2"
"091219","13:35:40","25","25","5.0.14.0","2","28","trial1","naming","0","0","0","0","sign post","0","4360","1","White_Screen.jpg","2","170","Sign_TrafficArrow.jpg","2"
"091219","13:35:40","25","25","5.0.14.0","2","29","trial1","naming","0","0","0","0","shred","0","10000","1","White_Screen.jpg","3","197","PaperShredder.jpg","3"
"091219","13:35:40","25","25","5.0.14.0","2","30","trial1","naming","0","0","0","0","faucet","0","5615","1","White_Screen.jpg","3","100","Faucet.jpg","3"
"091219","13:35:40","25","25","5.0.14.0","2","31","trial1","naming","0","0","0","0","tiger","0","4168","1","White_Screen.jpg","3","195","TigerWhite.jpg","3"
"091219","13:35:40","25","25","5.0.14.0","2","32","trial1","naming","0","0","0","0","tank","0","4217","1","White_Screen.jpg","3","67","Toy_Tank.jpg","3"
"091219","13:35:40","25","25","5.0.14.0","2","33","trial1","naming","0","0","0","0","grill","0","6940","1","White_Screen.jpg","4","147","Stove_Camping.jpg","4"
"091219","13:35:40","25","25","5.0.14.0","2","34","trial1","naming","0","0","0","0","jumper cables","0","8291","1","White_Screen.jpg","3","81","Cable_JumpStart.jpg","3"
"091219","13:35:40","25","25","5.0.14.0","2","35","trial1","naming","0","0","0","0","air hockey table","0","9770","1","White_Screen.jpg","3","17","Gametable_AirHockey.jpg","3"
"091219","13:35:40","25","25","5.0.14.0","2","36","trial1","naming","0","0","0","0","jack fruit","0","8183","1","White_Screen.jpg","3","64","PassionFruit.jpg","3"
"091219","13:35:40","25","25","5.0.14.0","2","37","trial1","naming","0","0","0","0","brush","0","7376","1","White_Screen.jpg","3","44","Brush_Cleaning.jpg","3"
"091219","13:35:40","25","25","5.0.14.0","2","38","trial1","naming","0","0","0","0","police badge","0","4876","1","White_Screen.jpg","3","152","BadgeSpecialAgent.jpg","3"
"091219","13:35:40","25","25","5.0.14.0","2","39","trial1","naming","0","0","0","0","panda","0","3460","1","White_Screen.jpg","3","22","Panda.jpg","3"
"091219","13:35:40","25","25","5.0.14.0","2","40","trial1","naming","0","0","0","0","ribbon","0","3696","1","White_Screen.jpg","4","111","RibbonSpool.jpg","4"
"091219","13:35:40","25","25","5.0.14.0","2","41","trial1","naming","0","0","0","0","oyster","0","7686","1","White_Screen.jpg","3","181","Clam.jpg","3"
"091219","13:35:40","25","25","5.0.14.0","2","42","trial1","naming","0","0","0","0","trucjk and hitch","0","10000","1","White_Screen.jpg","3","3","Toy_TrailerAirport.jpg","3"
"091219","13:35:40","25","25","5.0.14.0","2","43","trial1","naming","0","0","0","0","spatula","0","9871","1","White_Screen.jpg","3","92","Spatula.jpg","3"
"091219","13:35:40","25","25","5.0.14.0","2","44","trial1","naming","0","0","0","0","water bottle","0","5388","1","White_Screen.jpg","3","46","Canteen.jpg","3"
"091219","13:35:40","25","25","5.0.14.0","2","45","trial1","naming","0","0","0","0","watermellon","0","5261","1","White_Screen.jpg","4","31","WatermelonSlice.jpg","4"
"091219","13:35:40","25","25","5.0.14.0","2","46","trial1","naming","0","0","0","0","bowl","0","3304","1","White_Screen.jpg","3","10","ContactLens.jpg","3"
"091219","13:35:40","25","25","5.0.14.0","2","47","trial1","naming","0","0","0","0","tool box","0","4172","1","White_Screen.jpg","3","85","Toolbox_Old.jpg","3"
"091219","13:35:40","25","25","5.0.14.0","2","48","trial1","naming","0","0","0","0","toy","0","3930","1","White_Screen.jpg","3","49","Toy_Ladybug.jpg","3"
"091219","13:35:40","25","25","5.0.14.0","2","49","trial1","naming","0","0","0","0","truck","0","6730","1","White_Screen.jpg","3","4","Tractor_Yellow.jpg","3"
"091219","13:35:40","25","25","5.0.14.0","2","50","trial1","naming","0","0","0","0","cell phone","0","4090","1","White_Screen.jpg","3","163","Phone_Wireless.jpg","3"
"091219","13:35:40","25","25","5.0.14.0","2","52","trial1","naming","0","0","0","0","sled","0","3840","1","White_Screen.jpg","4","140","Sled.jpg","4"
"091219","13:35:40","25","25","5.0.14.0","2","53","trial1","naming","0","0","0","0","spine","0","3680","1","White_Screen.jpg","3","109","SpinalCord.jpg","3"
"091219","13:35:40","25","25","5.0.14.0","2","54","trial1","naming","0","0","0","0","flash light","0","4432","1","White_Screen.jpg","3","174","Flashlight.jpg","3"
"091219","13:35:40","25","25","5.0.14.0","2","55","trial1","naming","0","0","0","0","folder sp","0","10000","1","White_Screen.jpg","2","135","FileDivider.jpg","2"
"091219","13:35:40","25","25","5.0.14.0","2","56","trial1","naming","0","0","0","0","bleachers","0","4800","1","White_Screen.jpg","4","76","Bleachers.jpg","4"
"091219","13:35:40","25","25","5.0.14.0","2","57","trial1","naming","0","0","0","0","dream cathcer","0","9258","1","White_Screen.jpg","3","47","Dreamcatcher.jpg","3"
"091219","13:35:40","25","25","5.0.14.0","2","58","trial1","naming","0","0","0","0","hockey stick","0","5799","1","White_Screen.jpg","3","193","Stick_IceHockey.jpg","3"
"091219","13:35:40","25","25","5.0.14.0","2","59","trial1","naming","0","0","0","0","mil pail","0","5869","1","White_Screen.jpg","4","61","MilkJug.jpg","4"
"091219","13:35:40","25","25","5.0.14.0","2","60","trial1","naming","0","0","0","0","camping burner","0","9783","1","White_Screen.jpg","3","98","Stove_Propane.jpg","3"
"091219","13:35:40","25","25","5.0.14.0","2","61","trial1","naming","0","0","0","0","exacto knife","0","7247","1","White_Screen.jpg","3","132","Boxcutter.jpg","3"
"091219","13:35:40","25","25","5.0.14.0","2","62","trial1","naming","0","0","0","0","padlock","0","4744","1","White_Screen.jpg","3","70","Lock_Key.jpg","3"
"091219","13:35:40","25","25","5.0.14.0","2","63","trial1","naming","0","0","0","0","car battery","0","4441","1","White_Screen.jpg","3","19","Battery_Car.jpg","3"
"091219","13:35:40","25","25","5.0.14.0","2","64","trial1","naming","0","0","0","0","wood box","0","5372","1","White_Screen.jpg","2","40","Box_WoodCrate.jpg","2"
"091219","13:35:40","25","25","5.0.14.0","2","65","trial1","naming","0","0","0","0","street cleaner","0","4896","1","White_Screen.jpg","3","148","StreetSweeper.jpg","3"
"091219","13:35:40","25","25","5.0.14.0","2","66","trial1","naming","0","0","0","0","sea plant","0","10000","1","White_Screen.jpg","3","166","Coral.jpg","3"
"091219","13:35:40","25","25","5.0.14.0","2","67","trial1","naming","0","0","0","0","hard hat","0","5390","1","White_Screen.jpg","3","51","Helmet_Construction.jpg","3"
"091219","13:35:40","25","25","5.0.14.0","2","68","trial1","naming","0","0","0","0","tea pot","0","4380","1","White_Screen.jpg","3","99","Teapot.jpg","3"
"091219","13:35:40","25","25","5.0.14.0","2","69","trial1","naming","0","0","0","0","bag of flour","0","4610","1","White_Screen.jpg","3","186","Bag_PaperWithFlour.jpg","3"
"091219","13:35:40","25","25","5.0.14.0","2","70","trial1","naming","0","0","0","0","fish","0","4087","1","White_Screen.jpg","3","50","HorseshoeCrab.jpg","3"
"091219","13:35:40","25","25","5.0.14.0","2","71","trial1","naming","0","0","0","0","wooden mat","0","7994","1","White_Screen.jpg","4","131","Mat_Bamboo.jpg","4"
"091219","13:35:40","25","25","5.0.14.0","2","72","trial1","naming","0","0","0","0","doll","0","3327","1","White_Screen.jpg","4","35","Doll_Rag.jpg","4"
"091219","13:35:40","25","25","5.0.14.0","2","73","trial1","naming","0","0","0","0","red truck","0","6131","1","White_Screen.jpg","3","180","Toy_Firetruck.jpg","3"
"091219","13:35:40","25","25","5.0.14.0","2","74","trial1","naming","0","0","0","0","grandfather clock","0","7445","1","White_Screen.jpg","3","32","Clock_Grandfather.jpg","3"
"091219","13:35:40","25","25","5.0.14.0","2","75","trial1","naming","0","0","0","0","draggon fly","0","5462","1","White_Screen.jpg","3","94","Dragonfly.jpg","3"
"091219","13:35:40","25","25","5.0.14.0","2","76","trial1","naming","0","0","0","0","weights","0","9471","1","White_Screen.jpg","3","58","Weights_Dumbells.jpg","3"
"091219","13:35:40","25","25","5.0.14.0","2","77","trial1","naming","0","0","0","0","hot water heater","0","8594","1","White_Screen.jpg","3","2","WaterHeater.jpg","3"
"091219","13:35:40","25","25","5.0.14.0","2","78","trial1","naming","0","0","0","0","ride","0","8792","1","White_Screen.jpg","3","134","RollerCoaster.jpg","3"
"091219","13:35:40","25","25","5.0.14.0","2","79","trial1","naming","0","0","0","0","birthdat cake","0","5763","1","White_Screen.jpg","3","11","Cake_Birthday.jpg","3"
"091219","13:35:40","25","25","5.0.14.0","2","80","trial1","naming","0","0","0","0","number 3 ","0","5014","1","White_Screen.jpg","4","78","Magnet_Three.jpg","4"
"091219","13:35:40","25","25","5.0.14.0","2","81","trial1","naming","0","0","0","0","gavel","0","6024","1","White_Screen.jpg","4","33","Hammer_Reflex.jpg","4"
"091219","13:35:40","25","25","5.0.14.0","2","82","trial1","naming","0","0","0","0","screw","0","3476","1","White_Screen.jpg","3","83","Screw.jpg","3"
"091219","13:35:40","25","25","5.0.14.0","2","83","trial1","naming","0","0","0","0","space rocket","0","6751","1","White_Screen.jpg","3","198","SpaceShuttle.jpg","3"
"091219","13:35:40","25","25","5.0.14.0","2","84","trial1","naming","0","0","0","0","baster","0","4316","1","White_Screen.jpg","3","18","Baster.jpg","3"
"091219","13:35:40","25","25","5.0.14.0","2","85","trial1","naming","0","0","0","0","spinning top","0","4305","1","White_Screen.jpg","3","199","Toy_Top.jpg","3"
"091219","13:35:40","25","25","5.0.14.0","2","86","trial1","naming","0","0","0","0","hand saw","0","3705","1","White_Screen.jpg","3","161","Saw.jpg","3"
"091219","13:35:40","25","25","5.0.14.0","2","87","trial1","naming","0","0","0","0","crutches","0","3667","1","White_Screen.jpg","3","182","Crutches.jpg","3"
"091219","13:35:40","25","25","5.0.14.0","2","88","trial1","naming","0","0","0","0","jack in the box","0","4798","1","White_Screen.jpg","3","60","Toy_JackInTheBox.jpg","3"
"091219","13:35:40","25","25","5.0.14.0","2","89","trial1","naming","0","0","0","0","pencils and holder","0","7568","1","White_Screen.jpg","3","65","PenHolder.jpg","3"
"091219","13:35:40","25","25","5.0.14.0","2","90","trial1","naming","0","0","0","0","cabinet","0","4818","1","White_Screen.jpg","4","36","Cabinet_Display.jpg","4"
"091219","13:35:40","25","25","5.0.14.0","2","91","trial1","naming","0","0","0","0","denal floss","0","4550","1","White_Screen.jpg","4","136","DentalFloss.jpg","4"
"091219","13:35:40","25","25","5.0.14.0","2","92","trial1","naming","0","0","0","0","mop","0","3990","1","White_Screen.jpg","3","29","Mop.jpg","3"
"091219","13:35:40","25","25","5.0.14.0","2","93","trial1","naming","0","0","0","0","game","0","3272","1","White_Screen.jpg","3","162","Boardgame_ChineseCheckers.jpg","3"
"091219","13:35:40","25","25","5.0.14.0","2","94","trial1","naming","0","0","0","0","toy","0","3900","1","White_Screen.jpg","3","165","Toy_Wooden rings.jpg","3"
"091219","13:35:40","25","25","5.0.14.0","2","95","trial1","naming","0","0","0","0","telephone","0","4443","1","White_Screen.jpg","3","1","Telephone_DialAntique.jpg","3"
"091219","13:35:40","25","25","5.0.14.0","2","96","trial1","naming","0","0","0","0","rack\","0","2993","1","White_Screen.jpg","3","5","GrillRack.jpg","3"
"091219","13:35:40","25","25","5.0.14.0","2","97","trial1","naming","0","0","0","0","mail box","0","6351","1","White_Screen.jpg","2","110","Mailbox_Antique.jpg","2"
"091219","13:35:40","25","25","5.0.14.0","2","98","trial1","naming","0","0","0","0","gum","0","3998","1","White_Screen.jpg","4","178","ChewingGum.jpg","4"
"091219","13:35:40","25","25","5.0.14.0","2","99","trial1","naming","0","0","0","0","hair net","0","8060","1","White_Screen.jpg","3","114","ShowerCap.jpg","3"
"091219","13:35:40","25","25","5.0.14.0","2","100","trial1","naming","0","0","0","0","cabinet","0","4881","1","White_Screen.jpg","3","158","Cabinet_Office.jpg","3"
"091219","13:35:40","25","25","5.0.14.0","2","101","trial1","naming","0","0","0","0","cullandar","0","7688","1","White_Screen.jpg","3","39","Colander.jpg","3"
"091219","13:35:40","25","25","5.0.14.0","2","103","trial1","naming","0","0","0","0","face mask","0","7265","1","White_Screen.jpg","3","28","Mask_CPR.jpg","3"
"091219","13:35:40","25","25","5.0.14.0","2","104","trial1","naming","0","0","0","0","licence plate","0","4375","1","White_Screen.jpg","3","190","LicensePlate.jpg","3"
"091219","13:35:40","25","25","5.0.14.0","2","105","trial1","naming","0","0","0","0","game boy","0","3051","1","White_Screen.jpg","3","159","Gameboy.jpg","3"
"091219","13:35:40","25","25","5.0.14.0","2","106","trial1","naming","0","0","0","0","cigar box","0","4294","1","White_Screen.jpg","3","171","CigarCase.jpg","3"
"091219","13:35:40","25","25","5.0.14.0","2","107","trial1","naming","0","0","0","0","game","0","6728","1","White_Screen.jpg","3","13","Centrifuge.jpg","3"
"091219","13:35:40","25","25","5.0.14.0","2","108","trial1","naming","0","0","0","0","stove","0","3006","1","White_Screen.jpg","3","52","Oven.jpg","3"
"091219","13:35:40","25","25","5.0.14.0","2","109","trial1","naming","0","0","0","0","dog house","0","3758","1","White_Screen.jpg","3","107","DogHouse.jpg","3"
"091219","13:35:40","25","25","5.0.14.0","2","110","trial1","naming","0","0","0","0","knights helmet","0","6103","1","White_Screen.jpg","3","123","Helmet_Knight.jpg","3"
"091219","13:35:40","25","25","5.0.14.0","2","111","trial1","naming","0","0","0","0","decorative christmas tr","0","9725","1","White_Screen.jpg","4","38","Tree_ChristmasMini.jpg","4"
"091219","13:35:40","25","25","5.0.14.0","2","112","trial1","naming","0","0","0","0","hover board","0","5021","1","White_Screen.jpg","3","69","Hoverboard.jpg","3"
"091219","13:35:40","25","25","5.0.14.0","2","113","trial1","naming","0","0","0","0","chess piece","0","6374","1","White_Screen.jpg","3","95","ChessPiece_Knight.jpg","3"
"091219","13:35:40","25","25","5.0.14.0","2","114","trial1","naming","0","0","0","0","motorcycle","0","4398","1","White_Screen.jpg","3","176","Toy_Motorcycle.jpg","3"
"091219","13:35:40","25","25","5.0.14.0","2","115","trial1","naming","0","0","0","0","shorts","0","3445","1","White_Screen.jpg","3","80","Shorts_Plaid.jpg","3"
"091219","13:35:40","25","25","5.0.14.0","2","116","trial1","naming","0","0","0","0","light switch","0","4006","1","White_Screen.jpg","3","130","Switch_LightWhite.jpg","3"
"091219","13:35:40","25","25","5.0.14.0","2","117","trial1","naming","0","0","0","0","wreath","0","2786","1","White_Screen.jpg","3","187","Wreath.jpg","3"
"091219","13:35:40","25","25","5.0.14.0","2","118","trial1","naming","0","0","0","0","barometer","0","4474","1","White_Screen.jpg","3","59","Barometer.jpg","3"
"091219","13:35:40","25","25","5.0.14.0","2","119","trial1","naming","0","0","0","0","cables","0","5130","1","White_Screen.jpg","3","121","VGAport.jpg","3"
"091219","13:35:40","25","25","5.0.14.0","2","120","trial1","naming","0","0","0","0","scooper","0","3246","1","White_Screen.jpg","2","154","LitterScoop.jpg","2"
"091219","13:35:40","25","25","5.0.14.0","2","121","trial1","naming","0","0","0","0","trash can","0","3723","1","White_Screen.jpg","3","15","Cup_Bathroom.jpg","3"
"091219","13:35:40","25","25","5.0.14.0","2","122","trial1","naming","0","0","0","0","files","0","3388","1","White_Screen.jpg","3","75","PaperStack.jpg","3"
"091219","13:35:40","25","25","5.0.14.0","2","123","trial1","naming","0","0","0","0","mascarra","0","3065","1","White_Screen.jpg","3","160","Makeup_Mascara.jpg","3"
"091219","13:35:40","25","25","5.0.14.0","2","124","trial1","naming","0","0","0","0","make up bag","0","5486","1","White_Screen.jpg","3","126","Makeup_Bag.jpg","3"
"091219","13:35:40","25","25","5.0.14.0","2","125","trial1","naming","0","0","0","0","hydrant","0","3366","1","White_Screen.jpg","3","72","FireHydrant.jpg","3"
"091219","13:35:40","25","25","5.0.14.0","2","126","trial1","naming","0","0","0","0","back scrubber","0","6063","1","White_Screen.jpg","4","145","Brush_BathBack.jpg","4"
"091219","13:35:40","25","25","5.0.14.0","2","127","trial1","naming","0","0","0","0","chello","0","4005","1","White_Screen.jpg","3","55","DoubleBass.jpg","3"
"091219","13:35:40","25","25","5.0.14.0","2","128","trial1","naming","0","0","0","0","gate","0","2424","1","White_Screen.jpg","4","77","GatedEntrance.jpg","4"
"091219","13:35:40","25","25","5.0.14.0","2","129","trial1","naming","0","0","0","0","gold","0","2661","1","White_Screen.jpg","3","156","GoldNugget.jpg","3"
"091219","13:35:40","25","25","5.0.14.0","2","130","trial1","naming","0","0","0","0","bottle","0","3400","1","White_Screen.jpg","3","82","Jug_GallonWhite.jpg","3"
"091219","13:35:40","25","25","5.0.14.0","2","131","trial1","naming","0","0","0","0","cigar cutter","0","5389","1","White_Screen.jpg","3","96","CigarCutter.jpg","3"
"091219","13:35:40","25","25","5.0.14.0","2","132","trial1","naming","0","0","0","0","boat","0","3117","1","White_Screen.jpg","3","179","Boat_Sail.jpg","3"
"091219","13:35:40","25","25","5.0.14.0","2","133","trial1","naming","0","0","0","0","no picture","0","5280","1","White_Screen.jpg","2","137","White_Screen.jpg","2"
"091219","13:35:40","25","25","5.0.14.0","2","134","trial1","naming","0","0","0","0","animal","0","6014","1","White_Screen.jpg","3","184","Nyala.jpg","3"
"091219","13:35:40","25","25","5.0.14.0","2","135","trial1","naming","0","0","0","0","hair clip","0","4060","1","White_Screen.jpg","3","141","HairClip.jpg","3"
"091219","13:35:40","25","25","5.0.14.0","2","136","trial1","naming","0","0","0","0","box","0","3232","1","White_Screen.jpg","3","93","Box_Floral.jpg","3"
"091219","13:35:40","25","25","5.0.14.0","2","137","trial1","naming","0","0","0","0","gloves","0","3502","1","White_Screen.jpg","3","68","Gloves_WhiteKnit.jpg","3"
"091219","13:35:40","25","25","5.0.14.0","2","138","trial1","naming","0","0","0","0","domino","0","3702","1","White_Screen.jpg","4","73","Domino.jpg","4"
"091219","13:35:40","25","25","5.0.14.0","2","139","trial1","naming","0","0","0","0","washing machine","0","4514","1","White_Screen.jpg","3","48","WashingMachine.jpg","3"
"091219","13:35:40","25","25","5.0.14.0","2","140","trial1","naming","0","0","0","0","candle stick","0","4695","1","White_Screen.jpg","3","23","Candleholder_Tall.jpg","3"
"091219","13:35:40","25","25","5.0.14.0","2","141","trial1","naming","0","0","0","0","pretc","0","10000","1","White_Screen.jpg","3","101","Pretzel_Knot.jpg","3"
"091219","13:35:40","25","25","5.0.14.0","2","142","trial1","naming","0","0","0","0","bag pipe","0","4585","1","White_Screen.jpg","3","146","Bagpipes.jpg","3"
"091219","13:35:40","25","25","5.0.14.0","2","143","trial1","naming","0","0","0","0","tray","0","2844","1","White_Screen.jpg","4","57","Tray_Wooden.jpg","4"
"091219","13:35:40","25","25","5.0.14.0","2","144","trial1","naming","0","0","0","0","clothes pin","0","5443","1","White_Screen.jpg","3","20","Clothespin_Red.jpg","3"
"091219","13:35:40","25","25","5.0.14.0","2","145","trial1","naming","0","0","0","0","tie","0","2504","1","White_Screen.jpg","3","103","Tie.jpg","3"
"091219","13:35:40","25","25","5.0.14.0","2","146","trial1","naming","0","0","0","0","bottle","0","4170","1","White_Screen.jpg","3","16","Jug_Wicker.jpg","3"
"091219","13:35:40","25","25","5.0.14.0","2","147","trial1","naming","0","0","0","0","deodorant","0","4766","1","White_Screen.jpg","3","167","Deodorant.jpg","3"
"091219","13:35:40","25","25","5.0.14.0","2","148","trial1","naming","0","0","0","0","door lock","0","5658","1","White_Screen.jpg","3","188","CodeDoorLock.jpg","3"
"091219","13:35:40","25","25","5.0.14.0","2","149","trial1","naming","0","0","0","0","stamp","0","3416","1","White_Screen.jpg","3","8","Stamp.jpg","3"
"091219","13:35:40","25","25","5.0.14.0","2","150","trial1","naming","0","0","0","0","pen","0","4723","1","White_Screen.jpg","4","149","PenStand.jpg","4"
"091219","13:35:40","25","25","5.0.14.0","2","151","trial1","naming","0","0","0","0","kebabs","0","5607","1","White_Screen.jpg","3","172","Kebab_Meat.jpg","3"
"091219","13:35:40","25","25","5.0.14.0","2","152","trial1","naming","0","0","0","0","file holder","0","3977","1","White_Screen.jpg","3","191","Table_Magazine.jpg","3"
"091219","13:35:40","25","25","5.0.14.0","2","154","trial1","naming","0","0","0","0","game","0","4504","1","White_Screen.jpg","4","41","Toy_ModelMolecule.jpg","4"
"091219","13:35:40","25","25","5.0.14.0","2","155","trial1","naming","0","0","0","0","f1 key","0","5454","1","White_Screen.jpg","3","127","ComputerKeyboard_F1.jpg","3"
"091219","13:35:40","25","25","5.0.14.0","2","156","trial1","naming","0","0","0","0","drum sticks","0","6162","1","White_Screen.jpg","3","142","Stick_Drum.jpg","3"
"091219","13:35:40","25","25","5.0.14.0","2","157","trial1","naming","0","0","0","0","gift box","0","3542","1","White_Screen.jpg","3","122","Box_Present.jpg","3"
"091219","13:35:40","25","25","5.0.14.0","2","158","trial1","naming","0","0","0","0","butter dish","0","5026","1","White_Screen.jpg","2","164","ButterDish.jpg","2"
"091219","13:35:40","25","25","5.0.14.0","2","159","trial1","naming","0","0","0","0","knee brace","0","4873","1","White_Screen.jpg","3","89","Brace_Leg.jpg","3"
"091219","13:35:40","25","25","5.0.14.0","2","160","trial1","naming","0","0","0","0","gas mask","0","3491","1","White_Screen.jpg","2","189","Mask_Gas.jpg","2"
"091219","13:35:40","25","25","5.0.14.0","2","161","trial1","naming","0","0","0","0","toy boat","0","3495","1","White_Screen.jpg","2","71","Toy_Boat.jpg","2"
"091219","13:35:40","25","25","5.0.14.0","2","162","trial1","naming","0","0","0","0","dresser","0","3384","1","White_Screen.jpg","2","108","Dresser.jpg","2"
"091219","13:35:40","25","25","5.0.14.0","2","163","trial1","naming","0","0","0","0","tire iron","0","7082","1","White_Screen.jpg","3","53","Crowbar.jpg","3"
"091219","13:35:40","25","25","5.0.14.0","2","164","trial1","naming","0","0","0","0","jigsaw","0","4262","1","White_Screen.jpg","3","97","Puzzle_Animal.jpg","3"
"091219","13:35:40","25","25","5.0.14.0","2","165","trial1","naming","0","0","0","0","shaving brush","0","7080","1","White_Screen.jpg","3","54","Brush_Shaving.jpg","3"
"091219","13:35:40","25","25","5.0.14.0","2","166","trial1","naming","0","0","0","0","toy desk","0","4849","1","White_Screen.jpg","3","183","Toy_DollOffice.jpg","3"
"091219","13:35:40","25","25","5.0.14.0","2","167","trial1","naming","0","0","0","0","paint can","0","3589","1","White_Screen.jpg","3","194","PaintCan.jpg","3"
"091219","13:35:40","25","25","5.0.14.0","2","168","trial1","naming","0","0","0","0","dinosaur","0","4644","1","White_Screen.jpg","3","125","Toy_DinosaurBrontosaurus.jpg","3"
"091219","13:35:40","25","25","5.0.14.0","2","169","trial1","naming","0","0","0","0","ferry","0","2892","1","White_Screen.jpg","3","102","Boat_Ferry.jpg","3"
"091219","13:35:40","25","25","5.0.14.0","2","170","trial1","naming","0","0","0","0","medicine","0","3614","1","White_Screen.jpg","3","91","PillBottle_Closed.jpg","3"
"091219","13:35:40","25","25","5.0.14.0","2","171","trial1","naming","0","0","0","0","kebab","0","3393","1","White_Screen.jpg","3","168","Kebab_Vegetables.jpg","3"
"091219","13:35:40","25","25","5.0.14.0","2","172","trial1","naming","0","0","0","0","sphinx","0","6302","1","White_Screen.jpg","3","151","Sphinx.jpg","3"
"091219","13:35:40","25","25","5.0.14.0","2","173","trial1","naming","0","0","0","0","basketball","0","4326","1","White_Screen.jpg","4","104","Ball_Basketball.jpg","4"
"091219","13:35:40","25","25","5.0.14.0","2","174","trial1","naming","0","0","0","0","water fountain","0","4867","1","White_Screen.jpg","3","153","DrinkingFountain.jpg","3"
"091219","13:35:40","25","25","5.0.14.0","2","175","trial1","naming","0","0","0","0","bow and arrows","0","5565","1","White_Screen.jpg","4","196","Archery_ArrowsBows.jpg","4"
"091219","13:35:40","25","25","5.0.14.0","2","176","trial1","naming","0","0","0","0","goat","0","2299","1","White_Screen.jpg","3","6","Goat.jpg","3"
"091219","13:35:40","25","25","5.0.14.0","2","177","trial1","naming","0","0","0","0","thermostat","0","6237","1","White_Screen.jpg","3","14","AlarmSystem.jpg","3"
