"date","time","group","subject","build","blocknum","trialnum","blockcode","trialcode","pretrialpause","posttrialpause","trialduration","trialtimeout","response","correct","latency","stimulusnumber1","stimulusitem1","stimulusonset1","stimulusnumber2","stimulusitem2","stimulusonset2"
"050819","13:56:45","70010855","A5B73N9C2HVEG","5.0.14.0","2","1","trial1","naming","0","0","0","0","T","0","10000","1","White_Screen.jpg","107","55","Jar_Canopic.jpg","107"
"050819","13:56:45","70010855","A5B73N9C2HVEG","5.0.14.0","2","2","trial1","naming","0","0","0","0","QTIP","0","8079","1","White_Screen.jpg","14","105","Qtip_Multiple.jpg","14"
"050819","13:56:45","70010855","A5B73N9C2HVEG","5.0.14.0","2","3","trial1","naming","0","0","0","0","Enter NameOTTER","0","5769","1","White_Screen.jpg","12","200","Ferret.jpg","12"
"050819","13:56:45","70010855","A5B73N9C2HVEG","5.0.14.0","2","4","trial1","naming","0","0","0","0","NOTEBOOKEnter Name","0","4999","1","White_Screen.jpg","11","37","DayPlanner.jpg","11"
"050819","13:56:45","70010855","A5B73N9C2HVEG","5.0.14.0","2","5","trial1","naming","0","0","0","0","ISLEEnter Name","0","10000","1","White_Screen.jpg","11","79","Easel.jpg","11"
"050819","13:56:45","70010855","A5B73N9C2HVEG","5.0.14.0","2","6","trial1","naming","0","0","0","0","MEASURIN Enter Name","0","10000","1","White_Screen.jpg","12","87","Spoons_MeasuringAttached.jpg","12"
"050819","13:56:45","70010855","A5B73N9C2HVEG","5.0.14.0","2","7","trial1","naming","0","0","0","0","","0","6326","1","White_Screen.jpg","13","21","Clamp_Screw.jpg","13"
"050819","13:56:45","70010855","A5B73N9C2HVEG","5.0.14.0","2","8","trial1","naming","0","0","0","0","POLISH","0","8174","1","White_Screen.jpg","14","27","Makeup_Foundation.jpg","14"
"050819","13:56:45","70010855","A5B73N9C2HVEG","5.0.14.0","2","9","trial1","naming","0","0","0","0","GRATER","0","7514","1","White_Screen.jpg","12","16","FoodMill.jpg","12"
"050819","13:56:45","70010855","A5B73N9C2HVEG","5.0.14.0","2","10","trial1","naming","0","0","0","0","LIGHTER","0","6856","1","White_Screen.jpg","12","22","Lighter_Black.jpg","12"
"050819","13:56:45","70010855","A5B73N9C2HVEG","5.0.14.0","2","11","trial1","naming","0","0","0","0","PANDA","0","7053","1","White_Screen.jpg","13","81","Toy_PandaPlushie.jpg","13"
"050819","13:56:45","70010855","A5B73N9C2HVEG","5.0.14.0","2","12","trial1","naming","0","0","0","0","VEGGIE TRAY","0","8370","1","White_Screen.jpg","14","187","Platter_Vegetables.jpg","14"
"050819","13:56:45","70010855","A5B73N9C2HVEG","5.0.14.0","2","13","trial1","naming","0","0","0","0","QTIP","0","6400","1","White_Screen.jpg","12","155","Qtip_Single.jpg","12"
"050819","13:56:45","70010855","A5B73N9C2HVEG","5.0.14.0","2","14","trial1","naming","0","0","0","0","PACIFIER","0","7025","1","White_Screen.jpg","14","151","Pacifier.jpg","14"
"050819","13:56:45","70010855","A5B73N9C2HVEG","5.0.14.0","2","15","trial1","naming","0","0","0","0","PODUM","0","8669","1","White_Screen.jpg","14","132","Tribunal_Wooden.jpg","14"
"050819","13:56:45","70010855","A5B73N9C2HVEG","5.0.14.0","2","16","trial1","naming","0","0","0","0","BOWL","0","6524","1","White_Screen.jpg","14","65","Bowl_Wooden.jpg","14"
"050819","13:56:45","70010855","A5B73N9C2HVEG","5.0.14.0","2","17","trial1","naming","0","0","0","0","NECKLACE","0","5588","1","White_Screen.jpg","13","23","Necklace_Pearl.jpg","13"
"050819","13:56:45","70010855","A5B73N9C2HVEG","5.0.14.0","2","18","trial1","naming","0","0","0","0","","0","8808","1","White_Screen.jpg","16","39","CompassCardinal.jpg","16"
"050819","13:56:45","70010855","A5B73N9C2HVEG","5.0.14.0","2","19","trial1","naming","0","0","0","0","TOMBSTONE","0","6184","1","White_Screen.jpg","16","157","Tombstone.jpg","16"
"050819","13:56:45","70010855","A5B73N9C2HVEG","5.0.14.0","2","20","trial1","naming","0","0","0","0","RING","0","4089","1","White_Screen.jpg","16","93","Ring_Plain.jpg","16"
"050819","13:56:45","70010855","A5B73N9C2HVEG","5.0.14.0","2","21","trial1","naming","0","0","0","0","DRYER","0","8486","1","White_Screen.jpg","18","73","WashRack.jpg","18"
"050819","13:56:45","70010855","A5B73N9C2HVEG","5.0.14.0","2","22","trial1","naming","0","0","0","0","TEABAG","0","5285","1","White_Screen.jpg","11","130","Teabag.jpg","11"
"050819","13:56:45","70010855","A5B73N9C2HVEG","5.0.14.0","2","23","trial1","naming","0","0","0","0","CDCASE","0","4959","1","White_Screen.jpg","14","62","Case_CD.jpg","14"
"050819","13:56:45","70010855","A5B73N9C2HVEG","5.0.14.0","2","24","trial1","naming","0","0","0","0","DOGFOOD","0","5137","1","White_Screen.jpg","11","174","DogFood.jpg","11"
"050819","13:56:45","70010855","A5B73N9C2HVEG","5.0.14.0","2","25","trial1","naming","0","0","0","0","SHOES","0","5695","1","White_Screen.jpg","13","124","Boots_Hiking.jpg","13"
"050819","13:56:45","70010855","A5B73N9C2HVEG","5.0.14.0","2","26","trial1","naming","0","0","0","0","WATER TOWER","0","6020","1","White_Screen.jpg","10","97","SiloGrain.jpg","10"
"050819","13:56:45","70010855","A5B73N9C2HVEG","5.0.14.0","2","27","trial1","naming","0","0","0","0","CLIP","0","4419","1","White_Screen.jpg","13","8","Clip_Chip.jpg","13"
"050819","13:56:45","70010855","A5B73N9C2HVEG","5.0.14.0","2","28","trial1","naming","0","0","0","0","SCRUNVHIE","0","5911","1","White_Screen.jpg","15","152","HairScrunchie.jpg","15"
"050819","13:56:45","70010855","A5B73N9C2HVEG","5.0.14.0","2","29","trial1","naming","0","0","0","0","NEEDLE","0","5410","1","White_Screen.jpg","13","150","NeedlesAcupuncture.jpg","13"
"050819","13:56:45","70010855","A5B73N9C2HVEG","5.0.14.0","2","30","trial1","naming","0","0","0","0","SHRIMP","0","6487","1","White_Screen.jpg","16","60","Shrimp.jpg","16"
"050819","13:56:45","70010855","A5B73N9C2HVEG","5.0.14.0","2","31","trial1","naming","0","0","0","0","BIKINI","0","6743","1","White_Screen.jpg","13","63","BikiniTop.jpg","13"
"050819","13:56:45","70010855","A5B73N9C2HVEG","5.0.14.0","2","32","trial1","naming","0","0","0","0","NICKLE ","0","4738","1","White_Screen.jpg","14","116","Coin.jpg","14"
"050819","13:56:45","70010855","A5B73N9C2HVEG","5.0.14.0","2","33","trial1","naming","0","0","0","0","LIFE JACKET","0","8354","1","White_Screen.jpg","13","163","LifeJacket_BlueYellow.jpg","13"
"050819","13:56:45","70010855","A5B73N9C2HVEG","5.0.14.0","2","34","trial1","naming","0","0","0","0","CUTTING BOARD","0","8773","1","White_Screen.jpg","9","70","Paddle_Bread.jpg","9"
"050819","13:56:45","70010855","A5B73N9C2HVEG","5.0.14.0","2","35","trial1","naming","0","0","0","0","ORNAMENT","0","6826","1","White_Screen.jpg","14","171","Decoration_ChristmasWhite.jpg","14"
"050819","13:56:45","70010855","A5B73N9C2HVEG","5.0.14.0","2","36","trial1","naming","0","0","0","0","WOOD","0","3682","1","White_Screen.jpg","12","30","Basket_Firewood.jpg","12"
"050819","13:56:45","70010855","A5B73N9C2HVEG","5.0.14.0","2","37","trial1","naming","0","0","0","0","SUNFLOWER","0","6166","1","White_Screen.jpg","12","61","Flower_Sun.jpg","12"
"050819","13:56:45","70010855","A5B73N9C2HVEG","5.0.14.0","2","38","trial1","naming","0","0","0","0","DESERT","0","5488","1","White_Screen.jpg","12","2","Cake_Cheese.jpg","12"
"050819","13:56:45","70010855","A5B73N9C2HVEG","5.0.14.0","2","39","trial1","naming","0","0","0","0","GINGERBREAD","0","6651","1","White_Screen.jpg","13","19","GingerbreadMan.jpg","13"
"050819","13:56:45","70010855","A5B73N9C2HVEG","5.0.14.0","2","40","trial1","naming","0","0","0","0","COTTON CANDY ","0","6785","1","White_Screen.jpg","13","69","Candy_Cotton.jpg","13"
"050819","13:56:45","70010855","A5B73N9C2HVEG","5.0.14.0","2","41","trial1","naming","0","0","0","0","STRAINER","0","9596","1","White_Screen.jpg","15","83","Strainer_Tea.jpg","15"
"050819","13:56:45","70010855","A5B73N9C2HVEG","5.0.14.0","2","42","trial1","naming","0","0","0","0","POPSICLE","0","6206","1","White_Screen.jpg","18","114","IceCream_Popsicle.jpg","18"
"050819","13:56:45","70010855","A5B73N9C2HVEG","5.0.14.0","2","43","trial1","naming","0","0","0","0","BOTTLE","0","6190","1","White_Screen.jpg","12","153","Bottle_Beer.jpg","12"
"050819","13:56:45","70010855","A5B73N9C2HVEG","5.0.14.0","2","44","trial1","naming","0","0","0","0","SHOELACE","0","5129","1","White_Screen.jpg","15","75","ShoeLace_Round.jpg","15"
"050819","13:56:45","70010855","A5B73N9C2HVEG","5.0.14.0","2","45","trial1","naming","0","0","0","0","KEYS","0","4070","1","White_Screen.jpg","12","78","Keys_Bunch.jpg","12"
"050819","13:56:45","70010855","A5B73N9C2HVEG","5.0.14.0","2","46","trial1","naming","0","0","0","0","SALAS","0","4591","1","White_Screen.jpg","13","170","SaladCaesar.jpg","13"
"050819","13:56:45","70010855","A5B73N9C2HVEG","5.0.14.0","2","47","trial1","naming","0","0","0","0","TRUCK","0","4550","1","White_Screen.jpg","12","46","Truck_Tanker.jpg","12"
"050819","13:56:45","70010855","A5B73N9C2HVEG","5.0.14.0","2","48","trial1","naming","0","0","0","0","TRASH CAN","0","6755","1","White_Screen.jpg","18","123","Garbage_GreenBin.jpg","18"
"050819","13:56:45","70010855","A5B73N9C2HVEG","5.0.14.0","2","49","trial1","naming","0","0","0","0","SPOTLIGHT","0","5952","1","White_Screen.jpg","13","199","Stroboscope.jpg","13"
"050819","13:56:45","70010855","A5B73N9C2HVEG","5.0.14.0","2","50","trial1","naming","0","0","0","0","FRUIT","0","5718","1","White_Screen.jpg","16","162","Bowl_Fruits.jpg","16"
"050819","13:56:45","70010855","A5B73N9C2HVEG","5.0.14.0","2","52","trial1","naming","0","0","0","0","PILLOW","0","5210","1","White_Screen.jpg","13","161","Pillow_Plaid.jpg","13"
"050819","13:56:45","70010855","A5B73N9C2HVEG","5.0.14.0","2","53","trial1","naming","0","0","0","0","CHAIR","0","4876","1","White_Screen.jpg","15","194","Armchair.jpg","15"
"050819","13:56:45","70010855","A5B73N9C2HVEG","5.0.14.0","2","54","trial1","naming","0","0","0","0","VASE","0","4230","1","White_Screen.jpg","15","189","Vase_Decorative.jpg","15"
"050819","13:56:45","70010855","A5B73N9C2HVEG","5.0.14.0","2","55","trial1","naming","0","0","0","0","LIGHT","0","3821","1","White_Screen.jpg","14","125","Spotlight.jpg","14"
"050819","13:56:45","70010855","A5B73N9C2HVEG","5.0.14.0","2","56","trial1","naming","0","0","0","0","KNEEPAD","0","5247","1","White_Screen.jpg","16","112","Kneepad.jpg","16"
"050819","13:56:45","70010855","A5B73N9C2HVEG","5.0.14.0","2","57","trial1","naming","0","0","0","0","MIRROR","0","6660","1","White_Screen.jpg","17","96","Compact_Mirror.jpg","17"
"050819","13:56:45","70010855","A5B73N9C2HVEG","5.0.14.0","2","58","trial1","naming","0","0","0","0","SWING","0","5442","1","White_Screen.jpg","12","104","Swing_Porch.jpg","12"
"050819","13:56:45","70010855","A5B73N9C2HVEG","5.0.14.0","2","59","trial1","naming","0","0","0","0","THERMOSTAT","0","5676","1","White_Screen.jpg","14","175","Thermostat.jpg","14"
"050819","13:56:45","70010855","A5B73N9C2HVEG","5.0.14.0","2","60","trial1","naming","0","0","0","0","TRASHBAG","0","5967","1","White_Screen.jpg","13","164","Bag_Garbage.jpg","13"
"050819","13:56:45","70010855","A5B73N9C2HVEG","5.0.14.0","2","61","trial1","naming","0","0","0","0","LAMO","0","5402","1","White_Screen.jpg","13","107","Lamp_TableWhite.jpg","13"
"050819","13:56:45","70010855","A5B73N9C2HVEG","5.0.14.0","2","62","trial1","naming","0","0","0","0","NOTEPAD","0","4815","1","White_Screen.jpg","12","127","Notepad_WithPen.jpg","12"
"050819","13:56:45","70010855","A5B73N9C2HVEG","5.0.14.0","2","63","trial1","naming","0","0","0","0","MITTEN","0","4419","1","White_Screen.jpg","16","188","Mitt_Blue.jpg","16"
"050819","13:56:45","70010855","A5B73N9C2HVEG","5.0.14.0","2","64","trial1","naming","0","0","0","0","PHONE CONNECTOR","0","8939","1","White_Screen.jpg","16","185","PhoneJack.jpg","16"
"050819","13:56:45","70010855","A5B73N9C2HVEG","5.0.14.0","2","65","trial1","naming","0","0","0","0","COOKIE","0","4699","1","White_Screen.jpg","13","197","Cookie.jpg","13"
"050819","13:56:45","70010855","A5B73N9C2HVEG","5.0.14.0","2","66","trial1","naming","0","0","0","0","LIFEJACKET","0","5346","1","White_Screen.jpg","12","126","LifeJacket_Orangejpg.jpg","12"
"050819","13:56:45","70010855","A5B73N9C2HVEG","5.0.14.0","2","67","trial1","naming","0","0","0","0","NAPKINS","0","5781","1","White_Screen.jpg","13","109","Napkin_Holder.jpg","13"
"050819","13:56:45","70010855","A5B73N9C2HVEG","5.0.14.0","2","68","trial1","naming","0","0","0","0","TORTILLAS","0","5172","1","White_Screen.jpg","14","1","Tortilla.jpg","14"
"050819","13:56:45","70010855","A5B73N9C2HVEG","5.0.14.0","2","69","trial1","naming","0","0","0","0","GUM","0","3317","1","White_Screen.jpg","13","192","Gum_Pack.jpg","13"
"050819","13:56:45","70010855","A5B73N9C2HVEG","5.0.14.0","2","70","trial1","naming","0","0","0","0","CAROU","0","10000","1","White_Screen.jpg","15","146","Carousel.jpg","15"
"050819","13:56:45","70010855","A5B73N9C2HVEG","5.0.14.0","2","71","trial1","naming","0","0","0","0","CLOCK","0","7040","1","White_Screen.jpg","10","28","Clock_Radio.jpg","10"
"050819","13:56:45","70010855","A5B73N9C2HVEG","5.0.14.0","2","72","trial1","naming","0","0","0","0","BLOWER","0","5971","1","White_Screen.jpg","13","135","Kazoo.jpg","13"
"050819","13:56:45","70010855","A5B73N9C2HVEG","5.0.14.0","2","73","trial1","naming","0","0","0","0","COCONUT","0","6066","1","White_Screen.jpg","13","85","Coconut.jpg","13"
"050819","13:56:45","70010855","A5B73N9C2HVEG","5.0.14.0","2","74","trial1","naming","0","0","0","0","MUSIC","0","4738","1","White_Screen.jpg","13","3","DoorBell.jpg","13"
"050819","13:56:45","70010855","A5B73N9C2HVEG","5.0.14.0","2","75","trial1","naming","0","0","0","0","BODYWASH","0","5789","1","White_Screen.jpg","13","47","Shampoo.jpg","13"
"050819","13:56:45","70010855","A5B73N9C2HVEG","5.0.14.0","2","76","trial1","naming","0","0","0","0","SHARK","0","5885","1","White_Screen.jpg","14","12","Shark_GreatWhite.jpg","14"
"050819","13:56:45","70010855","A5B73N9C2HVEG","5.0.14.0","2","77","trial1","naming","0","0","0","0","TELESCOPE","0","4812","1","White_Screen.jpg","12","156","Telescope.jpg","12"
"050819","13:56:45","70010855","A5B73N9C2HVEG","5.0.14.0","2","78","trial1","naming","0","0","0","0","PAPER","0","4726","1","White_Screen.jpg","14","182","Box_Notepaper.jpg","14"
"050819","13:56:45","70010855","A5B73N9C2HVEG","5.0.14.0","2","79","trial1","naming","0","0","0","0","IMCROPHONE","0","8509","1","White_Screen.jpg","12","74","Microphone.jpg","12"
"050819","13:56:45","70010855","A5B73N9C2HVEG","5.0.14.0","2","80","trial1","naming","0","0","0","0","BARN","0","5137","1","White_Screen.jpg","14","45","Hangar.jpg","14"
"050819","13:56:45","70010855","A5B73N9C2HVEG","5.0.14.0","2","81","trial1","naming","0","0","0","0","PAINT","0","5659","1","White_Screen.jpg","12","184","PaintBrushAndPallette.jpg","12"
"050819","13:56:45","70010855","A5B73N9C2HVEG","5.0.14.0","2","82","trial1","naming","0","0","0","0","PAN","0","4242","1","White_Screen.jpg","13","90","Fryingpan.jpg","13"
"050819","13:56:45","70010855","A5B73N9C2HVEG","5.0.14.0","2","83","trial1","naming","0","0","0","0","GAME","0","4773","1","White_Screen.jpg","11","138","SandBagThrowGame.jpg","11"
"050819","13:56:45","70010855","A5B73N9C2HVEG","5.0.14.0","2","84","trial1","naming","0","0","0","0","TOOL BOX","0","5495","1","White_Screen.jpg","13","68","Toolbox_Red.jpg","13"
"050819","13:56:45","70010855","A5B73N9C2HVEG","5.0.14.0","2","85","trial1","naming","0","0","0","0","FISH","0","6329","1","White_Screen.jpg","13","7","Fish_Rockbass.jpg","13"
"050819","13:56:45","70010855","A5B73N9C2HVEG","5.0.14.0","2","86","trial1","naming","0","0","0","0","GOGART","0","7890","1","White_Screen.jpg","13","32","Car_Buggy.jpg","13"
"050819","13:56:45","70010855","A5B73N9C2HVEG","5.0.14.0","2","87","trial1","naming","0","0","0","0","MAP","0","4441","1","White_Screen.jpg","14","66","WorldMap.jpg","14"
"050819","13:56:45","70010855","A5B73N9C2HVEG","5.0.14.0","2","88","trial1","naming","0","0","0","0","PIN","0","4678","1","White_Screen.jpg","13","94","SafetyPin.jpg","13"
"050819","13:56:45","70010855","A5B73N9C2HVEG","5.0.14.0","2","89","trial1","naming","0","0","0","0","GUMMYBEAR","0","5328","1","White_Screen.jpg","13","89","Candy_GummyBear.jpg","13"
"050819","13:56:45","70010855","A5B73N9C2HVEG","5.0.14.0","2","90","trial1","naming","0","0","0","0","BANDAID","0","5729","1","White_Screen.jpg","15","129","Bandage_Adhesive.jpg","15"
"050819","13:56:45","70010855","A5B73N9C2HVEG","5.0.14.0","2","91","trial1","naming","0","0","0","0","BAG","0","4309","1","White_Screen.jpg","12","183","Bag_Toiletry.jpg","12"
"050819","13:56:45","70010855","A5B73N9C2HVEG","5.0.14.0","2","92","trial1","naming","0","0","0","0","ACCORDI","0","10000","1","White_Screen.jpg","16","172","Accordion.jpg","16"
"050819","13:56:45","70010855","A5B73N9C2HVEG","5.0.14.0","2","93","trial1","naming","0","0","0","0","T","0","10000","1","White_Screen.jpg","12","40","Clippers_Glass.jpg","12"
"050819","13:56:45","70010855","A5B73N9C2HVEG","5.0.14.0","2","94","trial1","naming","0","0","0","0","STAR","0","6701","1","White_Screen.jpg","14","17","Fruit_Carambola.jpg","14"
"050819","13:56:45","70010855","A5B73N9C2HVEG","5.0.14.0","2","95","trial1","naming","0","0","0","0","HONEY","0","6773","1","White_Screen.jpg","12","193","Stick_Honey.jpg","12"
"050819","13:56:45","70010855","A5B73N9C2HVEG","5.0.14.0","2","96","trial1","naming","0","0","0","0","POPCORN","0","7199","1","White_Screen.jpg","16","84","Popcorn.jpg","16"
"050819","13:56:45","70010855","A5B73N9C2HVEG","5.0.14.0","2","97","trial1","naming","0","0","0","0","PRINTER","0","7517","1","White_Screen.jpg","11","95","Printer.jpg","11"
"050819","13:56:45","70010855","A5B73N9C2HVEG","5.0.14.0","2","98","trial1","naming","0","0","0","0","Enter Name","0","10000","1","White_Screen.jpg","12","165","BoogieBoard.jpg","12"
"050819","13:56:45","70010855","A5B73N9C2HVEG","5.0.14.0","2","99","trial1","naming","0","0","0","0","STAPLER","0","6257","1","White_Screen.jpg","14","190","Stapler_Regular.jpg","14"
"050819","13:56:45","70010855","A5B73N9C2HVEG","5.0.14.0","2","100","trial1","naming","0","0","0","0","SALT GRIN","0","10000","1","White_Screen.jpg","14","67","Peppermill.jpg","14"
"050819","13:56:45","70010855","A5B73N9C2HVEG","5.0.14.0","2","101","trial1","naming","0","0","0","0","EAGLE","0","6849","1","White_Screen.jpg","12","88","Hawk.jpg","12"
"050819","13:56:45","70010855","A5B73N9C2HVEG","5.0.14.0","2","103","trial1","naming","0","0","0","0","ROCKET","0","3840","1","White_Screen.jpg","14","186","Missile.jpg","14"
"050819","13:56:45","70010855","A5B73N9C2HVEG","5.0.14.0","2","104","trial1","naming","0","0","0","0","DONUT","0","3337","1","White_Screen.jpg","13","25","Donut.jpg","13"
"050819","13:56:45","70010855","A5B73N9C2HVEG","5.0.14.0","2","105","trial1","naming","0","0","0","0","OXYGEN","0","5553","1","White_Screen.jpg","13","18","AirTank.jpg","13"
"050819","13:56:45","70010855","A5B73N9C2HVEG","5.0.14.0","2","106","trial1","naming","0","0","0","0","PEACOCK","0","3943","1","White_Screen.jpg","13","122","Bird_Peacock.jpg","13"
"050819","13:56:45","70010855","A5B73N9C2HVEG","5.0.14.0","2","107","trial1","naming","0","0","0","0","CAPPUCINO","0","4307","1","White_Screen.jpg","13","160","Cup_Latte.jpg","13"
"050819","13:56:45","70010855","A5B73N9C2HVEG","5.0.14.0","2","108","trial1","naming","0","0","0","0","BENCH","0","3078","1","White_Screen.jpg","15","36","Table_Picnic.jpg","15"
"050819","13:56:45","70010855","A5B73N9C2HVEG","5.0.14.0","2","109","trial1","naming","0","0","0","0","VACCUUM","0","8670","1","White_Screen.jpg","11","38","VacuumHead.jpg","11"
"050819","13:56:45","70010855","A5B73N9C2HVEG","5.0.14.0","2","110","trial1","naming","0","0","0","0","CARRIAGE","0","3183","1","White_Screen.jpg","11","179","WagonPilgrim.jpg","11"
"050819","13:56:45","70010855","A5B73N9C2HVEG","5.0.14.0","2","111","trial1","naming","0","0","0","0","BUTTERFLY","0","3694","1","White_Screen.jpg","13","137","Butterfly.jpg","13"
"050819","13:56:45","70010855","A5B73N9C2HVEG","5.0.14.0","2","112","trial1","naming","0","0","0","0","POOLTABLE","0","3870","1","White_Screen.jpg","15","86","Table_Pool.jpg","15"
"050819","13:56:45","70010855","A5B73N9C2HVEG","5.0.14.0","2","113","trial1","naming","0","0","0","0","TRUCK","0","3073","1","White_Screen.jpg","11","133","Truck_VintageBlue.jpg","11"
"050819","13:56:45","70010855","A5B73N9C2HVEG","5.0.14.0","2","114","trial1","naming","0","0","0","0","TABOURINE","0","3600","1","White_Screen.jpg","14","181","Tambourine.jpg","14"
"050819","13:56:45","70010855","A5B73N9C2HVEG","5.0.14.0","2","115","trial1","naming","0","0","0","0","CAR","0","2630","1","White_Screen.jpg","14","121","Toy_Taxi.jpg","14"
"050819","13:56:45","70010855","A5B73N9C2HVEG","5.0.14.0","2","116","trial1","naming","0","0","0","0","PAPER","0","3703","1","White_Screen.jpg","19","168","Stone_AncientWriting.jpg","19"
"050819","13:56:45","70010855","A5B73N9C2HVEG","5.0.14.0","2","117","trial1","naming","0","0","0","0","","0","10000","1","White_Screen.jpg","14","191","Compressor.jpg","14"
"050819","13:56:45","70010855","A5B73N9C2HVEG","5.0.14.0","2","118","trial1","naming","0","0","0","0","LIGHT","0","5283","1","White_Screen.jpg","14","72","LightBulb_Christmas.jpg","14"
"050819","13:56:45","70010855","A5B73N9C2HVEG","5.0.14.0","2","119","trial1","naming","0","0","0","0","","0","7290","1","White_Screen.jpg","15","6","Stick_Bridge.jpg","15"
"050819","13:56:45","70010855","A5B73N9C2HVEG","5.0.14.0","2","120","trial1","naming","0","0","0","0","WOOD","0","3823","1","White_Screen.jpg","12","11","Egg_Wooden.jpg","12"
"050819","13:56:45","70010855","A5B73N9C2HVEG","5.0.14.0","2","121","trial1","naming","0","0","0","0","ALMOND","0","4623","1","White_Screen.jpg","13","64","Almond.jpg","13"
"050819","13:56:45","70010855","A5B73N9C2HVEG","5.0.14.0","2","122","trial1","naming","0","0","0","0","POT","0","3619","1","White_Screen.jpg","13","196","Pot_CastIron.jpg","13"
"050819","13:56:45","70010855","A5B73N9C2HVEG","5.0.14.0","2","123","trial1","naming","0","0","0","0","MASK","0","2994","1","White_Screen.jpg","11","13","Mask_Happy.jpg","11"
"050819","13:56:45","70010855","A5B73N9C2HVEG","5.0.14.0","2","124","trial1","naming","0","0","0","0","CHAMPAGNE","0","4095","1","White_Screen.jpg","13","119","Bucket_Champagne.jpg","13"
"050819","13:56:45","70010855","A5B73N9C2HVEG","5.0.14.0","2","125","trial1","naming","0","0","0","0","NOTEPAD","0","3323","1","White_Screen.jpg","17","5","Notepad.jpg","17"
"050819","13:56:45","70010855","A5B73N9C2HVEG","5.0.14.0","2","126","trial1","naming","0","0","0","0","FLOWER","0","2882","1","White_Screen.jpg","13","56","Flower_Rose.jpg","13"
"050819","13:56:45","70010855","A5B73N9C2HVEG","5.0.14.0","2","127","trial1","naming","0","0","0","0","SIREN","0","2873","1","White_Screen.jpg","14","143","Light_Siren.jpg","14"
"050819","13:56:45","70010855","A5B73N9C2HVEG","5.0.14.0","2","128","trial1","naming","0","0","0","0","CAEL","0","2886","1","White_Screen.jpg","15","29","Camel_Bactrian.jpg","15"
"050819","13:56:45","70010855","A5B73N9C2HVEG","5.0.14.0","2","129","trial1","naming","0","0","0","0","CHICKEN","0","3946","1","White_Screen.jpg","13","136","Chicken_FriedDrum.jpg","13"
"050819","13:56:45","70010855","A5B73N9C2HVEG","5.0.14.0","2","130","trial1","naming","0","0","0","0","PROTEIN SHAKE","0","5948","1","White_Screen.jpg","13","42","PowderProtein.jpg","13"
"050819","13:56:45","70010855","A5B73N9C2HVEG","5.0.14.0","2","131","trial1","naming","0","0","0","0","RIM","0","3708","1","White_Screen.jpg","10","80","Hubcap.jpg","10"
"050819","13:56:45","70010855","A5B73N9C2HVEG","5.0.14.0","2","132","trial1","naming","0","0","0","0","CRACEnter Name","0","10000","1","White_Screen.jpg","11","139","Crackers_Ritz.jpg","11"
"050819","13:56:45","70010855","A5B73N9C2HVEG","5.0.14.0","2","133","trial1","naming","0","0","0","0","CATLE","0","8985","1","White_Screen.jpg","12","9","Castle_Model.jpg","12"
"050819","13:56:45","70010855","A5B73N9C2HVEG","5.0.14.0","2","134","trial1","naming","0","0","0","0","PLANT","0","5537","1","White_Screen.jpg","11","176","PlantPotted.jpg","11"
"050819","13:56:45","70010855","A5B73N9C2HVEG","5.0.14.0","2","135","trial1","naming","0","0","0","0","BUBBLE","0","3655","1","White_Screen.jpg","13","44","Bottle_BubbleBlower.jpg","13"
"050819","13:56:45","70010855","A5B73N9C2HVEG","5.0.14.0","2","136","trial1","naming","0","0","0","0","LEAVES","0","4389","1","White_Screen.jpg","10","76","Leaf_Green.jpg","10"
"050819","13:56:45","70010855","A5B73N9C2HVEG","5.0.14.0","2","137","trial1","naming","0","0","0","0","PEPPERONI","0","6576","1","White_Screen.jpg","15","167","Pepperoni.jpg","15"
"050819","13:56:45","70010855","A5B73N9C2HVEG","5.0.14.0","2","138","trial1","naming","0","0","0","0","COOKIE CUTTER","0","7535","1","White_Screen.jpg","13","103","CookieCutter_Tree.jpg","13"
"050819","13:56:45","70010855","A5B73N9C2HVEG","5.0.14.0","2","139","trial1","naming","0","0","0","0","CHEESE ","0","7557","1","White_Screen.jpg","12","166","Cheese_Platter.jpg","12"
"050819","13:56:45","70010855","A5B73N9C2HVEG","5.0.14.0","2","140","trial1","naming","0","0","0","0","TRUCK","0","4647","1","White_Screen.jpg","15","48","Truck_Dump.jpg","15"
"050819","13:56:45","70010855","A5B73N9C2HVEG","5.0.14.0","2","141","trial1","naming","0","0","0","0","SUSHI","0","4886","1","White_Screen.jpg","11","54","Cannoli.jpg","11"
"050819","13:56:45","70010855","A5B73N9C2HVEG","5.0.14.0","2","142","trial1","naming","0","0","0","0","SPRING","0","3767","1","White_Screen.jpg","13","149","MechanicalSpring.jpg","13"
"050819","13:56:45","70010855","A5B73N9C2HVEG","5.0.14.0","2","143","trial1","naming","0","0","0","0","SWITCH","0","3701","1","White_Screen.jpg","11","147","Switch_LightBlack.jpg","11"
"050819","13:56:45","70010855","A5B73N9C2HVEG","5.0.14.0","2","144","trial1","naming","0","0","0","0","BOTTLE OPENER","0","5392","1","White_Screen.jpg","11","53","Peeler.jpg","11"
"050819","13:56:45","70010855","A5B73N9C2HVEG","5.0.14.0","2","145","trial1","naming","0","0","0","0","TONGS","0","4363","1","White_Screen.jpg","13","82","Spoons_Musical.jpg","13"
"050819","13:56:45","70010855","A5B73N9C2HVEG","5.0.14.0","2","146","trial1","naming","0","0","0","0","DIRECTION","0","5252","1","White_Screen.jpg","17","77","Weathervane.jpg","17"
"050819","13:56:45","70010855","A5B73N9C2HVEG","5.0.14.0","2","147","trial1","naming","0","0","0","0","BAG","0","6448","1","White_Screen.jpg","12","158","Case_Leather.jpg","12"
"050819","13:56:45","70010855","A5B73N9C2HVEG","5.0.14.0","2","148","trial1","naming","0","0","0","0","FISH TANK","0","5524","1","White_Screen.jpg","10","144","Aquarium.jpg","10"
"050819","13:56:45","70010855","A5B73N9C2HVEG","5.0.14.0","2","149","trial1","naming","0","0","0","0","FANS","0","5953","1","White_Screen.jpg","12","101","Shoes_Snow.jpg","12"
"050819","13:56:45","70010855","A5B73N9C2HVEG","5.0.14.0","2","150","trial1","naming","0","0","0","0","SYRINGE","0","6031","1","White_Screen.jpg","12","108","Pipette.jpg","12"
"050819","13:56:45","70010855","A5B73N9C2HVEG","5.0.14.0","2","151","trial1","naming","0","0","0","0","LEG","0","3084","1","White_Screen.jpg","13","71","Leg.jpg","13"
"050819","13:56:45","70010855","A5B73N9C2HVEG","5.0.14.0","2","152","trial1","naming","0","0","0","0","BLOCK","0","3315","1","White_Screen.jpg","13","110","Toy_WoodenPlainSingle.jpg","13"
"050819","13:56:45","70010855","A5B73N9C2HVEG","5.0.14.0","2","154","trial1","naming","0","0","0","0","TIGER","0","8207","1","White_Screen.jpg","11","117","Cougar.jpg","11"
"050819","13:56:45","70010855","A5B73N9C2HVEG","5.0.14.0","2","155","trial1","naming","0","0","0","0","BIRD","0","3092","1","White_Screen.jpg","14","145","Bird_Parrot.jpg","14"
"050819","13:56:45","70010855","A5B73N9C2HVEG","5.0.14.0","2","156","trial1","naming","0","0","0","0","","0","2809","1","White_Screen.jpg","13","141","DarthVader.jpg","13"
"050819","13:56:45","70010855","A5B73N9C2HVEG","5.0.14.0","2","157","trial1","naming","0","0","0","0","BENCH","0","3516","1","White_Screen.jpg","13","51","Bench_Black.jpg","13"
"050819","13:56:45","70010855","A5B73N9C2HVEG","5.0.14.0","2","158","trial1","naming","0","0","0","0","PADDLE","0","4281","1","White_Screen.jpg","13","128","Paddle_Ball.jpg","13"
"050819","13:56:45","70010855","A5B73N9C2HVEG","5.0.14.0","2","159","trial1","naming","0","0","0","0","MASK","0","3602","1","White_Screen.jpg","14","92","Mask_Buddhist.jpg","14"
"050819","13:56:45","70010855","A5B73N9C2HVEG","5.0.14.0","2","160","trial1","naming","0","0","0","0","ZEBRA","0","4333","1","White_Screen.jpg","16","169","Toy_Zebra.jpg","16"
"050819","13:56:45","70010855","A5B73N9C2HVEG","5.0.14.0","2","161","trial1","naming","0","0","0","0","CROSS","0","3110","1","White_Screen.jpg","17","131","Cross.jpg","17"
"050819","13:56:45","70010855","A5B73N9C2HVEG","5.0.14.0","2","162","trial1","naming","0","0","0","0","CAULLIFLOWER","0","4259","1","White_Screen.jpg","16","180","Cauliflower.jpg","16"
"050819","13:56:45","70010855","A5B73N9C2HVEG","5.0.14.0","2","163","trial1","naming","0","0","0","0","FREEZER","0","4653","1","White_Screen.jpg","14","173","Freezer.jpg","14"
"050819","13:56:45","70010855","A5B73N9C2HVEG","5.0.14.0","2","164","trial1","naming","0","0","0","0","JACUXXI","0","4212","1","White_Screen.jpg","15","113","Hottub.jpg","15"
"050819","13:56:45","70010855","A5B73N9C2HVEG","5.0.14.0","2","165","trial1","naming","0","0","0","0","MIRROR","0","5158","1","White_Screen.jpg","15","91","Mirror_Carside.jpg","15"
"050819","13:56:45","70010855","A5B73N9C2HVEG","5.0.14.0","2","166","trial1","naming","0","0","0","0","SOCK","0","3266","1","White_Screen.jpg","14","33","Sock_Ankle.jpg","14"
"050819","13:56:45","70010855","A5B73N9C2HVEG","5.0.14.0","2","167","trial1","naming","0","0","0","0","STATUE","0","3765","1","White_Screen.jpg","15","177","Statue_Jesus.jpg","15"
"050819","13:56:45","70010855","A5B73N9C2HVEG","5.0.14.0","2","168","trial1","naming","0","0","0","0","DOG","0","3133","1","White_Screen.jpg","19","159","Dog_ChowChow.jpg","19"
"050819","13:56:45","70010855","A5B73N9C2HVEG","5.0.14.0","2","169","trial1","naming","0","0","0","0","WINE","0","2670","1","White_Screen.jpg","15","14","Bottle_Wine.jpg","15"
"050819","13:56:45","70010855","A5B73N9C2HVEG","5.0.14.0","2","170","trial1","naming","0","0","0","0","THERMOMETER","0","7138","1","White_Screen.jpg","13","118","Thermometer_Room.jpg","13"
"050819","13:56:45","70010855","A5B73N9C2HVEG","5.0.14.0","2","171","trial1","naming","0","0","0","0","CAMER","0","2801","1","White_Screen.jpg","13","140","Camera_Security.jpg","13"
"050819","13:56:45","70010855","A5B73N9C2HVEG","5.0.14.0","2","172","trial1","naming","0","0","0","0","","0","2935","1","White_Screen.jpg","15","35","Diode.jpg","15"
"050819","13:56:45","70010855","A5B73N9C2HVEG","5.0.14.0","2","173","trial1","naming","0","0","0","0","POT","0","3117","1","White_Screen.jpg","13","134","Pot_Cooking.jpg","13"
"050819","13:56:45","70010855","A5B73N9C2HVEG","5.0.14.0","2","174","trial1","naming","0","0","0","0","LID","0","3034","1","White_Screen.jpg","13","31","CoffeeLid.jpg","13"
"050819","13:56:45","70010855","A5B73N9C2HVEG","5.0.14.0","2","175","trial1","naming","0","0","0","0","","0","3013","1","White_Screen.jpg","14","43","Rock_Mimetite.jpg","14"
"050819","13:56:45","70010855","A5B73N9C2HVEG","5.0.14.0","2","176","trial1","naming","0","0","0","0","BEAN BAG","0","5189","1","White_Screen.jpg","11","4","Chair_BeanBag.jpg","11"
"050819","13:56:45","70010855","A5B73N9C2HVEG","5.0.14.0","2","177","trial1","naming","0","0","0","0","DOZER","0","5811","1","White_Screen.jpg","15","34","Bulldozer.jpg","15"
"050819","13:56:45","70010855","A5B73N9C2HVEG","5.0.14.0","2","178","trial1","naming","0","0","0","0","CHARGER","0","3484","1","White_Screen.jpg","18","154","HardDrive.jpg","18"
"050819","13:56:45","70010855","A5B73N9C2HVEG","5.0.14.0","2","179","trial1","naming","0","0","0","0","RING","0","6413","1","White_Screen.jpg","13","198","Ring_Diamond.jpg","13"
"050819","13:56:45","70010855","A5B73N9C2HVEG","5.0.14.0","2","180","trial1","naming","0","0","0","0","DONKEY","0","9004","1","White_Screen.jpg","13","106","Toy_DonkeyFur.jpg","13"
"050819","13:56:45","70010855","A5B73N9C2HVEG","5.0.14.0","2","181","trial1","naming","0","0","0","0","CONTROLLER","0","4074","1","White_Screen.jpg","12","52","Joystick.jpg","12"
"050819","13:56:45","70010855","A5B73N9C2HVEG","5.0.14.0","2","182","trial1","naming","0","0","0","0","BASKET","0","3916","1","White_Screen.jpg","12","98","Basket_Plastic.jpg","12"
"050819","13:56:45","70010855","A5B73N9C2HVEG","5.0.14.0","2","183","trial1","naming","0","0","0","0","BIRD","0","4499","1","White_Screen.jpg","15","50","Origami_Bird.jpg","15"
"050819","13:56:45","70010855","A5B73N9C2HVEG","5.0.14.0","2","184","trial1","naming","0","0","0","0","INSTRUMENT","0","4196","1","White_Screen.jpg","14","115","Instrument_Nyckelharpa.jpg","14"
"050819","13:56:45","70010855","A5B73N9C2HVEG","5.0.14.0","2","185","trial1","naming","0","0","0","0","","0","2382","1","White_Screen.jpg","14","100","Catheter.jpg","14"
"050819","13:56:45","70010855","A5B73N9C2HVEG","5.0.14.0","2","186","trial1","naming","0","0","0","0","HAT","0","4142","1","White_Screen.jpg","15","111","Hat_Colonial.jpg","15"
"050819","13:56:45","70010855","A5B73N9C2HVEG","5.0.14.0","2","187","trial1","naming","0","0","0","0","BONE","0","3135","1","White_Screen.jpg","13","195","Bone.jpg","13"
"050819","13:56:45","70010855","A5B73N9C2HVEG","5.0.14.0","2","188","trial1","naming","0","0","0","0","SPRING","0","4235","1","White_Screen.jpg","13","57","SolderingIron.jpg","13"
"050819","13:56:45","70010855","A5B73N9C2HVEG","5.0.14.0","2","189","trial1","naming","0","0","0","0","BEAR","0","2634","1","White_Screen.jpg","13","142","Toy_BearBluePlushie.jpg","13"
"050819","13:56:45","70010855","A5B73N9C2HVEG","5.0.14.0","2","190","trial1","naming","0","0","0","0","SIGN","0","3473","1","White_Screen.jpg","17","26","Sign_Open.jpg","17"
"050819","13:56:45","70010855","A5B73N9C2HVEG","5.0.14.0","2","191","trial1","naming","0","0","0","0","RIBBON","0","4046","1","White_Screen.jpg","14","178","RibbonPin.jpg","14"
"050819","13:56:45","70010855","A5B73N9C2HVEG","5.0.14.0","2","192","trial1","naming","0","0","0","0","FOLDER","0","3341","1","White_Screen.jpg","15","59","FileFolder.jpg","15"
"050819","13:56:45","70010855","A5B73N9C2HVEG","5.0.14.0","2","193","trial1","naming","0","0","0","0","BRUSH","0","2874","1","White_Screen.jpg","14","41","Brush_Winter.jpg","14"
"050819","13:56:45","70010855","A5B73N9C2HVEG","5.0.14.0","2","194","trial1","naming","0","0","0","0","GARLIC","0","2990","1","White_Screen.jpg","13","58","Garlic_Whole.jpg","13"
"050819","13:56:45","70010855","A5B73N9C2HVEG","5.0.14.0","2","195","trial1","naming","0","0","0","0","PEAR","0","2918","1","White_Screen.jpg","12","120","Pear_Yellow.jpg","12"
"050819","13:56:45","70010855","A5B73N9C2HVEG","5.0.14.0","2","196","trial1","naming","0","0","0","0","SPROUTS","0","4407","1","White_Screen.jpg","16","24","Alfalfa.jpg","16"
"050819","13:56:45","70010855","A5B73N9C2HVEG","5.0.14.0","2","197","trial1","naming","0","0","0","0","MMOUSEPAD","0","6690","1","White_Screen.jpg","14","148","MousepadAndMouse.jpg","14"
"050819","13:56:45","70010855","A5B73N9C2HVEG","5.0.14.0","2","198","trial1","naming","0","0","0","0","SQUASH","0","5043","1","White_Screen.jpg","12","99","Honeydew_yellow.jpg","12"
"050819","13:56:45","70010855","A5B73N9C2HVEG","5.0.14.0","2","199","trial1","naming","0","0","0","0","PEPPER","0","3540","1","White_Screen.jpg","14","10","Pepper_Green.jpg","14"
"050819","13:56:45","70010855","A5B73N9C2HVEG","5.0.14.0","2","200","trial1","naming","0","0","0","0","HANGER","0","3179","1","White_Screen.jpg","14","102","Hanger.jpg","14"
"050819","13:56:45","70010855","A5B73N9C2HVEG","5.0.14.0","2","201","trial1","naming","0","0","0","0","TAG","0","2696","1","White_Screen.jpg","13","15","Tag_Price.jpg","13"
"050819","13:56:45","70010855","A5B73N9C2HVEG","5.0.14.0","2","202","trial1","naming","0","0","0","0","SATELLITE","0","4820","1","White_Screen.jpg","13","20","SpaceRover.jpg","13"
"050819","13:56:45","70010855","A5B73N9C2HVEG","5.0.14.0","2","203","trial1","naming","0","0","0","0","CSTUMER","0","3126","1","White_Screen.jpg","14","49","Costume_Wizard.jpg","14"
"050819","13:56:45","70010855","A5B73N9C2HVEG","5.0.14.0","3","1","demographics_block","gender","0","0","0","0","FEMALE","1","11417","0","0","0","0","0","0"
"050819","13:56:45","70010855","A5B73N9C2HVEG","5.0.14.0","3","1","demographics_block","age","0","0","0","0","38","1","11417","0","0","0","0","0","0"
"050819","13:56:45","70010855","A5B73N9C2HVEG","5.0.14.0","3","1","demographics_block","education","0","0","0","0","15","1","11417","0","0","0","0","0","0"
"050819","13:56:45","70010855","A5B73N9C2HVEG","5.0.14.0","3","2","demographics_block","left_right_handed","0","0","0","0","Right","1","4097","0","0","0","0","0","0"
"050819","13:56:45","70010855","A5B73N9C2HVEG","5.0.14.0","3","2","demographics_block","raceoption1","0","0","0","0","0","1","4097","0","0","0","0","0","0"
"050819","13:56:45","70010855","A5B73N9C2HVEG","5.0.14.0","3","2","demographics_block","raceoption2","0","0","0","0","","1","4097","0","0","0","0","0","0"
"050819","13:56:45","70010855","A5B73N9C2HVEG","5.0.14.0","3","2","demographics_block","raceoption3","0","0","0","0","","1","4097","0","0","0","0","0","0"
"050819","13:56:45","70010855","A5B73N9C2HVEG","5.0.14.0","3","2","demographics_block","raceoption4","0","0","0","0","","1","4097","0","0","0","0","0","0"
"050819","13:56:45","70010855","A5B73N9C2HVEG","5.0.14.0","3","2","demographics_block","raceoption5","0","0","0","0","","1","4097","0","0","0","0","0","0"
"050819","13:56:45","70010855","A5B73N9C2HVEG","5.0.14.0","3","2","demographics_block","raceoption6","0","0","0","0","","1","4097","0","0","0","0","0","0"
"050819","13:56:45","70010855","A5B73N9C2HVEG","5.0.14.0","3","2","demographics_block","raceoption7","0","0","0","0","","1","4097","0","0","0","0","0","0"
"050819","13:56:45","70010855","A5B73N9C2HVEG","5.0.14.0","3","2","demographics_block","raceoption8","0","0","0","0","","1","4097","0","0","0","0","0","0"
"050819","13:56:45","70010855","A5B73N9C2HVEG","5.0.14.0","3","2","demographics_block","raceoption9","0","0","0","0","","1","4097","0","0","0","0","0","0"
"050819","13:56:45","70010855","A5B73N9C2HVEG","5.0.14.0","3","2","demographics_block","raceother","0","0","0","0","","1","4097","0","0","0","0","0","0"
"050819","13:56:45","70010855","A5B73N9C2HVEG","5.0.14.0","3","2","demographics_block","raceother","0","0","0","0","","1","4097","0","0","0","0","0","0"
"050819","13:56:45","70010855","A5B73N9C2HVEG","5.0.14.0","3","2","demographics_block","english_language","0","0","0","0","Yes","1","4097","0","0","0","0","0","0"
"050819","13:56:45","70010855","A5B73N9C2HVEG","5.0.14.0","3","2","demographics_block","english_languageother","0","0","0","0","","1","4097","0","0","0","0","0","0"
"050819","13:56:45","70010855","A5B73N9C2HVEG","5.0.14.0","3","3","demographics_block","eyesight","0","0","0","0","Yes","1","3381","0","0","0","0","0","0"
"050819","13:56:45","70010855","A5B73N9C2HVEG","5.0.14.0","3","3","demographics_block","colorblind","0","0","0","0","No","1","3381","0","0","0","0","0","0"
"050819","13:56:45","70010855","A5B73N9C2HVEG","5.0.14.0","4","1","worker_id_block","worker_id_textbox","0","0","0","0","A5B73N9C2HVEG","1","2502","0","0","0","0","0","0"
"052119","20:18:17","38673829","A36ESW7AECVHK3","5.0.14.0","2","1","trial1","naming","0","0","0","0","vaseEnter Name","0","4073","1","White_Screen.jpg","868","189","Vase_Decorative.jpg","868"
"052119","20:18:17","38673829","A36ESW7AECVHK3","5.0.14.0","2","2","trial1","naming","0","0","0","0","wagonEnter Name","0","3906","1","White_Screen.jpg","9","179","WagonPilgrim.jpg","9"
"052119","20:18:17","38673829","A36ESW7AECVHK3","5.0.14.0","2","3","trial1","naming","0","0","0","0","Enter Nameteddy bear","0","7554","1","White_Screen.jpg","8","142","Toy_BearBluePlushie.jpg","8"
"052119","20:18:17","38673829","A36ESW7AECVHK3","5.0.14.0","2","4","trial1","naming","0","0","0","0","wheel coverEnter Name","0","5755","1","White_Screen.jpg","10","80","Hubcap.jpg","10"
"052119","20:18:17","38673829","A36ESW7AECVHK3","5.0.14.0","2","5","trial1","naming","0","0","0","0","taxiEnter Name","0","5094","1","White_Screen.jpg","12","121","Toy_Taxi.jpg","12"
"052119","20:18:17","38673829","A36ESW7AECVHK3","5.0.14.0","2","6","trial1","naming","0","0","0","0","surveillanceEnter Name","0","10000","1","White_Screen.jpg","9","140","Camera_Security.jpg","9"
"052119","20:18:17","38673829","A36ESW7AECVHK3","5.0.14.0","2","7","trial1","naming","0","0","0","0","cough dropEnter Name","0","7606","1","White_Screen.jpg","10","192","Gum_Pack.jpg","10"
"052119","20:18:17","38673829","A36ESW7AECVHK3","5.0.14.0","2","8","trial1","naming","0","0","0","0","paperEnter Name","0","6303","1","White_Screen.jpg","6","5","Notepad.jpg","6"
"052119","20:18:17","38673829","A36ESW7AECVHK3","5.0.14.0","2","9","trial1","naming","0","0","0","0","Enter Name","0","10000","1","White_Screen.jpg","4","35","Diode.jpg","4"
"052119","20:18:17","38673829","A36ESW7AECVHK3","5.0.14.0","2","10","trial1","naming","0","0","0","0","fruitEnter Name","0","6710","1","White_Screen.jpg","5","17","Fruit_Carambola.jpg","5"
"052119","20:18:17","38673829","A36ESW7AECVHK3","5.0.14.0","2","11","trial1","naming","0","0","0","0","spot lightEnter Name","0","6335","1","White_Screen.jpg","8","199","Stroboscope.jpg","8"
"052119","20:18:17","38673829","A36ESW7AECVHK3","5.0.14.0","2","12","trial1","naming","0","0","0","0","swing setEnter Name","0","6168","1","White_Screen.jpg","4","104","Swing_Porch.jpg","4"
"052119","20:18:17","38673829","A36ESW7AECVHK3","5.0.14.0","2","13","trial1","naming","0","0","0","0","statueEnter Name","0","2453","1","White_Screen.jpg","4","177","Statue_Jesus.jpg","4"
"052119","20:18:17","38673829","A36ESW7AECVHK3","5.0.14.0","2","14","trial1","naming","0","0","0","0","parrotEnter Name","0","2222","1","White_Screen.jpg","9","145","Bird_Parrot.jpg","9"
"052119","20:18:17","38673829","A36ESW7AECVHK3","5.0.14.0","2","15","trial1","naming","0","0","0","0","donkeyEnter Name","0","3239","1","White_Screen.jpg","13","106","Toy_DonkeyFur.jpg","13"
"052119","20:18:17","38673829","A36ESW7AECVHK3","5.0.14.0","2","16","trial1","naming","0","0","0","0","boneEnter Name","0","2564","1","White_Screen.jpg","13","195","Bone.jpg","13"
"052119","20:18:17","38673829","A36ESW7AECVHK3","5.0.14.0","2","17","trial1","naming","0","0","0","0","camelEnter Name","0","2664","1","White_Screen.jpg","9","29","Camel_Bactrian.jpg","9"
"052119","20:18:17","38673829","A36ESW7AECVHK3","5.0.14.0","2","18","trial1","naming","0","0","0","0","light bulbEnter Name","0","5817","1","White_Screen.jpg","8","72","LightBulb_Christmas.jpg","8"
"052119","20:18:17","38673829","A36ESW7AECVHK3","5.0.14.0","2","19","trial1","naming","0","0","0","0","Enter Name","0","10000","1","White_Screen.jpg","11","11","Egg_Wooden.jpg","11"
"052119","20:18:17","38673829","A36ESW7AECVHK3","5.0.14.0","2","20","trial1","naming","0","0","0","0","mapEnter Name","0","4002","1","White_Screen.jpg","81","66","WorldMap.jpg","81"
"052119","20:18:17","38673829","A36ESW7AECVHK3","5.0.14.0","2","21","trial1","naming","0","0","0","0","bootsEnter Name","0","3009","1","White_Screen.jpg","8","124","Boots_Hiking.jpg","8"
"052119","20:18:17","38673829","A36ESW7AECVHK3","5.0.14.0","2","22","trial1","naming","0","0","0","0","q-tipsEnter Name","0","5873","1","White_Screen.jpg","13","105","Qtip_Multiple.jpg","13"
"052119","20:18:17","38673829","A36ESW7AECVHK3","5.0.14.0","2","23","trial1","naming","0","0","0","0","cookieEnter Name","0","2677","1","White_Screen.jpg","9","197","Cookie.jpg","9"
"052119","20:18:17","38673829","A36ESW7AECVHK3","5.0.14.0","2","24","trial1","naming","0","0","0","0","staplerEnter Name","0","2541","1","White_Screen.jpg","9","190","Stapler_Regular.jpg","9"
"052119","20:18:17","38673829","A36ESW7AECVHK3","5.0.14.0","2","25","trial1","naming","0","0","0","0","snow brushEnter Name","0","5075","1","White_Screen.jpg","8","41","Brush_Winter.jpg","8"
"052119","20:18:17","38673829","A36ESW7AECVHK3","5.0.14.0","2","26","trial1","naming","0","0","0","0","necklaceEnter Name","0","8707","1","White_Screen.jpg","13","23","Necklace_Pearl.jpg","13"
"052119","20:18:17","38673829","A36ESW7AECVHK3","5.0.14.0","2","27","trial1","naming","0","0","0","0","pantherEnter Name","0","8676","1","White_Screen.jpg","10","117","Cougar.jpg","10"
"052119","20:18:17","38673829","A36ESW7AECVHK3","5.0.14.0","2","28","trial1","naming","0","0","0","0","Enter Name","0","10000","1","White_Screen.jpg","4","42","PowderProtein.jpg","4"
"052119","20:18:17","38673829","A36ESW7AECVHK3","5.0.14.0","2","29","trial1","naming","0","0","0","0","Enter Name","0","10000","1","White_Screen.jpg","9","138","SandBagThrowGame.jpg","9"
"052119","20:18:17","38673829","A36ESW7AECVHK3","5.0.14.0","2","30","trial1","naming","0","0","0","0","zebraEnter Name","0","3240","1","White_Screen.jpg","8","169","Toy_Zebra.jpg","8"
"052119","20:18:17","38673829","A36ESW7AECVHK3","5.0.14.0","2","31","trial1","naming","0","0","0","0","lightingEnter Name","0","9827","1","White_Screen.jpg","8","125","Spotlight.jpg","8"
"052119","20:18:17","38673829","A36ESW7AECVHK3","5.0.14.0","2","32","trial1","naming","0","0","0","0","peacockEnter Name","0","3058","1","White_Screen.jpg","4","122","Bird_Peacock.jpg","4"
"052119","20:18:17","38673829","A36ESW7AECVHK3","5.0.14.0","2","33","trial1","naming","0","0","0","0","ringEnter Name","0","8925","1","White_Screen.jpg","8","198","Ring_Diamond.jpg","8"
"052119","20:18:17","38673829","A36ESW7AECVHK3","5.0.14.0","2","34","trial1","naming","0","0","0","0","telescopeEnter Name","0","3078","1","White_Screen.jpg","8","156","Telescope.jpg","8"
"052119","20:18:17","38673829","A36ESW7AECVHK3","5.0.14.0","2","35","trial1","naming","0","0","0","0","saladEnter Name","0","2061","1","White_Screen.jpg","12","170","SaladCaesar.jpg","12"
"052119","20:18:17","38673829","A36ESW7AECVHK3","5.0.14.0","2","36","trial1","naming","0","0","0","0","bazookaEnter Name","0","4371","1","White_Screen.jpg","9","135","Kazoo.jpg","9"
"052119","20:18:17","38673829","A36ESW7AECVHK3","5.0.14.0","2","37","trial1","naming","0","0","0","0","onionEnter Name","0","2061","1","White_Screen.jpg","8","58","Garlic_Whole.jpg","8"
"052119","20:18:17","38673829","A36ESW7AECVHK3","5.0.14.0","2","38","trial1","naming","0","0","0","0","dish rackEnter Name","0","3368","1","White_Screen.jpg","7","73","WashRack.jpg","7"
"052119","20:18:17","38673829","A36ESW7AECVHK3","5.0.14.0","2","39","trial1","naming","0","0","0","0","chairEnter Name","0","5862","1","White_Screen.jpg","13","165","BoogieBoard.jpg","13"
"052119","20:18:17","38673829","A36ESW7AECVHK3","5.0.14.0","2","40","trial1","naming","0","0","0","0","utensilsEnter Name","0","5097","1","White_Screen.jpg","13","82","Spoons_Musical.jpg","13"
"052119","20:18:17","38673829","A36ESW7AECVHK3","5.0.14.0","2","41","trial1","naming","0","0","0","0","darth vaderEnter Name","0","4205","1","White_Screen.jpg","4","141","DarthVader.jpg","4"
"052119","20:18:17","38673829","A36ESW7AECVHK3","5.0.14.0","2","42","trial1","naming","0","0","0","0","lampEnter Name","0","1756","1","White_Screen.jpg","9","107","Lamp_TableWhite.jpg","9"
"052119","20:18:17","38673829","A36ESW7AECVHK3","5.0.14.0","2","43","trial1","naming","0","0","0","0","open signEnter Name","0","3668","1","White_Screen.jpg","8","26","Sign_Open.jpg","8"
"052119","20:18:17","38673829","A36ESW7AECVHK3","5.0.14.0","2","44","trial1","naming","0","0","0","0","mortarEnter Name","0","7929","1","White_Screen.jpg","8","193","Stick_Honey.jpg","8"
"052119","20:18:17","38673829","A36ESW7AECVHK3","5.0.14.0","2","45","trial1","naming","0","0","0","0","bottleEnter Name","0","2573","1","White_Screen.jpg","4","153","Bottle_Beer.jpg","4"
"052119","20:18:17","38673829","A36ESW7AECVHK3","5.0.14.0","2","46","trial1","naming","0","0","0","0","orgami birdEnter Name","0","5970","1","White_Screen.jpg","8","50","Origami_Bird.jpg","8"
"052119","20:18:17","38673829","A36ESW7AECVHK3","5.0.14.0","2","47","trial1","naming","0","0","0","0","Enter Name","0","10000","1","White_Screen.jpg","4","182","Box_Notepaper.jpg","4"
"052119","20:18:17","38673829","A36ESW7AECVHK3","5.0.14.0","2","48","trial1","naming","0","0","0","0","cookie cutteEnter Name","0","4046","1","White_Screen.jpg","4","103","CookieCutter_Tree.jpg","4"
"052119","20:18:17","38673829","A36ESW7AECVHK3","5.0.14.0","2","49","trial1","naming","0","0","0","0","bottleEnter Name","0","4561","1","White_Screen.jpg","12","47","Shampoo.jpg","12"
"052119","20:18:17","38673829","A36ESW7AECVHK3","5.0.14.0","2","50","trial1","naming","0","0","0","0","microphoneEnter Name","0","3245","1","White_Screen.jpg","10","74","Microphone.jpg","10"
"052119","20:18:17","38673829","A36ESW7AECVHK3","5.0.14.0","2","52","trial1","naming","0","0","0","0","pillowEnter Name","0","3403","1","White_Screen.jpg","9","161","Pillow_Plaid.jpg","9"
"052119","20:18:17","38673829","A36ESW7AECVHK3","5.0.14.0","2","53","trial1","naming","0","0","0","0","espressoEnter Name","0","9072","1","White_Screen.jpg","8","160","Cup_Latte.jpg","8"
"052119","20:18:17","38673829","A36ESW7AECVHK3","5.0.14.0","2","54","trial1","naming","0","0","0","0","chairEnter Name","0","2671","1","White_Screen.jpg","10","194","Armchair.jpg","10"
"052119","20:18:17","38673829","A36ESW7AECVHK3","5.0.14.0","2","55","trial1","naming","0","0","0","0","tea bagEnter Name","0","3130","1","White_Screen.jpg","7","130","Teabag.jpg","7"
"052119","20:18:17","38673829","A36ESW7AECVHK3","5.0.14.0","2","56","trial1","naming","0","0","0","0","siloEnter Name","0","4220","1","White_Screen.jpg","9","97","SiloGrain.jpg","9"
"052119","20:18:17","38673829","A36ESW7AECVHK3","5.0.14.0","2","57","trial1","naming","0","0","0","0","sunflowerEnter Name","0","3230","1","White_Screen.jpg","12","61","Flower_Sun.jpg","12"
"052119","20:18:17","38673829","A36ESW7AECVHK3","5.0.14.0","2","58","trial1","naming","0","0","0","0","shearsEnter Name","0","3606","1","White_Screen.jpg","9","40","Clippers_Glass.jpg","9"
"052119","20:18:17","38673829","A36ESW7AECVHK3","5.0.14.0","2","59","trial1","naming","0","0","0","0","fruit saladEnter Name","0","5102","1","White_Screen.jpg","8","162","Bowl_Fruits.jpg","8"
"052119","20:18:17","38673829","A36ESW7AECVHK3","5.0.14.0","2","60","trial1","naming","0","0","0","0","crossEnter Name","0","5023","1","White_Screen.jpg","9","131","Cross.jpg","9"
"052119","20:18:17","38673829","A36ESW7AECVHK3","5.0.14.0","2","61","trial1","naming","0","0","0","0","sirenEnter Name","0","3121","1","White_Screen.jpg","8","143","Light_Siren.jpg","8"
"052119","20:18:17","38673829","A36ESW7AECVHK3","5.0.14.0","2","62","trial1","naming","0","0","0","0","ski poleEnter Name","0","8675","1","White_Screen.jpg","7","6","Stick_Bridge.jpg","7"
"052119","20:18:17","38673829","A36ESW7AECVHK3","5.0.14.0","2","63","trial1","naming","0","0","0","0","light switchEnter Name","0","5012","1","White_Screen.jpg","4","147","Switch_LightBlack.jpg","4"
"052119","20:18:17","38673829","A36ESW7AECVHK3","5.0.14.0","2","64","trial1","naming","0","0","0","0","platterEnter Name","0","5135","1","White_Screen.jpg","8","187","Platter_Vegetables.jpg","8"
"052119","20:18:17","38673829","A36ESW7AECVHK3","5.0.14.0","2","65","trial1","naming","0","0","0","0","doorbellEnter Name","0","7737","1","White_Screen.jpg","13","3","DoorBell.jpg","13"
"052119","20:18:17","38673829","A36ESW7AECVHK3","5.0.14.0","2","66","trial1","naming","0","0","0","0","beanbagEnter Name","0","2737","1","White_Screen.jpg","8","4","Chair_BeanBag.jpg","8"
"052119","20:18:17","38673829","A36ESW7AECVHK3","5.0.14.0","2","67","trial1","naming","0","0","0","0","Enter Name","0","10000","1","White_Screen.jpg","13","118","Thermometer_Room.jpg","13"
"052119","20:18:17","38673829","A36ESW7AECVHK3","5.0.14.0","2","68","trial1","naming","0","0","0","0","doughnutEnter Name","0","2847","1","White_Screen.jpg","4","25","Donut.jpg","4"
"052119","20:18:17","38673829","A36ESW7AECVHK3","5.0.14.0","2","69","trial1","naming","0","0","0","0","life vestEnter Name","0","3293","1","White_Screen.jpg","10","163","LifeJacket_BlueYellow.jpg","10"
"052119","20:18:17","38673829","A36ESW7AECVHK3","5.0.14.0","2","70","trial1","naming","0","0","0","0","compassEnter Name","0","2567","1","White_Screen.jpg","5","39","CompassCardinal.jpg","5"
"052119","20:18:17","38673829","A36ESW7AECVHK3","5.0.14.0","2","71","trial1","naming","0","0","0","0","toiletry bagEnter Name","0","7122","1","White_Screen.jpg","9","183","Bag_Toiletry.jpg","9"
"052119","20:18:17","38673829","A36ESW7AECVHK3","5.0.14.0","2","72","trial1","naming","0","0","0","0","cotton candEnter Name","0","4622","1","White_Screen.jpg","8","69","Candy_Cotton.jpg","8"
"052119","20:18:17","38673829","A36ESW7AECVHK3","5.0.14.0","2","73","trial1","naming","0","0","0","0","napkinsEnter Name","0","4291","1","White_Screen.jpg","12","109","Napkin_Holder.jpg","12"
"052119","20:18:17","38673829","A36ESW7AECVHK3","5.0.14.0","2","74","trial1","naming","0","0","0","0","nutEnter Name","0","3184","1","White_Screen.jpg","8","64","Almond.jpg","8"
"052119","20:18:17","38673829","A36ESW7AECVHK3","5.0.14.0","2","75","trial1","naming","0","0","0","0","benchEnter Name","0","2360","1","White_Screen.jpg","9","51","Bench_Black.jpg","9"
"052119","20:18:17","38673829","A36ESW7AECVHK3","5.0.14.0","2","76","trial1","naming","0","0","0","0","robotEnter Name","0","2854","1","White_Screen.jpg","7","20","SpaceRover.jpg","7"
"052119","20:18:17","38673829","A36ESW7AECVHK3","5.0.14.0","2","77","trial1","naming","0","0","0","0","firewoodEnter Name","0","3782","1","White_Screen.jpg","13","30","Basket_Firewood.jpg","13"
"052119","20:18:17","38673829","A36ESW7AECVHK3","5.0.14.0","2","78","trial1","naming","0","0","0","0","generatorEnter Name","0","8713","1","White_Screen.jpg","8","191","Compressor.jpg","8"
"052119","20:18:17","38673829","A36ESW7AECVHK3","5.0.14.0","2","79","trial1","naming","0","0","0","0","lidEnter Name","0","2871","1","White_Screen.jpg","5","31","CoffeeLid.jpg","5"
"052119","20:18:17","38673829","A36ESW7AECVHK3","5.0.14.0","2","80","trial1","naming","0","0","0","0","eagleEnter Name","0","4021","1","White_Screen.jpg","14","88","Hawk.jpg","14"
"052119","20:18:17","38673829","A36ESW7AECVHK3","5.0.14.0","2","81","trial1","naming","0","0","0","0","dogEnter Name","0","2459","1","White_Screen.jpg","10","159","Dog_ChowChow.jpg","10"
"052119","20:18:17","38673829","A36ESW7AECVHK3","5.0.14.0","2","82","trial1","naming","0","0","0","0","semi truckEnter Name","0","5589","1","White_Screen.jpg","12","46","Truck_Tanker.jpg","12"
"052119","20:18:17","38673829","A36ESW7AECVHK3","5.0.14.0","2","83","trial1","naming","0","0","0","0","pandaEnter Name","0","2540","1","White_Screen.jpg","12","81","Toy_PandaPlushie.jpg","12"
"052119","20:18:17","38673829","A36ESW7AECVHK3","5.0.14.0","2","84","trial1","naming","0","0","0","0","vacuumEnter Name","0","4061","1","White_Screen.jpg","12","38","VacuumHead.jpg","12"
"052119","20:18:17","38673829","A36ESW7AECVHK3","5.0.14.0","2","85","trial1","naming","0","0","0","0","Enter Name","0","10000","1","White_Screen.jpg","9","83","Strainer_Tea.jpg","9"
"052119","20:18:17","38673829","A36ESW7AECVHK3","5.0.14.0","2","86","trial1","naming","0","0","0","0","pool tableEnter Name","0","2631","1","White_Screen.jpg","10","86","Table_Pool.jpg","10"
"052119","20:18:17","38673829","A36ESW7AECVHK3","5.0.14.0","2","87","trial1","naming","0","0","0","0","clipEnter Name","0","5008","1","White_Screen.jpg","5","8","Clip_Chip.jpg","5"
"052119","20:18:17","38673829","A36ESW7AECVHK3","5.0.14.0","2","88","trial1","naming","0","0","0","0","life vestEnter Name","0","4669","1","White_Screen.jpg","13","126","LifeJacket_Orangejpg.jpg","13"
"052119","20:18:17","38673829","A36ESW7AECVHK3","5.0.14.0","2","89","trial1","naming","0","0","0","0","fried chickeEnter Name","0","5334","1","White_Screen.jpg","7","136","Chicken_FriedDrum.jpg","7"
"052119","20:18:17","38673829","A36ESW7AECVHK3","5.0.14.0","2","90","trial1","naming","0","0","0","0","mittenEnter Name","0","4050","1","White_Screen.jpg","13","188","Mitt_Blue.jpg","13"
"052119","20:18:17","38673829","A36ESW7AECVHK3","5.0.14.0","2","91","trial1","naming","0","0","0","0","copierEnter Name","0","3001","1","White_Screen.jpg","13","95","Printer.jpg","13"
"052119","20:18:17","38673829","A36ESW7AECVHK3","5.0.14.0","2","92","trial1","naming","0","0","0","0","boardEnter Name","0","10000","1","White_Screen.jpg","8","70","Paddle_Bread.jpg","8"
"052119","20:18:17","38673829","A36ESW7AECVHK3","5.0.14.0","2","93","trial1","naming","0","0","0","0","Enter Name","0","135","1","White_Screen.jpg","4","85","Coconut.jpg","4"
"052119","20:18:17","38673829","A36ESW7AECVHK3","5.0.14.0","2","94","trial1","naming","0","0","0","0","fish","0","5093","1","White_Screen.jpg","5","7","Fish_Rockbass.jpg","5"
"052119","20:18:17","38673829","A36ESW7AECVHK3","5.0.14.0","2","95","trial1","naming","0","0","0","0","popsicle","0","5191","1","White_Screen.jpg","13","114","IceCream_Popsicle.jpg","13"
"052119","20:18:17","38673829","A36ESW7AECVHK3","5.0.14.0","2","96","trial1","naming","0","0","0","0","scrunchie","0","8021","1","White_Screen.jpg","9","152","HairScrunchie.jpg","9"
"052119","20:18:17","38673829","A36ESW7AECVHK3","5.0.14.0","2","97","trial1","naming","0","0","0","0","snow plow Enter Name","0","5033","1","White_Screen.jpg","9","34","Bulldozer.jpg","9"
"052119","20:18:17","38673829","A36ESW7AECVHK3","5.0.14.0","2","98","trial1","naming","0","0","0","0","band aidEnter Name","0","3069","1","White_Screen.jpg","5","129","Bandage_Adhesive.jpg","5"
"052119","20:18:17","38673829","A36ESW7AECVHK3","5.0.14.0","2","99","trial1","naming","0","0","0","0","drillEnter Name","0","9272","1","White_Screen.jpg","9","57","SolderingIron.jpg","9"
"052119","20:18:17","38673829","A36ESW7AECVHK3","5.0.14.0","2","100","trial1","naming","0","0","0","0","potEnter Name","0","2711","1","White_Screen.jpg","7","134","Pot_Cooking.jpg","7"
"052119","20:18:17","38673829","A36ESW7AECVHK3","5.0.14.0","2","101","trial1","naming","0","0","0","0","green pepper","0","9937","1","White_Screen.jpg","11","10","Pepper_Green.jpg","11"
"052119","20:18:17","38673829","A36ESW7AECVHK3","5.0.14.0","2","103","trial1","naming","0","0","0","0","mouse padEnter Name","0","3732","1","White_Screen.jpg","4","148","MousepadAndMouse.jpg","4"
"052119","20:18:17","38673829","A36ESW7AECVHK3","5.0.14.0","2","104","trial1","naming","0","0","0","0","pepperoniEnter Name","0","3315","1","White_Screen.jpg","4","167","Pepperoni.jpg","4"
"052119","20:18:17","38673829","A36ESW7AECVHK3","5.0.14.0","2","105","trial1","naming","0","0","0","0","wine bottleEnter Name","0","3446","1","White_Screen.jpg","8","14","Bottle_Wine.jpg","8"
"052119","20:18:17","38673829","A36ESW7AECVHK3","5.0.14.0","2","106","trial1","naming","0","0","0","0","lighterEnter Name","0","2106","1","White_Screen.jpg","10","22","Lighter_Black.jpg","10"
"052119","20:18:17","38673829","A36ESW7AECVHK3","5.0.14.0","2","107","trial1","naming","0","0","0","0","flowerEnter Name","0","2879","1","White_Screen.jpg","7","56","Flower_Rose.jpg","7"
"052119","20:18:17","38673829","A36ESW7AECVHK3","5.0.14.0","2","108","trial1","naming","0","0","0","0","nookEnter Name","0","3315","1","White_Screen.jpg","9","151","Pacifier.jpg","9"
"052119","20:18:17","38673829","A36ESW7AECVHK3","5.0.14.0","2","109","trial1","naming","0","0","0","0","dump truckEnter Name","0","6099","1","White_Screen.jpg","32","48","Truck_Dump.jpg","32"
"052119","20:18:17","38673829","A36ESW7AECVHK3","5.0.14.0","2","110","trial1","naming","0","0","0","0","Enter Name","0","10000","1","White_Screen.jpg","5","168","Stone_AncientWriting.jpg","5"
"052119","20:18:17","38673829","A36ESW7AECVHK3","5.0.14.0","2","111","trial1","naming","0","0","0","0","plantEnter Name","0","3450","1","White_Screen.jpg","9","176","PlantPotted.jpg","9"
"052119","20:18:17","38673829","A36ESW7AECVHK3","5.0.14.0","2","112","trial1","naming","0","0","0","0","needleEnter Name","0","8574","1","White_Screen.jpg","13","150","NeedlesAcupuncture.jpg","13"
"052119","20:18:17","38673829","A36ESW7AECVHK3","5.0.14.0","2","113","trial1","naming","0","0","0","0","bottle openeEnter Name","0","6585","1","White_Screen.jpg","4","53","Peeler.jpg","4"
"052119","20:18:17","38673829","A36ESW7AECVHK3","5.0.14.0","2","114","trial1","naming","0","0","0","0","cauliflowerEnter Name","0","5725","1","White_Screen.jpg","8","180","Cauliflower.jpg","8"
"052119","20:18:17","38673829","A36ESW7AECVHK3","5.0.14.0","2","115","trial1","naming","0","0","0","0","headstoneEnter Name","0","4855","1","White_Screen.jpg","11","157","Tombstone.jpg","11"
"052119","20:18:17","38673829","A36ESW7AECVHK3","5.0.14.0","2","116","trial1","naming","0","0","0","0","costumeEnter Name","0","4534","1","White_Screen.jpg","8","49","Costume_Wizard.jpg","8"
"052119","20:18:17","38673829","A36ESW7AECVHK3","5.0.14.0","2","117","trial1","naming","0","0","0","0","sockEnter Name","0","2164","1","White_Screen.jpg","12","33","Sock_Ankle.jpg","12"
"052119","20:18:17","38673829","A36ESW7AECVHK3","5.0.14.0","2","118","trial1","naming","0","0","0","0","temEnter Name","0","10000","1","White_Screen.jpg","10","175","Thermostat.jpg","10"
"052119","20:18:17","38673829","A36ESW7AECVHK3","5.0.14.0","2","119","trial1","naming","0","0","0","0","gummy beaEnter Name","0","6303","1","White_Screen.jpg","5","89","Candy_GummyBear.jpg","5"
"052119","20:18:17","38673829","A36ESW7AECVHK3","5.0.14.0","2","120","trial1","naming","0","0","0","0","bubblesEnter Name","0","4136","1","White_Screen.jpg","13","44","Bottle_BubbleBlower.jpg","13"
"052119","20:18:17","38673829","A36ESW7AECVHK3","5.0.14.0","2","121","trial1","naming","0","0","0","0","cheeseEnter Name","0","10000","1","White_Screen.jpg","12","166","Cheese_Platter.jpg","12"
"052119","20:18:17","38673829","A36ESW7AECVHK3","5.0.14.0","2","122","trial1","naming","0","0","0","0","podium","0","5280","1","White_Screen.jpg","9","132","Tribunal_Wooden.jpg","9"
"052119","20:18:17","38673829","A36ESW7AECVHK3","5.0.14.0","2","123","trial1","naming","0","0","0","0","basket","0","4084","1","White_Screen.jpg","8","98","Basket_Plastic.jpg","8"
"052119","20:18:17","38673829","A36ESW7AECVHK3","5.0.14.0","2","124","trial1","naming","0","0","0","0","pan","0","4496","1","White_Screen.jpg","13","90","Fryingpan.jpg","13"
"052119","20:18:17","38673829","A36ESW7AECVHK3","5.0.14.0","2","125","trial1","naming","0","0","0","0","electrical bodx","0","7134","1","White_Screen.jpg","9","185","PhoneJack.jpg","9"
"052119","20:18:17","38673829","A36ESW7AECVHK3","5.0.14.0","2","126","trial1","naming","0","0","0","0","ukelele","0","7530","1","White_Screen.jpg","7","115","Instrument_Nyckelharpa.jpg","7"
"052119","20:18:17","38673829","A36ESW7AECVHK3","5.0.14.0","2","127","trial1","naming","0","0","0","0","controller","0","4943","1","White_Screen.jpg","5","52","Joystick.jpg","5"
"052119","20:18:17","38673829","A36ESW7AECVHK3","5.0.14.0","2","128","trial1","naming","0","0","0","0","spring","0","3924","1","White_Screen.jpg","8","149","MechanicalSpring.jpg","8"
"052119","20:18:17","38673829","A36ESW7AECVHK3","5.0.14.0","2","129","trial1","naming","0","0","0","0","quarter","0","3664","1","White_Screen.jpg","9","116","Coin.jpg","9"
"052119","20:18:17","38673829","A36ESW7AECVHK3","5.0.14.0","2","130","trial1","naming","0","0","0","0","wine chiller","0","6305","1","White_Screen.jpg","5","119","Bucket_Champagne.jpg","5"
"052119","20:18:17","38673829","A36ESW7AECVHK3","5.0.14.0","2","131","trial1","naming","0","0","0","0","oxygen tank","0","5910","1","White_Screen.jpg","12","18","AirTank.jpg","12"
"052119","20:18:17","38673829","A36ESW7AECVHK3","5.0.14.0","2","132","trial1","naming","0","0","0","0","compact","0","3938","1","White_Screen.jpg","9","96","Compact_Mirror.jpg","9"
"052119","20:18:17","38673829","A36ESW7AECVHK3","5.0.14.0","2","133","trial1","naming","0","0","0","0","butterfly","0","4918","1","White_Screen.jpg","11","137","Butterfly.jpg","11"
"052119","20:18:17","38673829","A36ESW7AECVHK3","5.0.14.0","2","134","trial1","naming","0","0","0","0","cube","0","4512","1","White_Screen.jpg","13","110","Toy_WoodenPlainSingle.jpg","13"
"052119","20:18:17","38673829","A36ESW7AECVHK3","5.0.14.0","2","135","trial1","naming","0","0","0","0","Enter Name","0","10000","1","White_Screen.jpg","8","108","Pipette.jpg","8"
"052119","20:18:17","38673829","A36ESW7AECVHK3","5.0.14.0","2","136","trial1","naming","0","0","0","0","dog food","0","4563","1","White_Screen.jpg","5","174","DogFood.jpg","5"
"052119","20:18:17","38673829","A36ESW7AECVHK3","5.0.14.0","2","137","trial1","naming","0","0","0","0","freezer","0","5120","1","White_Screen.jpg","10","173","Freezer.jpg","10"
"052119","20:18:17","38673829","A36ESW7AECVHK3","5.0.14.0","2","138","trial1","naming","0","0","0","0","charger","0","4195","1","White_Screen.jpg","8","154","HardDrive.jpg","8"
"052119","20:18:17","38673829","A36ESW7AECVHK3","5.0.14.0","2","139","trial1","naming","0","0","0","0","tortilla shell","0","5773","1","White_Screen.jpg","5","1","Tortilla.jpg","5"
"052119","20:18:17","38673829","A36ESW7AECVHK3","5.0.14.0","2","140","trial1","naming","0","0","0","0","keyring","0","3987","1","White_Screen.jpg","8","78","Keys_Bunch.jpg","8"
"052119","20:18:17","38673829","A36ESW7AECVHK3","5.0.14.0","2","141","trial1","naming","0","0","0","0","buggy","0","8072","1","White_Screen.jpg","8","32","Car_Buggy.jpg","8"
"052119","20:18:17","38673829","A36ESW7AECVHK3","5.0.14.0","2","142","trial1","naming","0","0","0","0","ferret","0","4042","1","White_Screen.jpg","5","200","Ferret.jpg","5"
"052119","20:18:17","38673829","A36ESW7AECVHK3","5.0.14.0","2","143","trial1","naming","0","0","0","0","envelope","0","9551","1","White_Screen.jpg","10","15","Tag_Price.jpg","10"
"052119","20:18:17","38673829","A36ESW7AECVHK3","5.0.14.0","2","144","trial1","naming","0","0","0","0","q-tip","0","4718","1","White_Screen.jpg","4","155","Qtip_Single.jpg","4"
"052119","20:18:17","38673829","A36ESW7AECVHK3","5.0.14.0","2","145","trial1","naming","0","0","0","0","ribbon","0","4107","1","White_Screen.jpg","6","178","RibbonPin.jpg","6"
"052119","20:18:17","38673829","A36ESW7AECVHK3","5.0.14.0","2","146","trial1","naming","0","0","0","0","bowl","0","4918","1","White_Screen.jpg","8","65","Bowl_Wooden.jpg","8"
"052119","20:18:17","38673829","A36ESW7AECVHK3","5.0.14.0","2","147","trial1","naming","0","0","0","0","garbage","0","4019","1","White_Screen.jpg","9","164","Bag_Garbage.jpg","9"
"052119","20:18:17","38673829","A36ESW7AECVHK3","5.0.14.0","2","148","trial1","naming","0","0","0","0","castle","0","3233","1","White_Screen.jpg","9","9","Castle_Model.jpg","9"
"052119","20:18:17","38673829","A36ESW7AECVHK3","5.0.14.0","2","149","trial1","naming","0","0","0","0","pump","0","8375","1","White_Screen.jpg","13","100","Catheter.jpg","13"
"052119","20:18:17","38673829","A36ESW7AECVHK3","5.0.14.0","2","150","trial1","naming","0","0","0","0","gingerbread cookie","0","5493","1","White_Screen.jpg","5","19","GingerbreadMan.jpg","5"
"052119","20:18:17","38673829","A36ESW7AECVHK3","5.0.14.0","2","151","trial1","naming","0","0","0","0","file folder","0","8852","1","White_Screen.jpg","8","59","FileFolder.jpg","8"
"052119","20:18:17","38673829","A36ESW7AECVHK3","5.0.14.0","2","152","trial1","naming","0","0","0","0","Enter Name","0","10000","1","White_Screen.jpg","7","43","Rock_Mimetite.jpg","7"
"052119","20:18:17","38673829","A36ESW7AECVHK3","5.0.14.0","2","154","trial1","naming","0","0","0","0","tambourine","0","5386","1","White_Screen.jpg","8","181","Tambourine.jpg","8"
"052119","20:18:17","38673829","A36ESW7AECVHK3","5.0.14.0","2","155","trial1","naming","0","0","0","0","fish tank","0","4450","1","White_Screen.jpg","8","144","Aquarium.jpg","8"
"052119","20:18:17","38673829","A36ESW7AECVHK3","5.0.14.0","2","156","trial1","naming","0","0","0","0","hanger","0","4270","1","White_Screen.jpg","12","102","Hanger.jpg","12"
"052119","20:18:17","38673829","A36ESW7AECVHK3","5.0.14.0","2","157","trial1","naming","0","0","0","0","knee pad","0","7379","1","White_Screen.jpg","8","112","Kneepad.jpg","8"
"052119","20:18:17","38673829","A36ESW7AECVHK3","5.0.14.0","2","158","trial1","naming","0","0","0","0","egyptian ","0","10000","1","White_Screen.jpg","5","55","Jar_Canopic.jpg","5"
"052119","20:18:17","38673829","A36ESW7AECVHK3","5.0.14.0","2","159","trial1","naming","0","0","0","0","weather vane","0","4549","1","White_Screen.jpg","9","77","Weathervane.jpg","9"
"052119","20:18:17","38673829","A36ESW7AECVHK3","5.0.14.0","2","160","trial1","naming","0","0","0","0","sprouts","0","4340","1","White_Screen.jpg","9","24","Alfalfa.jpg","9"
"052119","20:18:17","38673829","A36ESW7AECVHK3","5.0.14.0","2","161","trial1","naming","0","0","0","0","accordian","0","4073","1","White_Screen.jpg","7","172","Accordion.jpg","7"
"052119","20:18:17","38673829","A36ESW7AECVHK3","5.0.14.0","2","162","trial1","naming","0","0","0","0","snow shoes","0","7350","1","White_Screen.jpg","10","101","Shoes_Snow.jpg","10"
"052119","20:18:17","38673829","A36ESW7AECVHK3","5.0.14.0","2","163","trial1","naming","0","0","0","0","measuring spoons","0","7865","1","White_Screen.jpg","6","87","Spoons_MeasuringAttached.jpg","6"
"052119","20:18:17","38673829","A36ESW7AECVHK3","5.0.14.0","2","164","trial1","naming","0","0","0","0","palette","0","6303","1","White_Screen.jpg","10","184","PaintBrushAndPallette.jpg","10"
"052119","20:18:17","38673829","A36ESW7AECVHK3","5.0.14.0","2","165","trial1","naming","0","0","0","0","shrimp","0","4772","1","White_Screen.jpg","9","60","Shrimp.jpg","9"
"052119","20:18:17","38673829","A36ESW7AECVHK3","5.0.14.0","2","166","trial1","naming","0","0","0","0","carousel","0","8645","1","White_Screen.jpg","8","146","Carousel.jpg","8"
"052119","20:18:17","38673829","A36ESW7AECVHK3","5.0.14.0","2","167","trial1","naming","0","0","0","0","ring","0","4646","1","White_Screen.jpg","9","93","Ring_Plain.jpg","9"
"052119","20:18:17","38673829","A36ESW7AECVHK3","5.0.14.0","2","168","trial1","naming","0","0","0","0","leaf","0","3842","1","White_Screen.jpg","9","76","Leaf_Green.jpg","9"
"052119","20:18:17","38673829","A36ESW7AECVHK3","5.0.14.0","2","169","trial1","naming","0","0","0","0","popcorn","0","5041","1","White_Screen.jpg","9","84","Popcorn.jpg","9"
"052119","20:18:17","38673829","A36ESW7AECVHK3","5.0.14.0","2","170","trial1","naming","0","0","0","0","paddle ball","0","6687","1","White_Screen.jpg","8","128","Paddle_Ball.jpg","8"
"052119","20:18:17","38673829","A36ESW7AECVHK3","5.0.14.0","2","171","trial1","naming","0","0","0","0","cd holder","0","4752","1","White_Screen.jpg","5","62","Case_CD.jpg","5"
"052119","20:18:17","38673829","A36ESW7AECVHK3","5.0.14.0","2","172","trial1","naming","0","0","0","0","notepad","0","5098","1","White_Screen.jpg","10","127","Notepad_WithPen.jpg","10"
"052119","20:18:17","38673829","A36ESW7AECVHK3","5.0.14.0","2","173","trial1","naming","0","0","0","0","shark","0","3922","1","White_Screen.jpg","9","12","Shark_GreatWhite.jpg","9"
"052119","20:18:17","38673829","A36ESW7AECVHK3","5.0.14.0","2","174","trial1","naming","0","0","0","0","fruit","0","7939","1","White_Screen.jpg","13","99","Honeydew_yellow.jpg","13"
"052119","20:18:17","38673829","A36ESW7AECVHK3","5.0.14.0","2","175","trial1","naming","0","0","0","0","hole maker","0","8700","1","White_Screen.jpg","9","21","Clamp_Screw.jpg","9"
"052119","20:18:17","38673829","A36ESW7AECVHK3","5.0.14.0","2","176","trial1","naming","0","0","0","0","pear","0","3654","1","White_Screen.jpg","8","120","Pear_Yellow.jpg","8"
"052119","20:18:17","38673829","A36ESW7AECVHK3","5.0.14.0","2","177","trial1","naming","0","0","0","0","tool box","0","4507","1","White_Screen.jpg","8","68","Toolbox_Red.jpg","8"
"052119","20:18:17","38673829","A36ESW7AECVHK3","5.0.14.0","2","178","trial1","naming","0","0","0","0","mirror","0","4867","1","White_Screen.jpg","13","91","Mirror_Carside.jpg","13"
"052119","20:18:17","38673829","A36ESW7AECVHK3","5.0.14.0","2","179","trial1","naming","0","0","0","0","garbage can","0","4611","1","White_Screen.jpg","13","123","Garbage_GreenBin.jpg","13"
"052119","20:18:17","38673829","A36ESW7AECVHK3","5.0.14.0","2","180","trial1","naming","0","0","0","0","rocket","0","4513","1","White_Screen.jpg","6","186","Missile.jpg","6"
"052119","20:18:17","38673829","A36ESW7AECVHK3","5.0.14.0","2","181","trial1","naming","0","0","0","0","day planner","0","4768","1","White_Screen.jpg","10","37","DayPlanner.jpg","10"
"052119","20:18:17","38673829","A36ESW7AECVHK3","5.0.14.0","2","182","trial1","naming","0","0","0","0","digital clock","0","5246","1","White_Screen.jpg","12","28","Clock_Radio.jpg","12"
"052119","20:18:17","38673829","A36ESW7AECVHK3","5.0.14.0","2","183","trial1","naming","0","0","0","0","nail polish","0","6758","1","White_Screen.jpg","8","27","Makeup_Foundation.jpg","8"
"052119","20:18:17","38673829","A36ESW7AECVHK3","5.0.14.0","2","184","trial1","naming","0","0","0","0","shoe lace","0","4658","1","White_Screen.jpg","10","75","ShoeLace_Round.jpg","10"
"052119","20:18:17","38673829","A36ESW7AECVHK3","5.0.14.0","2","185","trial1","naming","0","0","0","0","hot tub","0","5132","1","White_Screen.jpg","8","113","Hottub.jpg","8"
"052119","20:18:17","38673829","A36ESW7AECVHK3","5.0.14.0","2","186","trial1","naming","0","0","0","0","sombrero","0","9790","1","White_Screen.jpg","9","111","Hat_Colonial.jpg","9"
"052119","20:18:17","38673829","A36ESW7AECVHK3","5.0.14.0","2","187","trial1","naming","0","0","0","0","easel","0","4774","1","White_Screen.jpg","9","79","Easel.jpg","9"
"052119","20:18:17","38673829","A36ESW7AECVHK3","5.0.14.0","2","188","trial1","naming","0","0","0","0","green ","0","10000","1","White_Screen.jpg","8","45","Hangar.jpg","8"
"052119","20:18:17","38673829","A36ESW7AECVHK3","5.0.14.0","2","189","trial1","naming","0","0","0","0","orname","0","10000","1","White_Screen.jpg","4","171","Decoration_ChristmasWhite.jpg","4"
"052119","20:18:17","38673829","A36ESW7AECVHK3","5.0.14.0","2","190","trial1","naming","0","0","0","0","ntEnter Name","0","367","1","White_Screen.jpg","9","139","Crackers_Ritz.jpg","9"
"052119","20:18:17","38673829","A36ESW7AECVHK3","5.0.14.0","2","191","trial1","naming","0","0","0","0","kettle","0","4252","1","White_Screen.jpg","9","196","Pot_CastIron.jpg","9"
"052119","20:18:17","38673829","A36ESW7AECVHK3","5.0.14.0","2","192","trial1","naming","0","0","0","0","burrito","0","5186","1","White_Screen.jpg","9","54","Cannoli.jpg","9"
"052119","20:18:17","38673829","A36ESW7AECVHK3","5.0.14.0","2","193","trial1","naming","0","0","0","0","truck","0","3974","1","White_Screen.jpg","9","133","Truck_VintageBlue.jpg","9"
"052119","20:18:17","38673829","A36ESW7AECVHK3","5.0.14.0","2","194","trial1","naming","0","0","0","0","mask","0","4100","1","White_Screen.jpg","9","92","Mask_Buddhist.jpg","9"
"052119","20:18:17","38673829","A36ESW7AECVHK3","5.0.14.0","2","195","trial1","naming","0","0","0","0","leg","0","3458","1","White_Screen.jpg","13","71","Leg.jpg","13"
"052119","20:18:17","38673829","A36ESW7AECVHK3","5.0.14.0","2","196","trial1","naming","0","0","0","0","mask","0","6012","1","White_Screen.jpg","8","13","Mask_Happy.jpg","8"
"052119","20:18:17","38673829","A36ESW7AECVHK3","5.0.14.0","2","197","trial1","naming","0","0","0","0","cheesecake","0","4738","1","White_Screen.jpg","10","2","Cake_Cheese.jpg","10"
"052119","20:18:17","38673829","A36ESW7AECVHK3","5.0.14.0","2","198","trial1","naming","0","0","0","0","bench","0","3897","1","White_Screen.jpg","8","36","Table_Picnic.jpg","8"
"052119","20:18:17","38673829","A36ESW7AECVHK3","5.0.14.0","2","199","trial1","naming","0","0","0","0","safety pin","0","4742","1","White_Screen.jpg","10","94","SafetyPin.jpg","10"
"052119","20:18:17","38673829","A36ESW7AECVHK3","5.0.14.0","2","200","trial1","naming","0","0","0","0","toiletry bag","0","9142","1","White_Screen.jpg","9","158","Case_Leather.jpg","9"
"052119","20:18:17","38673829","A36ESW7AECVHK3","5.0.14.0","2","201","trial1","naming","0","0","0","0","bikini top","0","5086","1","White_Screen.jpg","9","63","BikiniTop.jpg","9"
"052119","20:18:17","38673829","A36ESW7AECVHK3","5.0.14.0","2","202","trial1","naming","0","0","0","0","mixer","0","6396","1","White_Screen.jpg","12","16","FoodMill.jpg","12"
"052119","20:18:17","38673829","A36ESW7AECVHK3","5.0.14.0","2","203","trial1","naming","0","0","0","0","pepe","0","10000","1","White_Screen.jpg","8","67","Peppermill.jpg","8"
"052119","20:18:17","38673829","A36ESW7AECVHK3","5.0.14.0","3","1","demographics_block","gender","0","0","0","0","Female","1","10753","0","0","0","0","0","0"
"052119","20:18:17","38673829","A36ESW7AECVHK3","5.0.14.0","3","1","demographics_block","age","0","0","0","0","44","1","10753","0","0","0","0","0","0"
"052119","20:18:17","38673829","A36ESW7AECVHK3","5.0.14.0","3","1","demographics_block","education","0","0","0","0","14","1","10753","0","0","0","0","0","0"
"052119","20:18:17","38673829","A36ESW7AECVHK3","5.0.14.0","3","2","demographics_block","left_right_handed","0","0","0","0","Left","1","9819","0","0","0","0","0","0"
"052119","20:18:17","38673829","A36ESW7AECVHK3","5.0.14.0","3","2","demographics_block","raceoption1","0","0","0","0","0","1","9819","0","0","0","0","0","0"
"052119","20:18:17","38673829","A36ESW7AECVHK3","5.0.14.0","3","2","demographics_block","raceoption2","0","0","0","0","","1","9819","0","0","0","0","0","0"
"052119","20:18:17","38673829","A36ESW7AECVHK3","5.0.14.0","3","2","demographics_block","raceoption3","0","0","0","0","","1","9819","0","0","0","0","0","0"
"052119","20:18:17","38673829","A36ESW7AECVHK3","5.0.14.0","3","2","demographics_block","raceoption4","0","0","0","0","","1","9819","0","0","0","0","0","0"
"052119","20:18:17","38673829","A36ESW7AECVHK3","5.0.14.0","3","2","demographics_block","raceoption5","0","0","0","0","","1","9819","0","0","0","0","0","0"
"052119","20:18:17","38673829","A36ESW7AECVHK3","5.0.14.0","3","2","demographics_block","raceoption6","0","0","0","0","","1","9819","0","0","0","0","0","0"
"052119","20:18:17","38673829","A36ESW7AECVHK3","5.0.14.0","3","2","demographics_block","raceoption7","0","0","0","0","","1","9819","0","0","0","0","0","0"
"052119","20:18:17","38673829","A36ESW7AECVHK3","5.0.14.0","3","2","demographics_block","raceoption8","0","0","0","0","","1","9819","0","0","0","0","0","0"
"052119","20:18:17","38673829","A36ESW7AECVHK3","5.0.14.0","3","2","demographics_block","raceoption9","0","0","0","0","","1","9819","0","0","0","0","0","0"
"052119","20:18:17","38673829","A36ESW7AECVHK3","5.0.14.0","3","2","demographics_block","raceother","0","0","0","0","","1","9819","0","0","0","0","0","0"
"052119","20:18:17","38673829","A36ESW7AECVHK3","5.0.14.0","3","2","demographics_block","raceother","0","0","0","0","","1","9819","0","0","0","0","0","0"
"052119","20:18:17","38673829","A36ESW7AECVHK3","5.0.14.0","3","2","demographics_block","english_language","0","0","0","0","Yes","1","9819","0","0","0","0","0","0"
"052119","20:18:17","38673829","A36ESW7AECVHK3","5.0.14.0","3","2","demographics_block","english_languageother","0","0","0","0","","1","9819","0","0","0","0","0","0"
"052119","20:18:17","38673829","A36ESW7AECVHK3","5.0.14.0","3","3","demographics_block","eyesight","0","0","0","0","Yes","1","8224","0","0","0","0","0","0"
"052119","20:18:17","38673829","A36ESW7AECVHK3","5.0.14.0","3","3","demographics_block","colorblind","0","0","0","0","No","1","8224","0","0","0","0","0","0"
"052119","20:18:17","38673829","A36ESW7AECVHK3","5.0.14.0","4","1","worker_id_block","worker_id_textbox","0","0","0","0","A36ESW7AECVHK3","1","7568","0","0","0","0","0","0"
"052719","10:54:55","742288572","A3SKEW89V5S0DI","5.0.14.0","2","1","trial1","naming","0","0","0","0","taxi","0","4178","1","White_Screen.jpg","120","121","Toy_Taxi.jpg","120"
"052719","10:54:55","742288572","A3SKEW89V5S0DI","5.0.14.0","2","2","trial1","naming","0","0","0","0","spoons","0","2998","1","White_Screen.jpg","9","82","Spoons_Musical.jpg","9"
"052719","10:54:55","742288572","A3SKEW89V5S0DI","5.0.14.0","2","3","trial1","naming","0","0","0","0","mask","0","2199","1","White_Screen.jpg","12","13","Mask_Happy.jpg","12"
"052719","10:54:55","742288572","A3SKEW89V5S0DI","5.0.14.0","2","4","trial1","naming","0","0","0","0","ferret","0","2327","1","White_Screen.jpg","6","200","Ferret.jpg","6"
"052719","10:54:55","742288572","A3SKEW89V5S0DI","5.0.14.0","2","5","trial1","naming","0","0","0","0","bird","0","5840","1","White_Screen.jpg","10","50","Origami_Bird.jpg","10"
"052719","10:54:55","742288572","A3SKEW89V5S0DI","5.0.14.0","2","6","trial1","naming","0","0","0","0","rover","0","4907","1","White_Screen.jpg","5","20","SpaceRover.jpg","5"
"052719","10:54:55","742288572","A3SKEW89V5S0DI","5.0.14.0","2","7","trial1","naming","0","0","0","0","q-tip","0","6216","1","White_Screen.jpg","18","105","Qtip_Multiple.jpg","18"
"052719","10:54:55","742288572","A3SKEW89V5S0DI","5.0.14.0","2","8","trial1","naming","0","0","0","0","fudgsicle","0","8469","1","White_Screen.jpg","25","114","IceCream_Popsicle.jpg","25"
"052719","10:54:55","742288572","A3SKEW89V5S0DI","5.0.14.0","2","9","trial1","naming","0","0","0","0","cannoli","0","8065","1","White_Screen.jpg","8","54","Cannoli.jpg","8"
"052719","10:54:55","742288572","A3SKEW89V5S0DI","5.0.14.0","2","10","trial1","naming","0","0","0","0","fish","0","5891","1","White_Screen.jpg","11","7","Fish_Rockbass.jpg","11"
"052719","10:54:55","742288572","A3SKEW89V5S0DI","5.0.14.0","2","11","trial1","naming","0","0","0","0","notebook and pen","0","5817","1","White_Screen.jpg","7","127","Notepad_WithPen.jpg","7"
"052719","10:54:55","742288572","A3SKEW89V5S0DI","5.0.14.0","2","12","trial1","naming","0","0","0","0","pepper grinder","0","6794","1","White_Screen.jpg","18","67","Peppermill.jpg","18"
"052719","10:54:55","742288572","A3SKEW89V5S0DI","5.0.14.0","2","13","trial1","naming","0","0","0","0","bottle opener","0","4728","1","White_Screen.jpg","8","53","Peeler.jpg","8"
"052719","10:54:55","742288572","A3SKEW89V5S0DI","5.0.14.0","2","14","trial1","naming","0","0","0","0","q-tip","0","3763","1","White_Screen.jpg","7","155","Qtip_Single.jpg","7"
"052719","10:54:55","742288572","A3SKEW89V5S0DI","5.0.14.0","2","15","trial1","naming","0","0","0","0","wooden eggs","0","6353","1","White_Screen.jpg","13","11","Egg_Wooden.jpg","13"
"052719","10:54:55","742288572","A3SKEW89V5S0DI","5.0.14.0","2","16","trial1","naming","0","0","0","0","fruit salad","0","7070","1","White_Screen.jpg","6","162","Bowl_Fruits.jpg","6"
"052719","10:54:55","742288572","A3SKEW89V5S0DI","5.0.14.0","2","17","trial1","naming","0","0","0","0","peacock","0","3947","1","White_Screen.jpg","11","122","Bird_Peacock.jpg","11"
"052719","10:54:55","742288572","A3SKEW89V5S0DI","5.0.14.0","2","18","trial1","naming","0","0","0","0","dumptruck","0","8729","1","White_Screen.jpg","51","48","Truck_Dump.jpg","51"
"052719","10:54:55","742288572","A3SKEW89V5S0DI","5.0.14.0","2","19","trial1","naming","0","0","0","0","weather vane","0","6615","1","White_Screen.jpg","8","77","Weathervane.jpg","8"
"052719","10:54:55","742288572","A3SKEW89V5S0DI","5.0.14.0","2","20","trial1","naming","0","0","0","0","curling iron","0","6977","1","White_Screen.jpg","10","108","Pipette.jpg","10"
"052719","10:54:55","742288572","A3SKEW89V5S0DI","5.0.14.0","2","21","trial1","naming","0","0","0","0","silo","0","2798","1","White_Screen.jpg","13","97","SiloGrain.jpg","13"
"052719","10:54:55","742288572","A3SKEW89V5S0DI","5.0.14.0","2","22","trial1","naming","0","0","0","0","paper","0","3081","1","White_Screen.jpg","8","182","Box_Notepaper.jpg","8"
"052719","10:54:55","742288572","A3SKEW89V5S0DI","5.0.14.0","2","23","trial1","naming","0","0","0","0","sarcophagus","0","8327","1","White_Screen.jpg","14","55","Jar_Canopic.jpg","14"
"052719","10:54:55","742288572","A3SKEW89V5S0DI","5.0.14.0","2","24","trial1","naming","0","0","0","0","breaker panel","0","5611","1","White_Screen.jpg","37","185","PhoneJack.jpg","37"
"052719","10:54:55","742288572","A3SKEW89V5S0DI","5.0.14.0","2","25","trial1","naming","0","0","0","0","ornament","0","6156","1","White_Screen.jpg","7","171","Decoration_ChristmasWhite.jpg","7"
"052719","10:54:55","742288572","A3SKEW89V5S0DI","5.0.14.0","2","26","trial1","naming","0","0","0","0","external hard dri","0","10000","1","White_Screen.jpg","9","154","HardDrive.jpg","9"
"052719","10:54:55","742288572","A3SKEW89V5S0DI","5.0.14.0","2","27","trial1","naming","0","0","0","0","tea strainer","0","5278","1","White_Screen.jpg","7","83","Strainer_Tea.jpg","7"
"052719","10:54:55","742288572","A3SKEW89V5S0DI","5.0.14.0","2","28","trial1","naming","0","0","0","0","life jacket","0","4495","1","White_Screen.jpg","7","163","LifeJacket_BlueYellow.jpg","7"
"052719","10:54:55","742288572","A3SKEW89V5S0DI","5.0.14.0","2","29","trial1","naming","0","0","0","0","trash can","0","5981","1","White_Screen.jpg","14","123","Garbage_GreenBin.jpg","14"
"052719","10:54:55","742288572","A3SKEW89V5S0DI","5.0.14.0","2","30","trial1","naming","0","0","0","0","teddy bear","0","4500","1","White_Screen.jpg","10","142","Toy_BearBluePlushie.jpg","10"
"052719","10:54:55","742288572","A3SKEW89V5S0DI","5.0.14.0","2","31","trial1","naming","0","0","0","0","starfruit","0","6764","1","White_Screen.jpg","10","17","Fruit_Carambola.jpg","10"
"052719","10:54:55","742288572","A3SKEW89V5S0DI","5.0.14.0","2","32","trial1","naming","0","0","0","0","plant","0","3204","1","White_Screen.jpg","10","176","PlantPotted.jpg","10"
"052719","10:54:55","742288572","A3SKEW89V5S0DI","5.0.14.0","2","33","trial1","naming","0","0","0","0","napkinholder and nap","0","10000","1","White_Screen.jpg","24","109","Napkin_Holder.jpg","24"
"052719","10:54:55","742288572","A3SKEW89V5S0DI","5.0.14.0","2","34","trial1","naming","0","0","0","0","easel","0","3330","1","White_Screen.jpg","11","184","PaintBrushAndPallette.jpg","11"
"052719","10:54:55","742288572","A3SKEW89V5S0DI","5.0.14.0","2","35","trial1","naming","0","0","0","0","mitten","0","3052","1","White_Screen.jpg","8","188","Mitt_Blue.jpg","8"
"052719","10:54:55","742288572","A3SKEW89V5S0DI","5.0.14.0","2","36","trial1","naming","0","0","0","0","hat","0","1832","1","White_Screen.jpg","14","111","Hat_Colonial.jpg","14"
"052719","10:54:55","742288572","A3SKEW89V5S0DI","5.0.14.0","2","37","trial1","naming","0","0","0","0","vise","0","2695","1","White_Screen.jpg","7","21","Clamp_Screw.jpg","7"
"052719","10:54:55","742288572","A3SKEW89V5S0DI","5.0.14.0","2","38","trial1","naming","0","0","0","0","mask","0","1822","1","White_Screen.jpg","12","92","Mask_Buddhist.jpg","12"
"052719","10:54:55","742288572","A3SKEW89V5S0DI","5.0.14.0","2","39","trial1","naming","0","0","0","0","coconut","0","3343","1","White_Screen.jpg","6","85","Coconut.jpg","6"
"052719","10:54:55","742288572","A3SKEW89V5S0DI","5.0.14.0","2","40","trial1","naming","0","0","0","0","mirror","0","3889","1","White_Screen.jpg","10","91","Mirror_Carside.jpg","10"
"052719","10:54:55","742288572","A3SKEW89V5S0DI","5.0.14.0","2","41","trial1","naming","0","0","0","0","compressor","0","4082","1","White_Screen.jpg","18","191","Compressor.jpg","18"
"052719","10:54:55","742288572","A3SKEW89V5S0DI","5.0.14.0","2","42","trial1","naming","0","0","0","0","tag","0","2718","1","White_Screen.jpg","6","15","Tag_Price.jpg","6"
"052719","10:54:55","742288572","A3SKEW89V5S0DI","5.0.14.0","2","43","trial1","naming","0","0","0","0","light","0","2174","1","White_Screen.jpg","11","125","Spotlight.jpg","11"
"052719","10:54:55","742288572","A3SKEW89V5S0DI","5.0.14.0","2","44","trial1","naming","0","0","0","0","thermometer","0","5020","1","White_Screen.jpg","10","118","Thermometer_Room.jpg","10"
"052719","10:54:55","742288572","A3SKEW89V5S0DI","5.0.14.0","2","45","trial1","naming","0","0","0","0","puma","0","2811","1","White_Screen.jpg","7","117","Cougar.jpg","7"
"052719","10:54:55","742288572","A3SKEW89V5S0DI","5.0.14.0","2","46","trial1","naming","0","0","0","0","toiletrybag","0","6898","1","White_Screen.jpg","7","183","Bag_Toiletry.jpg","7"
"052719","10:54:55","742288572","A3SKEW89V5S0DI","5.0.14.0","2","47","trial1","naming","0","0","0","0","wagon","0","2510","1","White_Screen.jpg","14","179","WagonPilgrim.jpg","14"
"052719","10:54:55","742288572","A3SKEW89V5S0DI","5.0.14.0","2","48","trial1","naming","0","0","0","0","bubble blowe","0","5478","1","White_Screen.jpg","12","44","Bottle_BubbleBlower.jpg","12"
"052719","10:54:55","742288572","A3SKEW89V5S0DI","5.0.14.0","2","49","trial1","naming","0","0","0","0","video game controller","0","10000","1","White_Screen.jpg","7","52","Joystick.jpg","7"
"052719","10:54:55","742288572","A3SKEW89V5S0DI","5.0.14.0","2","50","trial1","naming","0","0","0","0","Enter Name","0","158","1","White_Screen.jpg","5","69","Candy_Cotton.jpg","5"
"052719","10:54:55","742288572","A3SKEW89V5S0DI","5.0.14.0","2","52","trial1","naming","0","0","0","0","ring","0","1880","1","White_Screen.jpg","14","93","Ring_Plain.jpg","14"
"052719","10:54:55","742288572","A3SKEW89V5S0DI","5.0.14.0","2","53","trial1","naming","0","0","0","0","kazoo","0","3477","1","White_Screen.jpg","10","135","Kazoo.jpg","10"
"052719","10:54:55","742288572","A3SKEW89V5S0DI","5.0.14.0","2","54","trial1","naming","0","0","0","0","bulldozer","0","4905","1","White_Screen.jpg","13","34","Bulldozer.jpg","13"
"052719","10:54:55","742288572","A3SKEW89V5S0DI","5.0.14.0","2","55","trial1","naming","0","0","0","0","ice scraper","0","5578","1","White_Screen.jpg","9","41","Brush_Winter.jpg","9"
"052719","10:54:55","742288572","A3SKEW89V5S0DI","5.0.14.0","2","56","trial1","naming","0","0","0","0","snowshoes","0","3808","1","White_Screen.jpg","8","101","Shoes_Snow.jpg","8"
"052719","10:54:55","742288572","A3SKEW89V5S0DI","5.0.14.0","2","57","trial1","naming","0","0","0","0","nickel","0","4050","1","White_Screen.jpg","8","116","Coin.jpg","8"
"052719","10:54:55","742288572","A3SKEW89V5S0DI","5.0.14.0","2","58","trial1","naming","0","0","0","0","food mill","0","4835","1","White_Screen.jpg","17","16","FoodMill.jpg","17"
"052719","10:54:55","742288572","A3SKEW89V5S0DI","5.0.14.0","2","59","trial1","naming","0","0","0","0","bell pepper","0","4023","1","White_Screen.jpg","22","10","Pepper_Green.jpg","22"
"052719","10:54:55","742288572","A3SKEW89V5S0DI","5.0.14.0","2","60","trial1","naming","0","0","0","0","bandaid","0","3583","1","White_Screen.jpg","16","129","Bandage_Adhesive.jpg","16"
"052719","10:54:55","742288572","A3SKEW89V5S0DI","5.0.14.0","2","61","trial1","naming","0","0","0","0","cookie cutter","0","6740","1","White_Screen.jpg","9","103","CookieCutter_Tree.jpg","9"
"052719","10:54:55","742288572","A3SKEW89V5S0DI","5.0.14.0","2","62","trial1","naming","0","0","0","0","life vest","0","3619","1","White_Screen.jpg","7","126","LifeJacket_Orangejpg.jpg","7"
"052719","10:54:55","742288572","A3SKEW89V5S0DI","5.0.14.0","2","63","trial1","naming","0","0","0","0","toolbox","0","3683","1","White_Screen.jpg","10","68","Toolbox_Red.jpg","10"
"052719","10:54:55","742288572","A3SKEW89V5S0DI","5.0.14.0","2","64","trial1","naming","0","0","0","0","shampoo","0","3507","1","White_Screen.jpg","12","47","Shampoo.jpg","12"
"052719","10:54:55","742288572","A3SKEW89V5S0DI","5.0.14.0","2","65","trial1","naming","0","0","0","0","pool table","0","5016","1","White_Screen.jpg","27","86","Table_Pool.jpg","27"
"052719","10:54:55","742288572","A3SKEW89V5S0DI","5.0.14.0","2","66","trial1","naming","0","0","0","0","cheesecake","0","3522","1","White_Screen.jpg","6","2","Cake_Cheese.jpg","6"
"052719","10:54:55","742288572","A3SKEW89V5S0DI","5.0.14.0","2","67","trial1","naming","0","0","0","0","bobber","0","5052","1","White_Screen.jpg","6","35","Diode.jpg","6"
"052719","10:54:55","742288572","A3SKEW89V5S0DI","5.0.14.0","2","68","trial1","naming","0","0","0","0","swing","0","3510","1","White_Screen.jpg","22","104","Swing_Porch.jpg","22"
"052719","10:54:55","742288572","A3SKEW89V5S0DI","5.0.14.0","2","69","trial1","naming","0","0","0","0","castle","0","2781","1","White_Screen.jpg","10","9","Castle_Model.jpg","10"
"052719","10:54:55","742288572","A3SKEW89V5S0DI","5.0.14.0","2","70","trial1","naming","0","0","0","0","nail polish","0","4081","1","White_Screen.jpg","24","27","Makeup_Foundation.jpg","24"
"052719","10:54:55","742288572","A3SKEW89V5S0DI","5.0.14.0","2","71","trial1","naming","0","0","0","0","thermostat","0","3838","1","White_Screen.jpg","14","175","Thermostat.jpg","14"
"052719","10:54:55","742288572","A3SKEW89V5S0DI","5.0.14.0","2","72","trial1","naming","0","0","0","0","dulcimer","0","5986","1","White_Screen.jpg","14","115","Instrument_Nyckelharpa.jpg","14"
"052719","10:54:55","742288572","A3SKEW89V5S0DI","5.0.14.0","2","73","trial1","naming","0","0","0","0","basket","0","4241","1","White_Screen.jpg","10","98","Basket_Plastic.jpg","10"
"052719","10:54:55","742288572","A3SKEW89V5S0DI","5.0.14.0","2","74","trial1","naming","0","0","0","0","vase","0","3578","1","White_Screen.jpg","13","189","Vase_Decorative.jpg","13"
"052719","10:54:55","742288572","A3SKEW89V5S0DI","5.0.14.0","2","75","trial1","naming","0","0","0","0","shoestring","0","5229","1","White_Screen.jpg","8","75","ShoeLace_Round.jpg","8"
"052719","10:54:55","742288572","A3SKEW89V5S0DI","5.0.14.0","2","76","trial1","naming","0","0","0","0","canister","0","3731","1","White_Screen.jpg","6","18","AirTank.jpg","6"
"052719","10:54:55","742288572","A3SKEW89V5S0DI","5.0.14.0","2","77","trial1","naming","0","0","0","0","game","0","2980","1","White_Screen.jpg","13","138","SandBagThrowGame.jpg","13"
"052719","10:54:55","742288572","A3SKEW89V5S0DI","5.0.14.0","2","78","trial1","naming","0","0","0","0","donut","0","3726","1","White_Screen.jpg","7","25","Donut.jpg","7"
"052719","10:54:55","742288572","A3SKEW89V5S0DI","5.0.14.0","2","79","trial1","naming","0","0","0","0","spring","0","2402","1","White_Screen.jpg","6","149","MechanicalSpring.jpg","6"
"052719","10:54:55","742288572","A3SKEW89V5S0DI","5.0.14.0","2","80","trial1","naming","0","0","0","0","popcorn","0","3268","1","White_Screen.jpg","9","84","Popcorn.jpg","9"
"052719","10:54:55","742288572","A3SKEW89V5S0DI","5.0.14.0","2","81","trial1","naming","0","0","0","0","protein powder","0","7225","1","White_Screen.jpg","17","42","PowderProtein.jpg","17"
"052719","10:54:55","742288572","A3SKEW89V5S0DI","5.0.14.0","2","82","trial1","naming","0","0","0","0","mouse and pad","0","4852","1","White_Screen.jpg","7","148","MousepadAndMouse.jpg","7"
"052719","10:54:55","742288572","A3SKEW89V5S0DI","5.0.14.0","2","83","trial1","naming","0","0","0","0","shears","0","5614","1","White_Screen.jpg","6","40","Clippers_Glass.jpg","6"
"052719","10:54:55","742288572","A3SKEW89V5S0DI","5.0.14.0","2","84","trial1","naming","0","0","0","0","pacifier","0","5464","1","White_Screen.jpg","8","151","Pacifier.jpg","8"
"052719","10:54:55","742288572","A3SKEW89V5S0DI","5.0.14.0","2","85","trial1","naming","0","0","0","0","pot","0","6634","1","White_Screen.jpg","16","134","Pot_Cooking.jpg","16"
"052719","10:54:55","742288572","A3SKEW89V5S0DI","5.0.14.0","2","86","trial1","naming","0","0","0","0","light","0","4480","1","White_Screen.jpg","9","72","LightBulb_Christmas.jpg","9"
"052719","10:54:55","742288572","A3SKEW89V5S0DI","5.0.14.0","2","87","trial1","naming","0","0","0","0","beanbag","0","5688","1","White_Screen.jpg","15","4","Chair_BeanBag.jpg","15"
"052719","10:54:55","742288572","A3SKEW89V5S0DI","5.0.14.0","2","88","trial1","naming","0","0","0","0","statue","0","3066","1","White_Screen.jpg","14","177","Statue_Jesus.jpg","14"
"052719","10:54:55","742288572","A3SKEW89V5S0DI","5.0.14.0","2","89","trial1","naming","0","0","0","0","cracker","0","3760","1","White_Screen.jpg","8","168","Stone_AncientWriting.jpg","8"
"052719","10:54:55","742288572","A3SKEW89V5S0DI","5.0.14.0","2","90","trial1","naming","0","0","0","0","panda bear","0","4326","1","White_Screen.jpg","15","81","Toy_PandaPlushie.jpg","15"
"052719","10:54:55","742288572","A3SKEW89V5S0DI","5.0.14.0","2","91","trial1","naming","0","0","0","0","coffee lid","0","5955","1","White_Screen.jpg","9","31","CoffeeLid.jpg","9"
"052719","10:54:55","742288572","A3SKEW89V5S0DI","5.0.14.0","2","92","trial1","naming","0","0","0","0","zebra","0","3358","1","White_Screen.jpg","11","169","Toy_Zebra.jpg","11"
"052719","10:54:55","742288572","A3SKEW89V5S0DI","5.0.14.0","2","93","trial1","naming","0","0","0","0","dog food","0","3273","1","White_Screen.jpg","11","174","DogFood.jpg","11"
"052719","10:54:55","742288572","A3SKEW89V5S0DI","5.0.14.0","2","94","trial1","naming","0","0","0","0","tortilla","0","2649","1","White_Screen.jpg","10","1","Tortilla.jpg","10"
"052719","10:54:55","742288572","A3SKEW89V5S0DI","5.0.14.0","2","95","trial1","naming","0","0","0","0","shark","0","3251","1","White_Screen.jpg","11","12","Shark_GreatWhite.jpg","11"
"052719","10:54:55","742288572","A3SKEW89V5S0DI","5.0.14.0","2","96","trial1","naming","0","0","0","0","flower","0","3293","1","White_Screen.jpg","22","61","Flower_Sun.jpg","22"
"052719","10:54:55","742288572","A3SKEW89V5S0DI","5.0.14.0","2","97","trial1","naming","0","0","0","0","pillow","0","2573","1","White_Screen.jpg","7","161","Pillow_Plaid.jpg","7"
"052719","10:54:55","742288572","A3SKEW89V5S0DI","5.0.14.0","2","98","trial1","naming","0","0","0","0","greens","0","2521","1","White_Screen.jpg","9","24","Alfalfa.jpg","9"
"052719","10:54:55","742288572","A3SKEW89V5S0DI","5.0.14.0","2","99","trial1","naming","0","0","0","0","lamp","0","2703","1","White_Screen.jpg","7","107","Lamp_TableWhite.jpg","7"
"052719","10:54:55","742288572","A3SKEW89V5S0DI","5.0.14.0","2","100","trial1","naming","0","0","0","0","merry go round","0","5700","1","White_Screen.jpg","11","146","Carousel.jpg","11"
"052719","10:54:55","742288572","A3SKEW89V5S0DI","5.0.14.0","2","101","trial1","naming","0","0","0","0","almond","0","2549","1","White_Screen.jpg","9","64","Almond.jpg","9"
"052719","10:54:55","742288572","A3SKEW89V5S0DI","5.0.14.0","2","103","trial1","naming","0","0","0","0","compass","0","3305","1","White_Screen.jpg","9","39","CompassCardinal.jpg","9"
"052719","10:54:55","742288572","A3SKEW89V5S0DI","5.0.14.0","2","104","trial1","naming","0","0","0","0","hanger","0","3010","1","White_Screen.jpg","9","102","Hanger.jpg","9"
"052719","10:54:55","742288572","A3SKEW89V5S0DI","5.0.14.0","2","105","trial1","naming","0","0","0","0","lighter","0","2519","1","White_Screen.jpg","5","22","Lighter_Black.jpg","5"
"052719","10:54:55","742288572","A3SKEW89V5S0DI","5.0.14.0","2","106","trial1","naming","0","0","0","0","sled","0","5269","1","White_Screen.jpg","10","165","BoogieBoard.jpg","10"
"052719","10:54:55","742288572","A3SKEW89V5S0DI","5.0.14.0","2","107","trial1","naming","0","0","0","0","hose","0","3160","1","White_Screen.jpg","12","100","Catheter.jpg","12"
"052719","10:54:55","742288572","A3SKEW89V5S0DI","5.0.14.0","2","108","trial1","naming","0","0","0","0","trashbag","0","5066","1","White_Screen.jpg","5","164","Bag_Garbage.jpg","5"
"052719","10:54:55","742288572","A3SKEW89V5S0DI","5.0.14.0","2","109","trial1","naming","0","0","0","0","printer","0","2539","1","White_Screen.jpg","8","95","Printer.jpg","8"
"052719","10:54:55","742288572","A3SKEW89V5S0DI","5.0.14.0","2","110","trial1","naming","0","0","0","0","telescope","0","3026","1","White_Screen.jpg","22","156","Telescope.jpg","22"
"052719","10:54:55","742288572","A3SKEW89V5S0DI","5.0.14.0","2","111","trial1","naming","0","0","0","0","bag","0","4710","1","White_Screen.jpg","10","158","Case_Leather.jpg","10"
"052719","10:54:55","742288572","A3SKEW89V5S0DI","5.0.14.0","2","112","trial1","naming","0","0","0","0","camera","0","2942","1","White_Screen.jpg","6","140","Camera_Security.jpg","6"
"052719","10:54:55","742288572","A3SKEW89V5S0DI","5.0.14.0","2","113","trial1","naming","0","0","0","0","bowl","0","2045","1","White_Screen.jpg","13","65","Bowl_Wooden.jpg","13"
