"date","time","group","subject","build","blocknum","trialnum","blockcode","trialcode","pretrialpause","posttrialpause","trialduration","trialtimeout","response","correct","latency","stimulusnumber1","stimulusitem1","stimulusonset1","stimulusnumber2","stimulusitem2","stimulusonset2"
"070519","15:44:37","1","1","5.0.14.0","2","1","trial1","naming","0","0","0","0","cracker","0","4993","1","White_Screen.jpg","34","51","Toast.jpg","34"
"070519","15:44:37","1","1","5.0.14.0","2","2","trial1","naming","0","0","0","0","ladybug","0","2389","1","White_Screen.jpg","17","163","Ladybug.jpg","17"
"070519","15:44:37","1","1","5.0.14.0","2","3","trial1","naming","0","0","0","0","Ctrl+'Q'","1","5379","1","White_Screen.jpg","18","8","Defribrillator.jpg","18"
"070819","11:07:32","2","2","5.0.14.0","2","1","trial1","naming","0","0","0","0","bib","0","3613","1","White_Screen.jpg","50","126","Bib.jpg","50"
"070819","11:07:32","2","2","5.0.14.0","2","2","trial1","naming","0","0","0","0","pencil case","0","2722","1","White_Screen.jpg","18","75","PencilCase.jpg","18"
"070819","11:07:32","2","2","5.0.14.0","2","3","trial1","naming","0","0","0","0","cone","0","1731","1","White_Screen.jpg","18","197","IceCreamCone.jpg","18"
"070819","11:07:32","2","2","5.0.14.0","2","4","trial1","naming","0","0","0","0","knee","0","3195","1","White_Screen.jpg","18","181","Knee.jpg","18"
"070819","11:07:32","2","2","5.0.14.0","2","5","trial1","naming","0","0","0","0","jeans","0","1823","1","White_Screen.jpg","19","42","Pants_Jeans.jpg","19"
"070819","11:07:32","2","2","5.0.14.0","2","6","trial1","naming","0","0","0","0","gem","0","2308","1","White_Screen.jpg","18","24","Quartz.jpg","18"
"070819","11:07:32","2","2","5.0.14.0","2","7","trial1","naming","0","0","0","0","flip flop","0","2677","1","White_Screen.jpg","18","158","FlipFlop_SingleRed.jpg","18"
"070819","11:07:32","2","2","5.0.14.0","2","8","trial1","naming","0","0","0","0","Ctrl+'Q'","1","3006","1","White_Screen.jpg","18","118","Toy_Lighthouse.jpg","18"
"070819","08:39:02","9","9","5.0.14.0","2","1","trial1","naming","0","0","0","0","arch","0","3761","1","White_Screen.jpg","33","166","Arch_Triomphe.jpg","33"
"070819","08:39:02","9","9","5.0.14.0","2","2","trial1","naming","0","0","0","0","milk bottle","0","3677","1","White_Screen.jpg","5","194","Bottle_Baby.jpg","5"
"070819","08:39:02","9","9","5.0.14.0","2","3","trial1","naming","0","0","0","0","pitcher","0","2537","1","White_Screen.jpg","4","44","Pitcher.jpg","4"
"070819","08:39:02","9","9","5.0.14.0","2","4","trial1","naming","0","0","0","0","musical instrument","0","6671","1","White_Screen.jpg","0","93","Instrument_African.jpg","0"
"070819","08:39:02","9","9","5.0.14.0","2","5","trial1","naming","0","0","0","0","walker","0","2242","1","White_Screen.jpg","0","125","Walker_Silver.jpg","0"
"070819","08:39:02","9","9","5.0.14.0","2","6","trial1","naming","0","0","0","0","flipflop","0","3449","1","White_Screen.jpg","4","158","FlipFlop_SingleRed.jpg","4"
"070819","08:39:02","9","9","5.0.14.0","2","7","trial1","naming","0","0","0","0","knee","0","2138","1","White_Screen.jpg","4","181","Knee.jpg","4"
"070819","08:39:02","9","9","5.0.14.0","2","8","trial1","naming","0","0","0","0","doorway","0","2571","1","White_Screen.jpg","4","123","Door_Green.jpg","4"
"070819","08:39:02","9","9","5.0.14.0","2","9","trial1","naming","0","0","0","0","wallet","0","2040","1","White_Screen.jpg","4","11","Wallet_ClosedBrown.jpg","4"
"070819","08:39:02","9","9","5.0.14.0","2","10","trial1","naming","0","0","0","0","scissors","0","2872","1","White_Screen.jpg","0","52","Scissors.jpg","0"
"070819","08:39:02","9","9","5.0.14.0","2","11","trial1","naming","0","0","0","0","bucket","0","2911","1","White_Screen.jpg","5","170","Bucket_WoodenLight.jpg","5"
"070819","08:39:02","9","9","5.0.14.0","2","12","trial1","naming","0","0","0","0","trailer","0","2241","1","White_Screen.jpg","-3","15","BoxTrailer.jpg","-3"
"070819","08:39:02","9","9","5.0.14.0","2","13","trial1","naming","0","0","0","0","luggage tag","0","3361","1","White_Screen.jpg","0","31","Tag_Identifier.jpg","0"
"070819","08:39:02","9","9","5.0.14.0","2","14","trial1","naming","0","0","0","0","cocktail","0","3112","1","White_Screen.jpg","4","20","Drink_Cocktail.jpg","4"
"070819","08:39:02","9","9","5.0.14.0","2","15","trial1","naming","0","0","0","0","lanten","0","3900","1","White_Screen.jpg","5","12","Lantern_Chinese.jpg","5"
"070819","08:39:02","9","9","5.0.14.0","2","16","trial1","naming","0","0","0","0","perfume","0","2999","1","White_Screen.jpg","0","87","Perfume.jpg","0"
"070819","08:39:02","9","9","5.0.14.0","2","17","trial1","naming","0","0","0","0","knee pads","0","4169","1","White_Screen.jpg","4","33","ShinPads.jpg","4"
"070819","08:39:02","9","9","5.0.14.0","2","18","trial1","naming","0","0","0","0","gold ball","0","3031","1","White_Screen.jpg","-1","104","Ball_Golf.jpg","-1"
"070819","08:39:02","9","9","5.0.14.0","2","19","trial1","naming","0","0","0","0","shopping cart","0","3305","1","White_Screen.jpg","2","63","ShoppingCart.jpg","2"
"070819","08:39:02","9","9","5.0.14.0","2","20","trial1","naming","0","0","0","0","gloves","0","2370","1","White_Screen.jpg","4","70","Gloves_Bicycle.jpg","4"
"070819","08:39:02","9","9","5.0.14.0","2","21","trial1","naming","0","0","0","0","party things","0","5729","1","White_Screen.jpg","4","184","Noisemaker_Streamers.jpg","4"
"070819","08:39:02","9","9","5.0.14.0","2","22","trial1","naming","0","0","0","0","suspenders","0","4373","1","White_Screen.jpg","-2","176","Suspenders.jpg","-2"
"070819","08:39:02","9","9","5.0.14.0","2","23","trial1","naming","0","0","0","0","slow cooker","0","4391","1","White_Screen.jpg","4","139","RiceCooker.jpg","4"
"070819","08:39:02","9","9","5.0.14.0","2","24","trial1","naming","0","0","0","0","puppet show","0","4531","1","White_Screen.jpg","4","71","PuppetTheatre_WhiteGold.jpg","4"
"070819","08:39:02","9","9","5.0.14.0","2","25","trial1","naming","0","0","0","0","pack n play","0","5307","1","White_Screen.jpg","4","146","Playard.jpg","4"
"070819","08:39:02","9","9","5.0.14.0","2","26","trial1","naming","0","0","0","0","peg","0","1713","1","White_Screen.jpg","4","136","Clothespin_Beige.jpg","4"
"070819","08:39:02","9","9","5.0.14.0","2","27","trial1","naming","0","0","0","0","crystal","0","3575","1","White_Screen.jpg","0","24","Quartz.jpg","0"
"070819","08:39:02","9","9","5.0.14.0","2","28","trial1","naming","0","0","0","0","fence","0","3171","1","White_Screen.jpg","4","129","Fence_ChainLink.jpg","4"
"070819","08:39:02","9","9","5.0.14.0","2","29","trial1","naming","0","0","0","0","chicken","0","3029","1","White_Screen.jpg","4","189","Toy_Chicken.jpg","4"
"070819","08:39:02","9","9","5.0.14.0","2","30","trial1","naming","0","0","0","0","eye looker","0","4792","1","White_Screen.jpg","4","96","EyeExamDevice.jpg","4"
"070819","08:39:02","9","9","5.0.14.0","2","31","trial1","naming","0","0","0","0","cheque","0","2979","1","White_Screen.jpg","0","6","Cheque.jpg","0"
"070819","08:39:02","9","9","5.0.14.0","2","32","trial1","naming","0","0","0","0","cracker","0","2670","1","White_Screen.jpg","-1","172","Cracker_Saltine.jpg","-1"
"070819","08:39:02","9","9","5.0.14.0","2","33","trial1","naming","0","0","0","0","sugar pot","0","3915","1","White_Screen.jpg","-2","135","Bowl_Sugar.jpg","-2"
"070819","08:39:02","9","9","5.0.14.0","2","34","trial1","naming","0","0","0","0","twig","0","1972","1","White_Screen.jpg","-2","111","Branch.jpg","-2"
"070819","08:39:02","9","9","5.0.14.0","2","35","trial1","naming","0","0","0","0","crusset","0","5357","1","White_Screen.jpg","-1","186","Pot_Crock.jpg","-1"
"070819","08:39:02","9","9","5.0.14.0","2","36","trial1","naming","0","0","0","0","bookshelf","0","3013","1","White_Screen.jpg","-3","171","BookShelf.jpg","-3"
"070819","08:39:02","9","9","5.0.14.0","2","37","trial1","naming","0","0","0","0","taco","0","2024","1","White_Screen.jpg","-2","177","Taco.jpg","-2"
"070819","08:39:02","9","9","5.0.14.0","2","38","trial1","naming","0","0","0","0","basketball","0","2583","1","White_Screen.jpg","4","152","BasketballHoop.jpg","4"
"070819","08:39:02","9","9","5.0.14.0","2","39","trial1","naming","0","0","0","0","game ","0","3201","1","White_Screen.jpg","-2","106","Book_Paper.jpg","-2"
"070819","08:39:02","9","9","5.0.14.0","2","40","trial1","naming","0","0","0","0","guord","0","4805","1","White_Screen.jpg","4","180","ShakerShekere.jpg","4"
"070819","08:39:02","9","9","5.0.14.0","2","41","trial1","naming","0","0","0","0","construction sign","0","4990","1","White_Screen.jpg","5","105","Sign_Construction.jpg","5"
"070819","08:39:02","9","9","5.0.14.0","2","42","trial1","naming","0","0","0","0","oil can","0","3422","1","White_Screen.jpg","4","62","Can_OilSpout.jpg","4"
"070819","08:39:02","9","9","5.0.14.0","2","43","trial1","naming","0","0","0","0","projector screen","0","5122","1","White_Screen.jpg","-2","192","ProjectorScreen.jpg","-2"
"070819","08:39:02","9","9","5.0.14.0","2","44","trial1","naming","0","0","0","0","basketball mitt","0","3810","1","White_Screen.jpg","-2","173","Glove_Baseball.jpg","-2"
"070819","08:39:02","9","9","5.0.14.0","2","45","trial1","naming","0","0","0","0","register","0","2419","1","White_Screen.jpg","4","67","CashRegister_Modern.jpg","4"
"070819","08:39:02","9","9","5.0.14.0","2","46","trial1","naming","0","0","0","0","bell","0","1728","1","White_Screen.jpg","-4","26","Bell_Hand.jpg","-4"
"070819","08:39:02","9","9","5.0.14.0","2","47","trial1","naming","0","0","0","0","pressure guage","0","3726","1","White_Screen.jpg","6","32","Gauge.jpg","6"
"070819","08:39:02","9","9","5.0.14.0","2","48","trial1","naming","0","0","0","0","handcuffs","0","2812","1","White_Screen.jpg","4","120","Handcuffs.jpg","4"
"070819","08:39:02","9","9","5.0.14.0","2","49","trial1","naming","0","0","0","0","burd","0","1648","1","White_Screen.jpg","4","156","Bird_Tern.jpg","4"
"070819","08:39:02","9","9","5.0.14.0","2","50","trial1","naming","0","0","0","0","potpuri","0","4453","1","White_Screen.jpg","0","3","ChiliFlakes.jpg","0"
"070819","08:39:02","9","9","5.0.14.0","2","52","trial1","naming","0","0","0","0","paddling pool","0","3586","1","White_Screen.jpg","5","84","KiddiePool.jpg","5"
"070819","08:39:02","9","9","5.0.14.0","2","53","trial1","naming","0","0","0","0","bowtie","0","1876","1","White_Screen.jpg","-2","28","Bowtie.jpg","-2"
"070819","08:39:02","9","9","5.0.14.0","2","54","trial1","naming","0","0","0","0","wine","0","1929","1","White_Screen.jpg","4","91","Crate_Wine.jpg","4"
"070819","08:39:02","9","9","5.0.14.0","2","55","trial1","naming","0","0","0","0","dolly","0","3335","1","White_Screen.jpg","4","99","Dolly.jpg","4"
"070819","08:39:02","9","9","5.0.14.0","2","56","trial1","naming","0","0","0","0","bowling ball","0","3049","1","White_Screen.jpg","4","49","Ball_Bowling.jpg","4"
"070819","08:39:02","9","9","5.0.14.0","2","57","trial1","naming","0","0","0","0","jet ski","0","3693","1","White_Screen.jpg","-2","58","Jetski.jpg","-2"
"070819","08:39:02","9","9","5.0.14.0","2","58","trial1","naming","0","0","0","0","bike lock","0","3353","1","White_Screen.jpg","4","174","Lock_Bike.jpg","4"
"070819","08:39:02","9","9","5.0.14.0","2","59","trial1","naming","0","0","0","0","camcorder","0","3437","1","White_Screen.jpg","5","21","Camera_ProfessionalFilm.jpg","5"
"070819","08:39:02","9","9","5.0.14.0","2","60","trial1","naming","0","0","0","0","money","0","2649","1","White_Screen.jpg","4","122","MoneyBill50.jpg","4"
"070819","08:39:02","9","9","5.0.14.0","2","61","trial1","naming","0","0","0","0","hole punch","0","4049","1","White_Screen.jpg","-1","22","Oneholepunch.jpg","-1"
"070819","08:39:02","9","9","5.0.14.0","2","62","trial1","naming","0","0","0","0","backpack with wheels","0","4748","1","White_Screen.jpg","4","140","Backpack_Suitcase.jpg","4"
"070819","08:39:02","9","9","5.0.14.0","2","63","trial1","naming","0","0","0","0","dish towel","0","3409","1","White_Screen.jpg","0","34","Towel.jpg","0"
"070819","08:39:02","9","9","5.0.14.0","2","64","trial1","naming","0","0","0","0","stamp","0","2306","1","White_Screen.jpg","-3","157","Stamper.jpg","-3"
"070819","08:39:02","9","9","5.0.14.0","2","65","trial1","naming","0","0","0","0","car seat","0","4762","1","White_Screen.jpg","4","54","Chair_Car.jpg","4"
"070819","08:39:02","9","9","5.0.14.0","2","66","trial1","naming","0","0","0","0","chocolate","0","4827","1","White_Screen.jpg","4","175","ChocolateBar_HalfUnwrapped.jpg","4"
"070819","08:39:02","9","9","5.0.14.0","2","67","trial1","naming","0","0","0","0","pizza cutter","0","2919","1","White_Screen.jpg","4","17","PizzaCutter.jpg","4"
"070819","08:39:02","9","9","5.0.14.0","2","68","trial1","naming","0","0","0","0","chimpanzee","0","6287","1","White_Screen.jpg","4","53","Chimpanzee.jpg","4"
"070819","08:39:02","9","9","5.0.14.0","2","69","trial1","naming","0","0","0","0","fire bell","0","4471","1","White_Screen.jpg","3","124","FireAlarm.jpg","3"
"070819","08:39:02","9","9","5.0.14.0","2","70","trial1","naming","0","0","0","0","helmet","0","2070","1","White_Screen.jpg","3","145","Helmet_Motorcycle.jpg","3"
"070819","08:39:02","9","9","5.0.14.0","2","71","trial1","naming","0","0","0","0","toast","0","6138","1","White_Screen.jpg","4","51","Toast.jpg","4"
"070819","08:39:02","9","9","5.0.14.0","2","72","trial1","naming","0","0","0","0","mr potato head","0","3650","1","White_Screen.jpg","4","59","Toy_MrPotatoHeadjpg.jpg","4"
"070819","08:39:02","9","9","5.0.14.0","2","73","trial1","naming","0","0","0","0","grenade","0","2510","1","White_Screen.jpg","0","187","Grenade.jpg","0"
"070819","08:39:02","9","9","5.0.14.0","2","74","trial1","naming","0","0","0","0","solution","0","3456","1","White_Screen.jpg","4","134","Beaker.jpg","4"
"070819","08:39:02","9","9","5.0.14.0","2","75","trial1","naming","0","0","0","0","tennis ball","0","2741","1","White_Screen.jpg","-1","37","Ball_Tennis.jpg","-1"
"070819","08:39:02","9","9","5.0.14.0","2","76","trial1","naming","0","0","0","0","exersice bike","0","4658","1","White_Screen.jpg","0","40","Exercise_Bike.jpg","0"
"070819","08:39:02","9","9","5.0.14.0","2","77","trial1","naming","0","0","0","0","helicopter","0","2519","1","White_Screen.jpg","-3","185","Helicopter.jpg","-3"
"070819","08:39:02","9","9","5.0.14.0","2","78","trial1","naming","0","0","0","0","grill","0","2633","1","White_Screen.jpg","-2","128","Barbecue_Charcoal.jpg","-2"
"070819","08:39:02","9","9","5.0.14.0","2","79","trial1","naming","0","0","0","0","stick","0","2911","1","White_Screen.jpg","-2","193","Cane_Wooden.jpg","-2"
"070819","08:39:02","9","9","5.0.14.0","2","80","trial1","naming","0","0","0","0","trash can","0","3100","1","White_Screen.jpg","4","65","Garbage_Can.jpg","4"
"070819","08:39:02","9","9","5.0.14.0","2","81","trial1","naming","0","0","0","0","crate","0","2927","1","White_Screen.jpg","-2","73","Crate_Milk.jpg","-2"
"070819","08:39:02","9","9","5.0.14.0","2","82","trial1","naming","0","0","0","0","glove","0","2026","1","White_Screen.jpg","4","182","Glove_Rubber.jpg","4"
"070819","08:39:02","9","9","5.0.14.0","2","83","trial1","naming","0","0","0","0","ice bucket","0","3201","1","White_Screen.jpg","-2","4","Bucket_Ice.jpg","-2"
"070819","08:39:02","9","9","5.0.14.0","2","84","trial1","naming","0","0","0","0","bread maker","0","2901","1","White_Screen.jpg","-2","143","Machine_Bread.jpg","-2"
"070819","08:39:02","9","9","5.0.14.0","2","85","trial1","naming","0","0","0","0","glue","0","2703","1","White_Screen.jpg","-1","46","Tube_Glue.jpg","-1"
"070819","08:39:02","9","9","5.0.14.0","2","86","trial1","naming","0","0","0","0","ice cream cone","0","3212","1","White_Screen.jpg","-2","197","IceCreamCone.jpg","-2"
"070819","08:39:02","9","9","5.0.14.0","2","87","trial1","naming","0","0","0","0","cork","0","2221","1","White_Screen.jpg","-1","121","Cork.jpg","-1"
"070819","08:39:02","9","9","5.0.14.0","2","88","trial1","naming","0","0","0","0","CDs","0","2558","1","White_Screen.jpg","-2","103","CDstack.jpg","-2"
"070819","08:39:02","9","9","5.0.14.0","2","89","trial1","naming","0","0","0","0","wire spool","0","2895","1","White_Screen.jpg","4","116","SolderingWire.jpg","4"
"070819","08:39:02","9","9","5.0.14.0","2","90","trial1","naming","0","0","0","0","wedding cake","0","5064","1","White_Screen.jpg","4","101","Cake_Wedding.jpg","4"
"070819","08:39:02","9","9","5.0.14.0","2","91","trial1","naming","0","0","0","0","button","0","2047","1","White_Screen.jpg","-2","138","Button.jpg","-2"
"070819","08:39:02","9","9","5.0.14.0","2","92","trial1","naming","0","0","0","0","lighthouse","0","2733","1","White_Screen.jpg","4","118","Toy_Lighthouse.jpg","4"
"070819","08:39:02","9","9","5.0.14.0","2","93","trial1","naming","0","0","0","0","pencil pot","0","3575","1","White_Screen.jpg","-2","30","Stationary.jpg","-2"
"070819","08:39:02","9","9","5.0.14.0","2","94","trial1","naming","0","0","0","0","pencil case","0","2978","1","White_Screen.jpg","-1","75","PencilCase.jpg","-1"
"070819","08:39:02","9","9","5.0.14.0","2","95","trial1","naming","0","0","0","0","origami","0","3061","1","White_Screen.jpg","4","183","Origami_Ox.jpg","4"
"070819","08:39:02","9","9","5.0.14.0","2","96","trial1","naming","0","0","0","0","plug adaptor","0","6993","1","White_Screen.jpg","4","94","ConnectorPlug.jpg","4"
"070819","08:39:02","9","9","5.0.14.0","2","97","trial1","naming","0","0","0","0","waffle breafkst","0","5222","1","White_Screen.jpg","4","142","Waffle.jpg","4"
"070819","08:39:02","9","9","5.0.14.0","2","98","trial1","naming","0","0","0","0","motorcycle","0","5014","1","White_Screen.jpg","4","90","Motorcycle.jpg","4"
"070819","08:39:02","9","9","5.0.14.0","2","99","trial1","naming","0","0","0","0","pumpkin bucket","0","5507","1","White_Screen.jpg","4","161","Bucket_Halloween.jpg","4"
"070819","08:39:02","9","9","5.0.14.0","2","100","trial1","naming","0","0","0","0","space heater","0","3696","1","White_Screen.jpg","4","56","Heater_ElectricPortable.jpg","4"
"070819","08:39:02","9","9","5.0.14.0","2","101","trial1","naming","0","0","0","0","jigsaw piece","0","3902","1","White_Screen.jpg","-3","69","Puzzle_Piece.jpg","-3"
"070819","08:39:02","9","9","5.0.14.0","2","103","trial1","naming","0","0","0","0","generatoe","0","2836","1","White_Screen.jpg","5","107","Generator.jpg","5"
"070819","08:39:02","9","9","5.0.14.0","2","104","trial1","naming","0","0","0","0","dirty rag","0","3454","1","White_Screen.jpg","4","36","Rag.jpg","4"
"070819","08:39:02","9","9","5.0.14.0","2","105","trial1","naming","0","0","0","0","wooden spoon","0","8078","1","White_Screen.jpg","-1","38","Spoon_WoodenLight.jpg","-1"
"070819","08:39:02","9","9","5.0.14.0","2","106","trial1","naming","0","0","0","0","shaver","0","5415","1","White_Screen.jpg","4","191","LintRemover.jpg","4"
"070819","08:39:02","9","9","5.0.14.0","2","107","trial1","naming","0","0","0","0","grill","0","2505","1","White_Screen.jpg","4","18","Barbecue_Gas.jpg","4"
"070819","08:39:02","9","9","5.0.14.0","2","108","trial1","naming","0","0","0","0","flat bread","0","6362","1","White_Screen.jpg","4","66","Bread_Pita.jpg","4"
"070819","08:39:02","9","9","5.0.14.0","2","109","trial1","naming","0","0","0","0","mirror","0","1878","1","White_Screen.jpg","4","110","Mirror_Makeup.jpg","4"
"070819","08:39:02","9","9","5.0.14.0","2","110","trial1","naming","0","0","0","0","winnie the pooh","0","3831","1","White_Screen.jpg","4","153","Toy_WinnieThePooh.jpg","4"
"070819","08:39:02","9","9","5.0.14.0","2","111","trial1","naming","0","0","0","0","bib","0","3114","1","White_Screen.jpg","4","126","Bib.jpg","4"
"070819","08:39:02","9","9","5.0.14.0","2","112","trial1","naming","0","0","0","0","oil","0","3756","1","White_Screen.jpg","4","29","Bottle_Oil.jpg","4"
"070819","08:39:02","9","9","5.0.14.0","2","113","trial1","naming","0","0","0","0","dresser drawers","0","4269","1","White_Screen.jpg","4","115","Dresser_1.jpg","4"
"070819","08:39:02","9","9","5.0.14.0","2","114","trial1","naming","0","0","0","0","cleaning trolley","0","4444","1","White_Screen.jpg","4","169","Cart_Janitor.jpg","4"
"070819","08:39:02","9","9","5.0.14.0","2","115","trial1","naming","0","0","0","0","jeans","0","1744","1","White_Screen.jpg","-2","42","Pants_Jeans.jpg","-2"
"070819","08:39:02","9","9","5.0.14.0","2","116","trial1","naming","0","0","0","0","car","0","1639","1","White_Screen.jpg","-2","127","Toy_Car.jpg","-2"
"070819","08:39:02","9","9","5.0.14.0","2","117","trial1","naming","0","0","0","0","camcorder","0","2554","1","White_Screen.jpg","4","162","Camera_Video.jpg","4"
"070819","08:39:02","9","9","5.0.14.0","2","118","trial1","naming","0","0","0","0","shorts","0","1826","1","White_Screen.jpg","2","10","Shorts_Sports.jpg","2"
"070819","08:39:02","9","9","5.0.14.0","2","119","trial1","naming","0","0","0","0","camera lens","0","2813","1","White_Screen.jpg","-1","45","Lens_Camera.jpg","-1"
"070819","08:39:02","9","9","5.0.14.0","2","120","trial1","naming","0","0","0","0","dog lease","0","3354","1","White_Screen.jpg","4","150","DogLeash.jpg","4"
"070819","08:39:02","9","9","5.0.14.0","2","121","trial1","naming","0","0","0","0","toothpick","0","3794","1","White_Screen.jpg","-2","141","ToothPick.jpg","-2"
"070819","08:39:02","9","9","5.0.14.0","2","122","trial1","naming","0","0","0","0","flute","0","4075","1","White_Screen.jpg","-1","57","Flute_Wooden.jpg","-1"
"070819","08:39:02","9","9","5.0.14.0","2","123","trial1","naming","0","0","0","0","grapefruit","0","4264","1","White_Screen.jpg","-2","154","OrangeBlood.jpg","-2"
"070819","08:39:02","9","9","5.0.14.0","2","124","trial1","naming","0","0","0","0","toy truck","0","4480","1","White_Screen.jpg","4","41","Toy_Tractor_1.jpg","4"
"070819","08:39:02","9","9","5.0.14.0","2","125","trial1","naming","0","0","0","0","stepper machine","0","4545","1","White_Screen.jpg","0","76","Stepper.jpg","0"
"070819","08:39:02","9","9","5.0.14.0","2","126","trial1","naming","0","0","0","0","bike gears","0","3987","1","White_Screen.jpg","4","85","BicycleChain.jpg","4"
"070819","08:39:02","9","9","5.0.14.0","2","127","trial1","naming","0","0","0","0","bongos","0","3113","1","White_Screen.jpg","4","147","Drum_Bongos.jpg","4"
"070819","08:39:02","9","9","5.0.14.0","2","128","trial1","naming","0","0","0","0","toblerone candy","0","4100","1","White_Screen.jpg","4","86","Toblerone.jpg","4"
"070819","08:39:02","9","9","5.0.14.0","2","129","trial1","naming","0","0","0","0","loofa","0","4002","1","White_Screen.jpg","4","98","Loofa.jpg","4"
"070819","08:39:02","9","9","5.0.14.0","2","130","trial1","naming","0","0","0","0","rope","0","1905","1","White_Screen.jpg","-3","179","Rope_Manila.jpg","-3"
"070819","08:39:02","9","9","5.0.14.0","2","131","trial1","naming","0","0","0","0","satelite","0","5169","1","White_Screen.jpg","0","148","TelescopeSpacecraft.jpg","0"
"070819","08:39:02","9","9","5.0.14.0","2","132","trial1","naming","0","0","0","0","mask","0","4236","1","White_Screen.jpg","-2","133","Mask_VenetianLongNose.jpg","-2"
"070819","08:39:02","9","9","5.0.14.0","2","133","trial1","naming","0","0","0","0","sound desk","0","2901","1","White_Screen.jpg","-2","77","SoundMixer_Blue.jpg","-2"
"070819","08:39:02","9","9","5.0.14.0","2","134","trial1","naming","0","0","0","0","manakin","0","5226","1","White_Screen.jpg","-1","132","PersonWooden.jpg","-1"
"070819","08:39:02","9","9","5.0.14.0","2","135","trial1","naming","0","0","0","0","camera film","0","5488","1","White_Screen.jpg","-2","131","Film_Roll.jpg","-2"
"070819","08:39:02","9","9","5.0.14.0","2","136","trial1","naming","0","0","0","0","death mask","0","4009","1","White_Screen.jpg","4","88","PharoahReplica.jpg","4"
"070819","08:39:02","9","9","5.0.14.0","2","137","trial1","naming","0","0","0","0","cage","0","2614","1","White_Screen.jpg","4","39","Cage_Hamster.jpg","4"
"070819","08:39:02","9","9","5.0.14.0","2","138","trial1","naming","0","0","0","0","lily pad","0","2607","1","White_Screen.jpg","4","151","Lilypad.jpg","4"
"070819","08:39:02","9","9","5.0.14.0","2","139","trial1","naming","0","0","0","0","oven mit","0","4378","1","White_Screen.jpg","5","81","ClothCoaster.jpg","5"
"070819","08:39:02","9","9","5.0.14.0","2","140","trial1","naming","0","0","0","0","house","0","3359","1","White_Screen.jpg","4","164","House_Rural.jpg","4"
"070819","08:39:02","9","9","5.0.14.0","2","141","trial1","naming","0","0","0","0","eraser","0","3055","1","White_Screen.jpg","5","117","ChalkboardEraser.jpg","5"
"070819","08:39:02","9","9","5.0.14.0","2","142","trial1","naming","0","0","0","0","sewing machine","0","3825","1","White_Screen.jpg","4","50","SewingMachine.jpg","4"
"070819","08:39:02","9","9","5.0.14.0","2","143","trial1","naming","0","0","0","0","hockey gear","0","3814","1","White_Screen.jpg","4","74","Hockey_Equipment.jpg","4"
"070819","08:39:02","9","9","5.0.14.0","2","144","trial1","naming","0","0","0","0","screw","0","3149","1","White_Screen.jpg","4","149","Bolt.jpg","4"
"070819","08:39:02","9","9","5.0.14.0","2","145","trial1","naming","0","0","0","0","tablet","0","6098","1","White_Screen.jpg","-3","167","Autocreeper.jpg","-3"
"070819","08:39:02","9","9","5.0.14.0","2","146","trial1","naming","0","0","0","0","blood pressure cuff","0","5512","1","White_Screen.jpg","0","43","BloodpPresureCuff.jpg","0"
"070819","08:39:02","9","9","5.0.14.0","2","147","trial1","naming","0","0","0","0","sofe","0","2184","1","White_Screen.jpg","-1","168","Loveseat.jpg","-1"
"070819","08:39:02","9","9","5.0.14.0","2","148","trial1","naming","0","0","0","0","gears","0","2343","1","White_Screen.jpg","-2","102","BicycleGear.jpg","-2"
"070819","08:39:02","9","9","5.0.14.0","2","149","trial1","naming","0","0","0","0","binder","0","2182","1","White_Screen.jpg","-2","100","Binder.jpg","-2"
"070819","08:39:02","9","9","5.0.14.0","2","150","trial1","naming","0","0","0","0","shoe","0","1632","1","White_Screen.jpg","-2","113","Shoe_WomenHeals.jpg","-2"
"070819","08:39:02","9","9","5.0.14.0","2","151","trial1","naming","0","0","0","0","cart","0","3230","1","White_Screen.jpg","0","72","ChariotGold.jpg","0"
"070819","08:39:02","9","9","5.0.14.0","2","152","trial1","naming","0","0","0","0","wheel","0","1776","1","White_Screen.jpg","4","2","BicycleWheelRusty.jpg","4"
"070819","08:39:02","9","9","5.0.14.0","2","154","trial1","naming","0","0","0","0","apples","0","3595","1","White_Screen.jpg","-3","78","Box_Apples.jpg","-3"
"070819","08:39:02","9","9","5.0.14.0","2","155","trial1","naming","0","0","0","0","train","0","1810","1","White_Screen.jpg","5","196","Locomotive.jpg","5"
"070819","08:39:02","9","9","5.0.14.0","2","156","trial1","naming","0","0","0","0","rake","0","1936","1","White_Screen.jpg","4","19","Rake_Long.jpg","4"
"070819","08:39:02","9","9","5.0.14.0","2","157","trial1","naming","0","0","0","0","guilotine","0","3452","1","White_Screen.jpg","0","144","PaperCutter.jpg","0"
"070819","08:39:02","9","9","5.0.14.0","2","158","trial1","naming","0","0","0","0","video cassette","0","6011","1","White_Screen.jpg","-2","13","Cassette_Video.jpg","-2"
"070819","08:39:02","9","9","5.0.14.0","2","159","trial1","naming","0","0","0","0","house","0","1947","1","White_Screen.jpg","-2","155","House_Stone.jpg","-2"
"070819","08:39:02","9","9","5.0.14.0","2","160","trial1","naming","0","0","0","0","brush","0","2034","1","White_Screen.jpg","4","95","Brush_Makeup.jpg","4"
"070819","08:39:02","9","9","5.0.14.0","2","161","trial1","naming","0","0","0","0","oven glove","0","2489","1","White_Screen.jpg","0","190","Mitt_Oven.jpg","0"
"070819","08:39:02","9","9","5.0.14.0","2","162","trial1","naming","0","0","0","0","hammer","0","1791","1","White_Screen.jpg","4","1","Hammer.jpg","4"
"070819","08:39:02","9","9","5.0.14.0","2","163","trial1","naming","0","0","0","0","mango","0","2817","1","White_Screen.jpg","-1","5","Mango.jpg","-1"
"070819","08:39:02","9","9","5.0.14.0","2","164","trial1","naming","0","0","0","0","reindeer","0","3150","1","White_Screen.jpg","-2","130","Caribou.jpg","-2"
"070819","08:39:02","9","9","5.0.14.0","2","165","trial1","naming","0","0","0","0","hat","0","2975","1","White_Screen.jpg","4","198","Hat_Feather.jpg","4"
"070819","08:39:02","9","9","5.0.14.0","2","166","trial1","naming","0","0","0","0","sheep","0","2062","1","White_Screen.jpg","4","27","Sheep.jpg","4"
"070819","08:39:02","9","9","5.0.14.0","2","167","trial1","naming","0","0","0","0","drum","0","2893","1","White_Screen.jpg","-2","7","Drum_Brazilan.jpg","-2"
"070819","08:39:02","9","9","5.0.14.0","2","168","trial1","naming","0","0","0","0","truck","0","2028","1","White_Screen.jpg","4","114","Truck_Box.jpg","4"
"070819","08:39:02","9","9","5.0.14.0","2","169","trial1","naming","0","0","0","0","brush","0","3923","1","White_Screen.jpg","-1","80","Broom_Short.jpg","-1"
"070819","08:39:02","9","9","5.0.14.0","2","170","trial1","naming","0","0","0","0","ladybug","0","3018","1","White_Screen.jpg","5","163","Ladybug.jpg","5"
"070819","08:39:02","9","9","5.0.14.0","2","171","trial1","naming","0","0","0","0","tree bark","0","3258","1","White_Screen.jpg","-2","48","Bark.jpg","-2"
"070819","08:39:02","9","9","5.0.14.0","2","172","trial1","naming","0","0","0","0","hat stand","0","3107","1","White_Screen.jpg","4","112","Coatrack.jpg","4"
"070819","08:39:02","9","9","5.0.14.0","2","173","trial1","naming","0","0","0","0","backpack","0","3338","1","White_Screen.jpg","4","188","Bag_String.jpg","4"
"070819","08:39:02","9","9","5.0.14.0","2","174","trial1","naming","0","0","0","0","gavel","0","3130","1","White_Screen.jpg","-1","47","MalletJudge.jpg","-1"
"070819","08:39:02","9","9","5.0.14.0","2","175","trial1","naming","0","0","0","0","cream","0","4964","1","White_Screen.jpg","4","68","ToothPaste.jpg","4"
"070819","08:39:02","9","9","5.0.14.0","2","176","trial1","naming","0","0","0","0","leaf","0","1507","1","White_Screen.jpg","2","108","Leaf_Yellow.jpg","2"
"070819","08:39:02","9","9","5.0.14.0","2","177","trial1","naming","0","0","0","0","makeup","0","6083","1","White_Screen.jpg","4","23","Box_Vials.jpg","4"
"070819","08:39:02","9","9","5.0.14.0","2","178","trial1","naming","0","0","0","0","radio","0","1760","1","White_Screen.jpg","4","9","Radio_Modern.jpg","4"
"070819","08:39:02","9","9","5.0.14.0","2","179","trial1","naming","0","0","0","0","statue ","0","2880","1","White_Screen.jpg","4","159","Statue_Buddha.jpg","4"
"070819","08:39:02","9","9","5.0.14.0","2","180","trial1","naming","0","0","0","0","chinchilla","0","6100","1","White_Screen.jpg","-1","79","Chinchilla.jpg","-1"
"070819","08:39:02","9","9","5.0.14.0","2","181","trial1","naming","0","0","0","0","whisk","0","2155","1","White_Screen.jpg","4","55","HandMixer.jpg","4"
"070819","08:39:02","9","9","5.0.14.0","2","182","trial1","naming","0","0","0","0","toothbrush holder","0","4133","1","White_Screen.jpg","4","83","ToothbrushHolder.jpg","4"
"070819","08:39:02","9","9","5.0.14.0","2","183","trial1","naming","0","0","0","0","oil lamp","0","2893","1","White_Screen.jpg","-2","178","Candleholder_LampShaped.jpg","-2"
"070819","08:39:02","9","9","5.0.14.0","2","184","trial1","naming","0","0","0","0","tree stump","0","2851","1","White_Screen.jpg","3","14","TreeStump.jpg","3"
"070819","08:39:02","9","9","5.0.14.0","2","185","trial1","naming","0","0","0","0","computer","0","3554","1","White_Screen.jpg","-2","64","TelephoneSwitchboard.jpg","-2"
"070819","08:39:02","9","9","5.0.14.0","2","186","trial1","naming","0","0","0","0","lamp","0","2654","1","White_Screen.jpg","-2","61","Lantern_Tea.jpg","-2"
"070819","08:39:02","9","9","5.0.14.0","2","187","trial1","naming","0","0","0","0","hole punch","0","4839","1","White_Screen.jpg","4","199","LeatherPuncherTool.jpg","4"
"070819","08:39:02","9","9","5.0.14.0","2","188","trial1","naming","0","0","0","0","defibrilator","0","3970","1","White_Screen.jpg","3","8","Defribrillator.jpg","3"
"070819","08:39:02","9","9","5.0.14.0","2","189","trial1","naming","0","0","0","0","police car","0","2743","1","White_Screen.jpg","4","97","Toy_PoliceCar.jpg","4"
"070819","08:39:02","9","9","5.0.14.0","2","190","trial1","naming","0","0","0","0","brief case","0","3394","1","White_Screen.jpg","4","165","Briefcase_Silver.jpg","4"
"070819","08:39:02","9","9","5.0.14.0","2","191","trial1","naming","0","0","0","0","triangle","0","2057","1","White_Screen.jpg","-2","92","Triangle.jpg","-2"
"070819","08:39:02","9","9","5.0.14.0","2","192","trial1","naming","0","0","0","0","wheel","0","1744","1","White_Screen.jpg","0","200","BicycleWheel.jpg","0"
"070819","08:39:02","9","9","5.0.14.0","2","193","trial1","naming","0","0","0","0","tool box","0","2506","1","White_Screen.jpg","-2","82","Toolbox_RedOpen.jpg","-2"
"070819","08:39:02","9","9","5.0.14.0","2","194","trial1","naming","0","0","0","0","totem pole","0","3438","1","White_Screen.jpg","-3","89","TotemPole.jpg","-3"
"070819","08:39:02","9","9","5.0.14.0","2","195","trial1","naming","0","0","0","0","sugar snap pea","0","4841","1","White_Screen.jpg","-2","160","Snowpea.jpg","-2"
"070819","08:39:02","9","9","5.0.14.0","2","196","trial1","naming","0","0","0","0","knife","0","2298","1","White_Screen.jpg","4","119","Knife_Hunting.jpg","4"
"070819","08:39:02","9","9","5.0.14.0","2","197","trial1","naming","0","0","0","0","arm","0","1767","1","White_Screen.jpg","-2","137","Arm.jpg","-2"
"070819","08:39:02","9","9","5.0.14.0","2","198","trial1","naming","0","0","0","0","paddle","0","1978","1","White_Screen.jpg","4","16","Paddle_Canoe.jpg","4"
"070819","08:39:02","9","9","5.0.14.0","2","199","trial1","naming","0","0","0","0","test tubes","0","3148","1","White_Screen.jpg","4","25","TestTube_MultipleAndRack.jpg","4"
"070819","08:39:02","9","9","5.0.14.0","2","200","trial1","naming","0","0","0","0","flip flips","0","2719","1","White_Screen.jpg","-2","195","FlipFlop_PairBlue.jpg","-2"
"070819","08:39:02","9","9","5.0.14.0","2","201","trial1","naming","0","0","0","0","duster","0","2620","1","White_Screen.jpg","0","35","DusterFeather.jpg","0"
"070819","08:39:02","9","9","5.0.14.0","2","202","trial1","naming","0","0","0","0","bench","0","2180","1","White_Screen.jpg","-3","109","Bench_Park.jpg","-3"
"070819","08:39:02","9","9","5.0.14.0","2","203","trial1","naming","0","0","0","0","drill bit","0","4567","1","White_Screen.jpg","0","60","DrillBit.jpg","0"
"070819","08:39:02","9","9","5.0.14.0","3","1","demographics_block","gender","0","0","0","0","female","1","10372","0","0","0","0","0","0"
"070819","08:39:02","9","9","5.0.14.0","3","1","demographics_block","age","0","0","0","0","32","1","10372","0","0","0","0","0","0"
"070819","08:39:02","9","9","5.0.14.0","3","1","demographics_block","education","0","0","0","0","16","1","10372","0","0","0","0","0","0"
"070819","08:39:02","9","9","5.0.14.0","3","2","demographics_block","left_right_handed","0","0","0","0","Right","1","5049","0","0","0","0","0","0"
"070819","08:39:02","9","9","5.0.14.0","3","2","demographics_block","raceoption1","0","0","0","0","0","1","5049","0","0","0","0","0","0"
"070819","08:39:02","9","9","5.0.14.0","3","2","demographics_block","raceoption2","0","0","0","0","","1","5049","0","0","0","0","0","0"
"070819","08:39:02","9","9","5.0.14.0","3","2","demographics_block","raceoption3","0","0","0","0","","1","5049","0","0","0","0","0","0"
"070819","08:39:02","9","9","5.0.14.0","3","2","demographics_block","raceoption4","0","0","0","0","","1","5049","0","0","0","0","0","0"
"070819","08:39:02","9","9","5.0.14.0","3","2","demographics_block","raceoption5","0","0","0","0","","1","5049","0","0","0","0","0","0"
"070819","08:39:02","9","9","5.0.14.0","3","2","demographics_block","raceoption6","0","0","0","0","","1","5049","0","0","0","0","0","0"
"070819","08:39:02","9","9","5.0.14.0","3","2","demographics_block","raceoption7","0","0","0","0","","1","5049","0","0","0","0","0","0"
"070819","08:39:02","9","9","5.0.14.0","3","2","demographics_block","raceoption8","0","0","0","0","","1","5049","0","0","0","0","0","0"
"070819","08:39:02","9","9","5.0.14.0","3","2","demographics_block","raceoption9","0","0","0","0","","1","5049","0","0","0","0","0","0"
"070819","08:39:02","9","9","5.0.14.0","3","2","demographics_block","raceother","0","0","0","0","","1","5049","0","0","0","0","0","0"
"070819","08:39:02","9","9","5.0.14.0","3","2","demographics_block","raceother","0","0","0","0","","1","5049","0","0","0","0","0","0"
"070819","08:39:02","9","9","5.0.14.0","3","2","demographics_block","english_language","0","0","0","0","Yes","1","5049","0","0","0","0","0","0"
"070819","08:39:02","9","9","5.0.14.0","3","2","demographics_block","english_languageother","0","0","0","0","","1","5049","0","0","0","0","0","0"
"070819","08:39:02","9","9","5.0.14.0","3","3","demographics_block","eyesight","0","0","0","0","Yes","1","4232","0","0","0","0","0","0"
"070819","08:39:02","9","9","5.0.14.0","3","3","demographics_block","colorblind","0","0","0","0","No","1","4232","0","0","0","0","0","0"
"070819","08:39:02","9","9","5.0.14.0","4","1","worker_id_block","worker_id_textbox","0","0","0","0","A1C2T79XTDHE39","1","26855","0","0","0","0","0","0"
"070819","10:37:21","8","8","5.0.14.0","2","1","trial1","naming","0","0","0","0","projector screen","0","6698","1","White_Screen.jpg","31","192","ProjectorScreen.jpg","31"
"070819","10:37:21","8","8","5.0.14.0","2","2","trial1","naming","0","0","0","0","plug","0","3397","1","White_Screen.jpg","0","94","ConnectorPlug.jpg","0"
"070819","10:37:21","8","8","5.0.14.0","2","3","trial1","naming","0","0","0","0","toothpick","0","3205","1","White_Screen.jpg","0","141","ToothPick.jpg","0"
"070819","10:37:21","8","8","5.0.14.0","2","4","trial1","naming","0","0","0","0","space heater","0","3603","1","White_Screen.jpg","0","56","Heater_ElectricPortable.jpg","0"
"070819","10:37:21","8","8","5.0.14.0","2","5","trial1","naming","0","0","0","0","creeper","0","4563","1","White_Screen.jpg","-2","167","Autocreeper.jpg","-2"
"070819","10:37:21","8","8","5.0.14.0","2","6","trial1","naming","0","0","0","0","hole punch","0","3369","1","White_Screen.jpg","1","22","Oneholepunch.jpg","1"
"070819","10:37:21","8","8","5.0.14.0","2","7","trial1","naming","0","0","0","0","money","0","3706","1","White_Screen.jpg","0","122","MoneyBill50.jpg","0"
"070819","10:37:21","8","8","5.0.14.0","2","8","trial1","naming","0","0","0","0","hand bell","0","3131","1","White_Screen.jpg","1","26","Bell_Hand.jpg","1"
"070819","10:37:21","8","8","5.0.14.0","2","9","trial1","naming","0","0","0","0","oil","0","3429","1","White_Screen.jpg","0","29","Bottle_Oil.jpg","0"
"070819","10:37:21","8","8","5.0.14.0","2","10","trial1","naming","0","0","0","0","bib","0","1899","1","White_Screen.jpg","0","126","Bib.jpg","0"
"070819","10:37:21","8","8","5.0.14.0","2","11","trial1","naming","0","0","0","0","crate","0","3126","1","White_Screen.jpg","0","73","Crate_Milk.jpg","0"
"070819","10:37:21","8","8","5.0.14.0","2","12","trial1","naming","0","0","0","0","dresser","0","3687","1","White_Screen.jpg","1","115","Dresser_1.jpg","1"
"070819","10:37:21","8","8","5.0.14.0","2","13","trial1","naming","0","0","0","0","car","0","3241","1","White_Screen.jpg","0","127","Toy_Car.jpg","0"
"070819","10:37:21","8","8","5.0.14.0","2","14","trial1","naming","0","0","0","0","gas grill","0","5967","1","White_Screen.jpg","-1","18","Barbecue_Gas.jpg","-1"
"070819","10:37:21","8","8","5.0.14.0","2","15","trial1","naming","0","0","0","0","lillypad","0","3646","1","White_Screen.jpg","0","151","Lilypad.jpg","0"
"070819","10:37:21","8","8","5.0.14.0","2","16","trial1","naming","0","0","0","0","paper cutter","0","3747","1","White_Screen.jpg","0","144","PaperCutter.jpg","0"
"070819","10:37:21","8","8","5.0.14.0","2","17","trial1","naming","0","0","0","0","cabin","0","4701","1","White_Screen.jpg","0","155","House_Stone.jpg","0"
"070819","10:37:21","8","8","5.0.14.0","2","18","trial1","naming","0","0","0","0","rope","0","1655","1","White_Screen.jpg","-1","179","Rope_Manila.jpg","-1"
"070819","10:37:21","8","8","5.0.14.0","2","19","trial1","naming","0","0","0","0","figurine","0","5485","1","White_Screen.jpg","-2","189","Toy_Chicken.jpg","-2"
"070819","10:37:21","8","8","5.0.14.0","2","20","trial1","naming","0","0","0","0","broom head","0","6624","1","White_Screen.jpg","-1","80","Broom_Short.jpg","-1"
"070819","10:37:21","8","8","5.0.14.0","2","21","trial1","naming","0","0","0","0","box","0","4915","1","White_Screen.jpg","0","64","TelephoneSwitchboard.jpg","0"
"070819","10:37:21","8","8","5.0.14.0","2","22","trial1","naming","0","0","0","0","brush","0","3199","1","White_Screen.jpg","0","95","Brush_Makeup.jpg","0"
"070819","10:37:21","8","8","5.0.14.0","2","23","trial1","naming","0","0","0","0","buggie","0","3595","1","White_Screen.jpg","1","63","ShoppingCart.jpg","1"
"070819","10:37:21","8","8","5.0.14.0","2","24","trial1","naming","0","0","0","0","cabin","0","2267","1","White_Screen.jpg","0","164","House_Rural.jpg","0"
"070819","10:37:21","8","8","5.0.14.0","2","25","trial1","naming","0","0","0","0","stump","0","2367","1","White_Screen.jpg","0","14","TreeStump.jpg","0"
"070819","10:37:21","8","8","5.0.14.0","2","26","trial1","naming","0","0","0","0","bookshelf","0","3930","1","White_Screen.jpg","-2","171","BookShelf.jpg","-2"
"070819","10:37:21","8","8","5.0.14.0","2","27","trial1","naming","0","0","0","0","duster","0","2424","1","White_Screen.jpg","1","35","DusterFeather.jpg","1"
"070819","10:37:21","8","8","5.0.14.0","2","28","trial1","naming","0","0","0","0","knee pads","0","3974","1","White_Screen.jpg","1","33","ShinPads.jpg","1"
"070819","10:37:21","8","8","5.0.14.0","2","29","trial1","naming","0","0","0","0","kiddie pool","0","3061","1","White_Screen.jpg","1","84","KiddiePool.jpg","1"
"070819","10:37:21","8","8","5.0.14.0","2","30","trial1","naming","0","0","0","0","binder","0","2170","1","White_Screen.jpg","0","100","Binder.jpg","0"
"070819","10:37:21","8","8","5.0.14.0","2","31","trial1","naming","0","0","0","0","glue","0","5388","1","White_Screen.jpg","-2","46","Tube_Glue.jpg","-2"
"070819","10:37:21","8","8","5.0.14.0","2","32","trial1","naming","0","0","0","0","lamp","0","6322","1","White_Screen.jpg","-1","178","Candleholder_LampShaped.jpg","-1"
"070819","10:37:21","8","8","5.0.14.0","2","33","trial1","naming","0","0","0","0","motorcycle","0","4203","1","White_Screen.jpg","0","90","Motorcycle.jpg","0"
"070819","10:37:21","8","8","5.0.14.0","2","34","trial1","naming","0","0","0","0","origami","0","3490","1","White_Screen.jpg","-1","183","Origami_Ox.jpg","-1"
"070819","10:37:21","8","8","5.0.14.0","2","35","trial1","naming","0","0","0","0","rake","0","1660","1","White_Screen.jpg","0","19","Rake_Long.jpg","0"
"070819","10:37:21","8","8","5.0.14.0","2","36","trial1","naming","0","0","0","0","hole punch","0","4793","1","White_Screen.jpg","0","199","LeatherPuncherTool.jpg","0"
"070819","10:37:21","8","8","5.0.14.0","2","37","trial1","naming","0","0","0","0","helicopter","0","3639","1","White_Screen.jpg","1","185","Helicopter.jpg","1"
"070819","10:37:21","8","8","5.0.14.0","2","38","trial1","naming","0","0","0","0","helmet","0","3019","1","White_Screen.jpg","1","145","Helmet_Motorcycle.jpg","1"
"070819","10:37:21","8","8","5.0.14.0","2","39","trial1","naming","0","0","0","0","baby bottle","0","3643","1","White_Screen.jpg","-3","194","Bottle_Baby.jpg","-3"
"070819","10:37:21","8","8","5.0.14.0","2","40","trial1","naming","0","0","0","0","crystal","0","3344","1","White_Screen.jpg","-1","24","Quartz.jpg","-1"
"070819","10:37:21","8","8","5.0.14.0","2","41","trial1","naming","0","0","0","0","apple","0","2223","1","White_Screen.jpg","1","78","Box_Apples.jpg","1"
"070819","10:37:21","8","8","5.0.14.0","2","42","trial1","naming","0","0","0","0","puppet theater","0","6380","1","White_Screen.jpg","0","71","PuppetTheatre_WhiteGold.jpg","0"
"070819","10:37:21","8","8","5.0.14.0","2","43","trial1","naming","0","0","0","0","clothes pin","0","4627","1","White_Screen.jpg","0","136","Clothespin_Beige.jpg","0"
"070819","10:37:21","8","8","5.0.14.0","2","44","trial1","naming","0","0","0","0","branch","0","3058","1","White_Screen.jpg","0","111","Branch.jpg","0"
"070819","10:37:21","8","8","5.0.14.0","2","45","trial1","naming","0","0","0","0","bolt","0","4575","1","White_Screen.jpg","-2","149","Bolt.jpg","-2"
"070819","10:37:21","8","8","5.0.14.0","2","46","trial1","naming","0","0","0","0","monkey","0","2532","1","White_Screen.jpg","0","53","Chimpanzee.jpg","0"
"070819","10:37:21","8","8","5.0.14.0","2","47","trial1","naming","0","0","0","0","paste","0","2551","1","White_Screen.jpg","-1","68","ToothPaste.jpg","-1"
"070819","10:37:21","8","8","5.0.14.0","2","48","trial1","naming","0","0","0","0","camcorder","0","3664","1","White_Screen.jpg","0","162","Camera_Video.jpg","0"
"070819","10:37:21","8","8","5.0.14.0","2","49","trial1","naming","0","0","0","0","bell","0","1954","1","White_Screen.jpg","1","124","FireAlarm.jpg","1"
"070819","10:37:21","8","8","5.0.14.0","2","50","trial1","naming","0","0","0","0","choclate","0","2236","1","White_Screen.jpg","0","175","ChocolateBar_HalfUnwrapped.jpg","0"
"070819","10:37:21","8","8","5.0.14.0","2","52","trial1","naming","0","0","0","0","toblerone","0","4484","1","White_Screen.jpg","0","86","Toblerone.jpg","0"
"070819","10:37:21","8","8","5.0.14.0","2","53","trial1","naming","0","0","0","0","flask","0","4256","1","White_Screen.jpg","-1","134","Beaker.jpg","-1"
"070819","10:37:21","8","8","5.0.14.0","2","54","trial1","naming","0","0","0","0","coatrack","0","3821","1","White_Screen.jpg","-2","112","Coatrack.jpg","-2"
"070819","10:37:21","8","8","5.0.14.0","2","55","trial1","naming","0","0","0","0","pitcher","0","2139","1","White_Screen.jpg","-2","44","Pitcher.jpg","-2"
"070819","10:37:21","8","8","5.0.14.0","2","56","trial1","naming","0","0","0","0","block","0","4692","1","White_Screen.jpg","-1","93","Instrument_African.jpg","-1"
"070819","10:37:21","8","8","5.0.14.0","2","57","trial1","naming","0","0","0","0","sofa","0","1766","1","White_Screen.jpg","-1","168","Loveseat.jpg","-1"
"070819","10:37:21","8","8","5.0.14.0","2","58","trial1","naming","0","0","0","0","rotor","0","2998","1","White_Screen.jpg","0","102","BicycleGear.jpg","0"
"070819","10:37:21","8","8","5.0.14.0","2","59","trial1","naming","0","0","0","0","chain","0","4390","1","White_Screen.jpg","-1","85","BicycleChain.jpg","-1"
"070819","10:37:21","8","8","5.0.14.0","2","60","trial1","naming","0","0","0","0","pooh","0","2690","1","White_Screen.jpg","0","153","Toy_WinnieThePooh.jpg","0"
"070819","10:37:21","8","8","5.0.14.0","2","61","trial1","naming","0","0","0","0","puzzle piece","0","3237","1","White_Screen.jpg","0","69","Puzzle_Piece.jpg","0"
"070819","10:37:21","8","8","5.0.14.0","2","62","trial1","naming","0","0","0","0","toy","0","2443","1","White_Screen.jpg","0","41","Toy_Tractor_1.jpg","0"
"070819","10:37:21","8","8","5.0.14.0","2","63","trial1","naming","0","0","0","0","mask","0","1871","1","White_Screen.jpg","0","133","Mask_VenetianLongNose.jpg","0"
"070819","10:37:21","8","8","5.0.14.0","2","64","trial1","naming","0","0","0","0","train","0","1963","1","White_Screen.jpg","0","196","Locomotive.jpg","0"
"070819","10:37:21","8","8","5.0.14.0","2","65","trial1","naming","0","0","0","0","sattelite","0","6660","1","White_Screen.jpg","-1","148","TelescopeSpacecraft.jpg","-1"
"070819","10:37:21","8","8","5.0.14.0","2","66","trial1","naming","0","0","0","0","sewing machine","0","4783","1","White_Screen.jpg","0","50","SewingMachine.jpg","0"
"070819","10:37:21","8","8","5.0.14.0","2","67","trial1","naming","0","0","0","0","button","0","1952","1","White_Screen.jpg","0","138","Button.jpg","0"
"070819","10:37:21","8","8","5.0.14.0","2","68","trial1","naming","0","0","0","0","Buddah","0","2704","1","White_Screen.jpg","0","159","Statue_Buddha.jpg","0"
"070819","10:37:21","8","8","5.0.14.0","2","69","trial1","naming","0","0","0","0","waffle cone","0","4860","1","White_Screen.jpg","-1","197","IceCreamCone.jpg","-1"
"070819","10:37:21","8","8","5.0.14.0","2","70","trial1","naming","0","0","0","0","pizza cutter","0","3063","1","White_Screen.jpg","0","17","PizzaCutter.jpg","0"
"070819","10:37:21","8","8","5.0.14.0","2","71","trial1","naming","0","0","0","0","wooden spoon","0","3732","1","White_Screen.jpg","-1","38","Spoon_WoodenLight.jpg","-1"
"070819","10:37:21","8","8","5.0.14.0","2","72","trial1","naming","0","0","0","0","Mr Potato Head","0","8004","1","White_Screen.jpg","0","59","Toy_MrPotatoHeadjpg.jpg","0"
"070819","10:37:21","8","8","5.0.14.0","2","73","trial1","naming","0","0","0","0","stamper","0","3804","1","White_Screen.jpg","0","157","Stamper.jpg","0"
"070819","10:37:21","8","8","5.0.14.0","2","74","trial1","naming","0","0","0","0","oil can","0","5339","1","White_Screen.jpg","-2","62","Can_OilSpout.jpg","-2"
"070819","10:37:21","8","8","5.0.14.0","2","75","trial1","naming","0","0","0","0","rubber glove","0","3500","1","White_Screen.jpg","-2","182","Glove_Rubber.jpg","-2"
"070819","10:37:21","8","8","5.0.14.0","2","76","trial1","naming","0","0","0","0","leash","0","2206","1","White_Screen.jpg","0","150","DogLeash.jpg","0"
"070819","10:37:21","8","8","5.0.14.0","2","77","trial1","naming","0","0","0","0","trash can","0","2587","1","White_Screen.jpg","0","65","Garbage_Can.jpg","0"
"070819","10:37:21","8","8","5.0.14.0","2","78","trial1","naming","0","0","0","0","register","0","3347","1","White_Screen.jpg","-2","67","CashRegister_Modern.jpg","-2"
"070819","10:37:21","8","8","5.0.14.0","2","79","trial1","naming","0","0","0","0","gloves","0","4005","1","White_Screen.jpg","-1","70","Gloves_Bicycle.jpg","-1"
"070819","10:37:21","8","8","5.0.14.0","2","80","trial1","naming","0","0","0","0","lighthouse","0","2667","1","White_Screen.jpg","-3","118","Toy_Lighthouse.jpg","-3"
"070819","10:37:21","8","8","5.0.14.0","2","81","trial1","naming","0","0","0","0","fruit","0","3343","1","White_Screen.jpg","-2","154","OrangeBlood.jpg","-2"
"070819","10:37:21","8","8","5.0.14.0","2","82","trial1","naming","0","0","0","0","police car","0","5183","1","White_Screen.jpg","0","97","Toy_PoliceCar.jpg","0"
"070819","10:37:21","8","8","5.0.14.0","2","83","trial1","naming","0","0","0","0","pea","0","3318","1","White_Screen.jpg","0","160","Snowpea.jpg","0"
"070819","10:37:21","8","8","5.0.14.0","2","84","trial1","naming","0","0","0","0","dolly","0","2138","1","White_Screen.jpg","-1","99","Dolly.jpg","-1"
"070819","10:37:21","8","8","5.0.14.0","2","85","trial1","naming","0","0","0","0","check","0","2211","1","White_Screen.jpg","-2","6","Cheque.jpg","-2"
"070819","10:37:21","8","8","5.0.14.0","2","86","trial1","naming","0","0","0","0","mop","0","6823","1","White_Screen.jpg","0","169","Cart_Janitor.jpg","0"
"070819","10:37:21","8","8","5.0.14.0","2","87","trial1","naming","0","0","0","0","arm","0","2428","1","White_Screen.jpg","1","137","Arm.jpg","1"
"070819","10:37:21","8","8","5.0.14.0","2","88","trial1","naming","0","0","0","0","waller","0","3595","1","White_Screen.jpg","0","11","Wallet_ClosedBrown.jpg","0"
"070819","10:37:21","8","8","5.0.14.0","2","89","trial1","naming","0","0","0","0","knee","0","2355","1","White_Screen.jpg","-1","181","Knee.jpg","-1"
"070819","10:37:21","8","8","5.0.14.0","2","90","trial1","naming","0","0","0","0","cd stack","0","5572","1","White_Screen.jpg","-2","103","CDstack.jpg","-2"
"070819","10:37:21","8","8","5.0.14.0","2","91","trial1","naming","0","0","0","0","dish rag","0","3092","1","White_Screen.jpg","-2","34","Towel.jpg","-2"
"070819","10:37:21","8","8","5.0.14.0","2","92","trial1","naming","0","0","0","0","toast","0","3277","1","White_Screen.jpg","0","51","Toast.jpg","0"
"070819","10:37:21","8","8","5.0.14.0","2","93","trial1","naming","0","0","0","0","bowling ball","0","3568","1","White_Screen.jpg","0","49","Ball_Bowling.jpg","0"
"070819","10:37:21","8","8","5.0.14.0","2","94","trial1","naming","0","0","0","0","presser","0","5481","1","White_Screen.jpg","-1","191","LintRemover.jpg","-1"
"070819","10:37:21","8","8","5.0.14.0","2","95","trial1","naming","0","0","0","0","heel","0","2213","1","White_Screen.jpg","-1","113","Shoe_WomenHeals.jpg","-1"
"070819","10:37:21","8","8","5.0.14.0","2","96","trial1","naming","0","0","0","0","grill","0","2851","1","White_Screen.jpg","0","128","Barbecue_Charcoal.jpg","0"
"070819","10:37:21","8","8","5.0.14.0","2","97","trial1","naming","0","0","0","0","stepper","0","2455","1","White_Screen.jpg","0","76","Stepper.jpg","0"
"070819","10:37:21","8","8","5.0.14.0","2","98","trial1","naming","0","0","0","0","holder","0","6250","1","White_Screen.jpg","0","30","Stationary.jpg","0"
"070819","10:37:21","8","8","5.0.14.0","2","99","trial1","naming","0","0","0","0","lamp","0","2336","1","White_Screen.jpg","-1","61","Lantern_Tea.jpg","-1"
"070819","10:37:21","8","8","5.0.14.0","2","100","trial1","naming","0","0","0","0","lens","0","2194","1","White_Screen.jpg","-2","45","Lens_Camera.jpg","-2"
"070819","10:37:21","8","8","5.0.14.0","2","101","trial1","naming","0","0","0","0","jeans","0","1712","1","White_Screen.jpg","0","42","Pants_Jeans.jpg","0"
"070819","10:37:21","8","8","5.0.14.0","2","103","trial1","naming","0","0","0","0","noise maker","0","6073","1","White_Screen.jpg","1","184","Noisemaker_Streamers.jpg","1"
"070819","10:37:21","8","8","5.0.14.0","2","104","trial1","naming","0","0","0","0","bucket","0","2197","1","White_Screen.jpg","1","170","Bucket_WoodenLight.jpg","1"
"070819","10:37:21","8","8","5.0.14.0","2","105","trial1","naming","0","0","0","0","threader","0","7278","1","White_Screen.jpg","-2","60","DrillBit.jpg","-2"
"070819","10:37:21","8","8","5.0.14.0","2","106","trial1","naming","0","0","0","0","drink","0","3159","1","White_Screen.jpg","0","20","Drink_Cocktail.jpg","0"
"070819","10:37:21","8","8","5.0.14.0","2","107","trial1","naming","0","0","0","0","mirror","0","3071","1","White_Screen.jpg","0","110","Mirror_Makeup.jpg","0"
"070819","10:37:21","8","8","5.0.14.0","2","108","trial1","naming","0","0","0","0","loofa","0","4909","1","White_Screen.jpg","-3","98","Loofa.jpg","-3"
"070819","10:37:21","8","8","5.0.14.0","2","109","trial1","naming","0","0","0","0","bark","0","2509","1","White_Screen.jpg","2","48","Bark.jpg","2"
"070819","10:37:21","8","8","5.0.14.0","2","110","trial1","naming","0","0","0","0","tag","0","1943","1","White_Screen.jpg","0","31","Tag_Identifier.jpg","0"
"070819","10:37:21","8","8","5.0.14.0","2","111","trial1","naming","0","0","0","0","hand mixer","0","7458","1","White_Screen.jpg","0","55","HandMixer.jpg","0"
"070819","10:37:21","8","8","5.0.14.0","2","112","trial1","naming","0","0","0","0","sugar jar","0","3419","1","White_Screen.jpg","0","135","Bowl_Sugar.jpg","0"
"070819","10:37:21","8","8","5.0.14.0","2","113","trial1","naming","0","0","0","0","sheep","0","3259","1","White_Screen.jpg","-2","27","Sheep.jpg","-2"
"070819","10:37:21","8","8","5.0.14.0","2","114","trial1","naming","0","0","0","0","scissors","0","3294","1","White_Screen.jpg","0","52","Scissors.jpg","0"
"070819","10:37:21","8","8","5.0.14.0","2","115","trial1","naming","0","0","0","0","luxury","0","6657","1","White_Screen.jpg","0","72","ChariotGold.jpg","0"
"070819","10:37:21","8","8","5.0.14.0","2","116","trial1","naming","0","0","0","0","basketball ","0","10000","1","White_Screen.jpg","0","152","BasketballHoop.jpg","0"
"070819","10:37:21","8","8","5.0.14.0","2","117","trial1","naming","0","0","0","0","cracker","0","2388","1","White_Screen.jpg","-1","172","Cracker_Saltine.jpg","-1"
"070819","10:37:21","8","8","5.0.14.0","2","118","trial1","naming","0","0","0","0","gauge","0","2684","1","White_Screen.jpg","-2","32","Gauge.jpg","-2"
"070819","10:37:21","8","8","5.0.14.0","2","119","trial1","naming","0","0","0","0","triangle","0","5039","1","White_Screen.jpg","-2","92","Triangle.jpg","-2"
"070819","10:37:21","8","8","5.0.14.0","2","120","trial1","naming","0","0","0","0","film roll","0","3469","1","White_Screen.jpg","-2","131","Film_Roll.jpg","-2"
"070819","10:37:21","8","8","5.0.14.0","2","121","trial1","naming","0","0","0","0","pot holder","0","2968","1","White_Screen.jpg","-1","81","ClothCoaster.jpg","-1"
"070819","10:37:21","8","8","5.0.14.0","2","122","trial1","naming","0","0","0","0","manequin","0","6953","1","White_Screen.jpg","-1","132","PersonWooden.jpg","-1"
"070819","10:37:21","8","8","5.0.14.0","2","123","trial1","naming","0","0","0","0","seat","0","3810","1","White_Screen.jpg","-2","54","Chair_Car.jpg","-2"
"070819","10:37:21","8","8","5.0.14.0","2","124","trial1","naming","0","0","0","0","perfume","0","2590","1","White_Screen.jpg","0","87","Perfume.jpg","0"
"070819","10:37:21","8","8","5.0.14.0","2","125","trial1","naming","0","0","0","0","","0","10000","1","White_Screen.jpg","1","143","Machine_Bread.jpg","1"
"070819","10:37:21","8","8","5.0.14.0","2","126","trial1","naming","0","0","0","0","shorts","0","2316","1","White_Screen.jpg","-1","10","Shorts_Sports.jpg","-1"
"070819","10:37:21","8","8","5.0.14.0","2","127","trial1","naming","0","0","0","0","generator","0","6310","1","White_Screen.jpg","-1","107","Generator.jpg","-1"
"070819","10:37:21","8","8","5.0.14.0","2","128","trial1","naming","0","0","0","0","pencil holder","0","4134","1","White_Screen.jpg","0","75","PencilCase.jpg","0"
"070819","10:37:21","8","8","5.0.14.0","2","129","trial1","naming","0","0","0","0","road sign","0","3745","1","White_Screen.jpg","-2","105","Sign_Construction.jpg","-2"
"070819","10:37:21","8","8","5.0.14.0","2","130","trial1","naming","0","0","0","0","spool of wire","0","5065","1","White_Screen.jpg","0","116","SolderingWire.jpg","0"
"070819","10:37:21","8","8","5.0.14.0","2","131","trial1","naming","0","0","0","0","roll","0","6123","1","White_Screen.jpg","1","83","ToothbrushHolder.jpg","1"
"070819","10:37:21","8","8","5.0.14.0","2","132","trial1","naming","0","0","0","0","play crib","0","7420","1","White_Screen.jpg","1","146","Playard.jpg","1"
"070819","10:37:21","8","8","5.0.14.0","2","133","trial1","naming","0","0","0","0","bench","0","2469","1","White_Screen.jpg","-3","109","Bench_Park.jpg","-3"
"070819","10:37:21","8","8","5.0.14.0","2","134","trial1","naming","0","0","0","0","doors","0","3679","1","White_Screen.jpg","-1","123","Door_Green.jpg","-1"
"070819","10:37:21","8","8","5.0.14.0","2","135","trial1","naming","0","0","0","0","flip flop","0","4458","1","White_Screen.jpg","0","158","FlipFlop_SingleRed.jpg","0"
"070819","10:37:21","8","8","5.0.14.0","2","136","trial1","naming","0","0","0","0","leaf","0","1733","1","White_Screen.jpg","1","108","Leaf_Yellow.jpg","1"
"070819","10:37:21","8","8","5.0.14.0","2","137","trial1","naming","0","0","0","0","tennis ball","0","2649","1","White_Screen.jpg","-3","37","Ball_Tennis.jpg","-3"
"070819","10:37:21","8","8","5.0.14.0","2","138","trial1","naming","0","0","0","0","flip flops","0","5324","1","White_Screen.jpg","0","195","FlipFlop_PairBlue.jpg","0"
"070819","10:37:21","8","8","5.0.14.0","2","139","trial1","naming","0","0","0","0","pharoh","0","6613","1","White_Screen.jpg","1","88","PharoahReplica.jpg","1"
"070819","10:37:21","8","8","5.0.14.0","2","140","trial1","naming","0","0","0","0","suspenders","0","3683","1","White_Screen.jpg","0","176","Suspenders.jpg","0"
"070819","10:37:21","8","8","5.0.14.0","2","141","trial1","naming","0","0","0","0","jar","0","2295","1","White_Screen.jpg","0","4","Bucket_Ice.jpg","0"
"070819","10:37:21","8","8","5.0.14.0","2","142","trial1","naming","0","0","0","0","rolling backpack","0","4321","1","White_Screen.jpg","0","140","Backpack_Suitcase.jpg","0"
"070819","10:37:21","8","8","5.0.14.0","2","143","trial1","naming","0","0","0","0","ladybug","0","2908","1","White_Screen.jpg","-2","163","Ladybug.jpg","-2"
"070819","10:37:21","8","8","5.0.14.0","2","144","trial1","naming","0","0","0","0","golf ball","0","3909","1","White_Screen.jpg","1","104","Ball_Golf.jpg","1"
"070819","10:37:21","8","8","5.0.14.0","2","145","trial1","naming","0","0","0","0","gavel","0","4824","1","White_Screen.jpg","1","47","MalletJudge.jpg","1"
"070819","10:37:21","8","8","5.0.14.0","2","146","trial1","naming","0","0","0","0","mouse","0","2036","1","White_Screen.jpg","1","79","Chinchilla.jpg","1"
"070819","10:37:21","8","8","5.0.14.0","2","147","trial1","naming","0","0","0","0","taco","0","1628","1","White_Screen.jpg","-2","177","Taco.jpg","-2"
"070819","10:37:21","8","8","5.0.14.0","2","148","trial1","naming","0","0","0","0","stick","0","4624","1","White_Screen.jpg","1","193","Cane_Wooden.jpg","1"
"070819","10:37:21","8","8","5.0.14.0","2","149","trial1","naming","0","0","0","0","toolbox","0","2861","1","White_Screen.jpg","1","82","Toolbox_RedOpen.jpg","1"
"070819","10:37:21","8","8","5.0.14.0","2","150","trial1","naming","0","0","0","0","wheel","0","2081","1","White_Screen.jpg","0","200","BicycleWheel.jpg","0"
"070819","10:37:21","8","8","5.0.14.0","2","151","trial1","naming","0","0","0","0","tea","0","3069","1","White_Screen.jpg","0","3","ChiliFlakes.jpg","0"
"070819","10:37:21","8","8","5.0.14.0","2","152","trial1","naming","0","0","0","0","walker","0","2092","1","White_Screen.jpg","-3","125","Walker_Silver.jpg","-3"
"070819","10:37:21","8","8","5.0.14.0","2","154","trial1","naming","0","0","0","0","wedding cake","0","2959","1","White_Screen.jpg","0","101","Cake_Wedding.jpg","0"
"070819","10:37:21","8","8","5.0.14.0","2","155","trial1","naming","0","0","0","0","wheel","0","1728","1","White_Screen.jpg","1","2","BicycleWheelRusty.jpg","1"
"070819","10:37:21","8","8","5.0.14.0","2","156","trial1","naming","0","0","0","0","drum","0","2275","1","White_Screen.jpg","0","7","Drum_Brazilan.jpg","0"
"070819","10:37:21","8","8","5.0.14.0","2","157","trial1","naming","0","0","0","0","lamp","0","2205","1","White_Screen.jpg","1","12","Lantern_Chinese.jpg","1"
"070819","10:37:21","8","8","5.0.14.0","2","158","trial1","naming","0","0","0","0","testtube holder","0","5724","1","White_Screen.jpg","0","25","TestTube_MultipleAndRack.jpg","0"
"070819","10:37:21","8","8","5.0.14.0","2","159","trial1","naming","0","0","0","0","eraser","0","8309","1","White_Screen.jpg","0","117","ChalkboardEraser.jpg","0"
"070819","10:37:21","8","8","5.0.14.0","2","160","trial1","naming","0","0","0","0","wash cloth","0","4390","1","White_Screen.jpg","0","36","Rag.jpg","0"
"070819","10:37:21","8","8","5.0.14.0","2","161","trial1","naming","0","0","0","0","arch","0","2741","1","White_Screen.jpg","0","166","Arch_Triomphe.jpg","0"
"070819","10:37:21","8","8","5.0.14.0","2","162","trial1","naming","0","0","0","0","briefcase","0","4662","1","White_Screen.jpg","-1","165","Briefcase_Silver.jpg","-1"
"070819","10:37:21","8","8","5.0.14.0","2","163","trial1","naming","0","0","0","0","blood pressure taker","0","6354","1","White_Screen.jpg","0","43","BloodpPresureCuff.jpg","0"
"070819","10:37:21","8","8","5.0.14.0","2","164","trial1","naming","0","0","0","0","breakfast","0","4211","1","White_Screen.jpg","-2","142","Waffle.jpg","-2"
"070819","10:37:21","8","8","5.0.14.0","2","165","trial1","naming","0","0","0","0","cuffs","0","2207","1","White_Screen.jpg","1","120","Handcuffs.jpg","1"
"070819","10:37:21","8","8","5.0.14.0","2","166","trial1","naming","0","0","0","0","cork","0","1894","1","White_Screen.jpg","1","121","Cork.jpg","1"
"070819","10:37:21","8","8","5.0.14.0","2","167","trial1","naming","0","0","0","0","skidoo","0","2784","1","White_Screen.jpg","0","58","Jetski.jpg","0"
"070819","10:37:21","8","8","5.0.14.0","2","168","trial1","naming","0","0","0","0","rice cooker","0","2465","1","White_Screen.jpg","0","139","RiceCooker.jpg","0"
"070819","10:37:21","8","8","5.0.14.0","2","169","trial1","naming","0","0","0","0","hat","0","2349","1","White_Screen.jpg","0","198","Hat_Feather.jpg","0"
"070819","10:37:21","8","8","5.0.14.0","2","170","trial1","naming","0","0","0","0","paddle","0","2102","1","White_Screen.jpg","-1","16","Paddle_Canoe.jpg","-1"
"070819","10:37:21","8","8","5.0.14.0","2","171","trial1","naming","0","0","0","0","elk","0","3817","1","White_Screen.jpg","-2","130","Caribou.jpg","-2"
"070819","10:37:21","8","8","5.0.14.0","2","172","trial1","naming","0","0","0","0","box","0","4742","1","White_Screen.jpg","1","106","Book_Paper.jpg","1"
"070819","10:37:21","8","8","5.0.14.0","2","173","trial1","naming","0","0","0","0","bowtie","0","4496","1","White_Screen.jpg","-1","28","Bowtie.jpg","-1"
"070819","10:37:21","8","8","5.0.14.0","2","174","trial1","naming","0","0","0","0","hockey gear","0","4712","1","White_Screen.jpg","2","74","Hockey_Equipment.jpg","2"
"070819","10:37:21","8","8","5.0.14.0","2","175","trial1","naming","0","0","0","0","totem pole","0","2867","1","White_Screen.jpg","1","89","TotemPole.jpg","1"
"070819","10:37:21","8","8","5.0.14.0","2","176","trial1","naming","0","0","0","0","camera","0","3280","1","White_Screen.jpg","0","21","Camera_ProfessionalFilm.jpg","0"
"070819","10:37:21","8","8","5.0.14.0","2","177","trial1","naming","0","0","0","0","drums","0","2036","1","White_Screen.jpg","0","147","Drum_Bongos.jpg","0"
"070819","10:37:21","8","8","5.0.14.0","2","178","trial1","naming","0","0","0","0","hammer","0","2962","1","White_Screen.jpg","0","1","Hammer.jpg","0"
"070819","10:37:21","8","8","5.0.14.0","2","179","trial1","naming","0","0","0","0","dutch oven","0","5649","1","White_Screen.jpg","1","186","Pot_Crock.jpg","1"
"070819","10:37:21","8","8","5.0.14.0","2","180","trial1","naming","0","0","0","0","oven mitt","0","4381","1","White_Screen.jpg","1","190","Mitt_Oven.jpg","1"
"070819","10:37:21","8","8","5.0.14.0","2","181","trial1","naming","0","0","0","0","defib","0","3181","1","White_Screen.jpg","0","8","Defribrillator.jpg","0"
"070819","10:37:21","8","8","5.0.14.0","2","182","trial1","naming","0","0","0","0","hamster cage","0","4917","1","White_Screen.jpg","0","39","Cage_Hamster.jpg","0"
"070819","10:37:21","8","8","5.0.14.0","2","183","trial1","naming","0","0","0","0","ear checker","0","5448","1","White_Screen.jpg","-1","96","EyeExamDevice.jpg","-1"
"070819","10:37:21","8","8","5.0.14.0","2","184","trial1","naming","0","0","0","0","thing","0","6410","1","White_Screen.jpg","1","180","ShakerShekere.jpg","1"
"070819","10:37:21","8","8","5.0.14.0","2","185","trial1","naming","0","0","0","0","bird","0","1792","1","White_Screen.jpg","0","156","Bird_Tern.jpg","0"
"070819","10:37:21","8","8","5.0.14.0","2","186","trial1","naming","0","0","0","0","chain link fence","0","5991","1","White_Screen.jpg","0","129","Fence_ChainLink.jpg","0"
"070819","10:37:21","8","8","5.0.14.0","2","187","trial1","naming","0","0","0","0","big truck","0","5157","1","White_Screen.jpg","0","114","Truck_Box.jpg","0"
"070819","10:37:21","8","8","5.0.14.0","2","188","trial1","naming","0","0","0","0","gym bag","0","3510","1","White_Screen.jpg","0","188","Bag_String.jpg","0"
"070819","10:37:21","8","8","5.0.14.0","2","189","trial1","naming","0","0","0","0","pear","0","4991","1","White_Screen.jpg","1","5","Mango.jpg","1"
"070819","10:37:21","8","8","5.0.14.0","2","190","trial1","naming","0","0","0","0","stationary bike","0","6037","1","White_Screen.jpg","1","40","Exercise_Bike.jpg","1"
"070819","10:37:21","8","8","5.0.14.0","2","191","trial1","naming","0","0","0","0","mixer","0","3170","1","White_Screen.jpg","1","77","SoundMixer_Blue.jpg","1"
"070819","10:37:21","8","8","5.0.14.0","2","192","trial1","naming","0","0","0","0","trailer","0","2189","1","White_Screen.jpg","-2","15","BoxTrailer.jpg","-2"
"070819","10:37:21","8","8","5.0.14.0","2","193","trial1","naming","0","0","0","0","bike lock","0","3553","1","White_Screen.jpg","0","174","Lock_Bike.jpg","0"
"070819","10:37:21","8","8","5.0.14.0","2","194","trial1","naming","0","0","0","0","baseball glove","0","5052","1","White_Screen.jpg","-2","173","Glove_Baseball.jpg","-2"
"070819","10:37:21","8","8","5.0.14.0","2","195","trial1","naming","0","0","0","0","wine","0","2177","1","White_Screen.jpg","-2","91","Crate_Wine.jpg","-2"
"070819","10:37:21","8","8","5.0.14.0","2","196","trial1","naming","0","0","0","0","VHS","0","3094","1","White_Screen.jpg","1","13","Cassette_Video.jpg","1"
"070819","10:37:21","8","8","5.0.14.0","2","197","trial1","naming","0","0","0","0","radio","0","2345","1","White_Screen.jpg","0","9","Radio_Modern.jpg","0"
"070819","10:37:21","8","8","5.0.14.0","2","198","trial1","naming","0","0","0","0","pefume","0","4250","1","White_Screen.jpg","1","23","Box_Vials.jpg","1"
"070819","10:37:21","8","8","5.0.14.0","2","199","trial1","naming","0","0","0","0","bread","0","3624","1","White_Screen.jpg","0","66","Bread_Pita.jpg","0"
"070819","10:37:21","8","8","5.0.14.0","2","200","trial1","naming","0","0","0","0","instrument","0","3165","1","White_Screen.jpg","0","57","Flute_Wooden.jpg","0"
"070819","10:37:21","8","8","5.0.14.0","2","201","trial1","naming","0","0","0","0","knife","0","2476","1","White_Screen.jpg","0","119","Knife_Hunting.jpg","0"
"070819","10:37:21","8","8","5.0.14.0","2","202","trial1","naming","0","0","0","0","candy holder","0","6504","1","White_Screen.jpg","0","161","Bucket_Halloween.jpg","0"
"070819","10:37:21","8","8","5.0.14.0","2","203","trial1","naming","0","0","0","0","grenade","0","2413","1","White_Screen.jpg","-3","187","Grenade.jpg","-3"
"070819","10:37:21","8","8","5.0.14.0","3","1","demographics_block","gender","0","0","0","0","Male","1","7312","0","0","0","0","0","0"
"070819","10:37:21","8","8","5.0.14.0","3","1","demographics_block","age","0","0","0","0","25","1","7312","0","0","0","0","0","0"
"070819","10:37:21","8","8","5.0.14.0","3","1","demographics_block","education","0","0","0","0","16","1","7312","0","0","0","0","0","0"
"070819","10:37:21","8","8","5.0.14.0","3","2","demographics_block","left_right_handed","0","0","0","0","Right","1","4965","0","0","0","0","0","0"
"070819","10:37:21","8","8","5.0.14.0","3","2","demographics_block","raceoption1","0","0","0","0","0","1","4965","0","0","0","0","0","0"
"070819","10:37:21","8","8","5.0.14.0","3","2","demographics_block","raceoption2","0","0","0","0","","1","4965","0","0","0","0","0","0"
"070819","10:37:21","8","8","5.0.14.0","3","2","demographics_block","raceoption3","0","0","0","0","","1","4965","0","0","0","0","0","0"
"070819","10:37:21","8","8","5.0.14.0","3","2","demographics_block","raceoption4","0","0","0","0","","1","4965","0","0","0","0","0","0"
"070819","10:37:21","8","8","5.0.14.0","3","2","demographics_block","raceoption5","0","0","0","0","","1","4965","0","0","0","0","0","0"
"070819","10:37:21","8","8","5.0.14.0","3","2","demographics_block","raceoption6","0","0","0","0","","1","4965","0","0","0","0","0","0"
"070819","10:37:21","8","8","5.0.14.0","3","2","demographics_block","raceoption7","0","0","0","0","","1","4965","0","0","0","0","0","0"
"070819","10:37:21","8","8","5.0.14.0","3","2","demographics_block","raceoption8","0","0","0","0","","1","4965","0","0","0","0","0","0"
"070819","10:37:21","8","8","5.0.14.0","3","2","demographics_block","raceoption9","0","0","0","0","","1","4965","0","0","0","0","0","0"
"070819","10:37:21","8","8","5.0.14.0","3","2","demographics_block","raceother","0","0","0","0","","1","4965","0","0","0","0","0","0"
"070819","10:37:21","8","8","5.0.14.0","3","2","demographics_block","raceother","0","0","0","0","","1","4965","0","0","0","0","0","0"
"070819","10:37:21","8","8","5.0.14.0","3","2","demographics_block","english_language","0","0","0","0","Yes","1","4965","0","0","0","0","0","0"
"070819","10:37:21","8","8","5.0.14.0","3","2","demographics_block","english_languageother","0","0","0","0","","1","4965","0","0","0","0","0","0"
"070819","10:37:21","8","8","5.0.14.0","3","3","demographics_block","eyesight","0","0","0","0","Yes","1","9280","0","0","0","0","0","0"
"070819","10:37:21","8","8","5.0.14.0","3","3","demographics_block","colorblind","0","0","0","0","No","1","9280","0","0","0","0","0","0"
"070819","10:37:21","8","8","5.0.14.0","4","1","worker_id_block","worker_id_textbox","0","0","0","0","A1RIWJCRETVHG3","1","53591","0","0","0","0","0","0"
"070819","10:34:51","4","4","5.0.14.0","2","1","trial1","naming","0","0","0","0","e","0","10000","1","White_Screen.jpg","167","8","Defribrillator.jpg","167"
"070819","10:34:51","4","4","5.0.14.0","2","2","trial1","naming","0","0","0","0","drum","0","5592","1","White_Screen.jpg","7","7","Drum_Brazilan.jpg","7"
"070819","10:34:51","4","4","5.0.14.0","2","3","trial1","naming","0","0","0","0","lens","0","5410","1","White_Screen.jpg","8","45","Lens_Camera.jpg","8"
"070819","10:34:51","4","4","5.0.14.0","2","4","trial1","naming","0","0","0","0","flip flopsEnter Name","0","3909","1","White_Screen.jpg","6","195","FlipFlop_PairBlue.jpg","6"
"070819","10:34:51","4","4","5.0.14.0","2","5","trial1","naming","0","0","0","0","motherboard","0","10000","1","White_Screen.jpg","7","77","SoundMixer_Blue.jpg","7"
"070819","10:34:51","4","4","5.0.14.0","2","6","trial1","naming","0","0","0","0","playpen","0","7679","1","White_Screen.jpg","7","146","Playard.jpg","7"
"070819","10:34:51","4","4","5.0.14.0","2","7","trial1","naming","0","0","0","0","glove","0","4430","1","White_Screen.jpg","7","173","Glove_Baseball.jpg","7"
"070819","10:34:51","4","4","5.0.14.0","2","8","trial1","naming","0","0","0","0","camera","0","4865","1","White_Screen.jpg","6","21","Camera_ProfessionalFilm.jpg","6"
"070819","10:34:51","4","4","5.0.14.0","2","9","trial1","naming","0","0","0","0","pharoh mask","0","6660","1","White_Screen.jpg","7","88","PharoahReplica.jpg","7"
"070819","10:34:51","4","4","5.0.14.0","2","10","trial1","naming","0","0","0","0","wood","0","3586","1","White_Screen.jpg","6","48","Bark.jpg","6"
"070819","10:34:51","4","4","5.0.14.0","2","11","trial1","naming","0","0","0","0","shaver","0","5096","1","White_Screen.jpg","7","191","LintRemover.jpg","7"
"070819","10:34:51","4","4","5.0.14.0","2","12","trial1","naming","0","0","0","0","leaf","0","3496","1","White_Screen.jpg","6","151","Lilypad.jpg","6"
"070819","10:34:51","4","4","5.0.14.0","2","13","trial1","naming","0","0","0","0","hockey gear","0","8291","1","White_Screen.jpg","7","74","Hockey_Equipment.jpg","7"
"070819","10:34:51","4","4","5.0.14.0","2","14","trial1","naming","0","0","0","0","cabin","0","6185","1","White_Screen.jpg","5","164","House_Rural.jpg","5"
"070819","10:34:51","4","4","5.0.14.0","2","15","trial1","naming","0","0","0","0","ear checker","0","6858","1","White_Screen.jpg","5","96","EyeExamDevice.jpg","5"
"070819","10:34:51","4","4","5.0.14.0","2","16","trial1","naming","0","0","0","0","space station","0","4862","1","White_Screen.jpg","6","148","TelescopeSpacecraft.jpg","6"
"070819","10:34:51","4","4","5.0.14.0","2","17","trial1","naming","0","0","0","0","car seat","0","3293","1","White_Screen.jpg","7","54","Chair_Car.jpg","7"
"070819","10:34:51","4","4","5.0.14.0","2","18","trial1","naming","0","0","0","0","dishwashing glove","0","5530","1","White_Screen.jpg","6","182","Glove_Rubber.jpg","6"
"070819","10:34:51","4","4","5.0.14.0","2","19","trial1","naming","0","0","0","0","puppet stage","0","6972","1","White_Screen.jpg","7","71","PuppetTheatre_WhiteGold.jpg","7"
"070819","10:34:51","4","4","5.0.14.0","2","20","trial1","naming","0","0","0","0","oil case","0","5026","1","White_Screen.jpg","6","23","Box_Vials.jpg","6"
"070819","10:34:51","4","4","5.0.14.0","2","21","trial1","naming","0","0","0","0","moracca","0","4612","1","White_Screen.jpg","8","180","ShakerShekere.jpg","8"
"070819","10:34:51","4","4","5.0.14.0","2","22","trial1","naming","0","0","0","0","paper cutter","0","3525","1","White_Screen.jpg","7","144","PaperCutter.jpg","7"
"070819","10:34:51","4","4","5.0.14.0","2","23","trial1","naming","0","0","0","0","floor mat","0","3781","1","White_Screen.jpg","6","11","Wallet_ClosedBrown.jpg","6"
"070819","10:34:51","4","4","5.0.14.0","2","24","trial1","naming","0","0","0","0","potpurri","0","4891","1","White_Screen.jpg","7","3","ChiliFlakes.jpg","7"
"070819","10:34:51","4","4","5.0.14.0","2","25","trial1","naming","0","0","0","0","alarm","0","2787","1","White_Screen.jpg","7","124","FireAlarm.jpg","7"
"070819","10:34:51","4","4","5.0.14.0","2","26","trial1","naming","0","0","0","0","knife","0","2406","1","White_Screen.jpg","6","119","Knife_Hunting.jpg","6"
"070819","10:34:51","4","4","5.0.14.0","2","27","trial1","naming","0","0","0","0","tub","0","3105","1","White_Screen.jpg","6","170","Bucket_WoodenLight.jpg","6"
"070819","10:34:51","4","4","5.0.14.0","2","28","trial1","naming","0","0","0","0","walker","0","2095","1","White_Screen.jpg","7","125","Walker_Silver.jpg","7"
"070819","10:34:51","4","4","5.0.14.0","2","29","trial1","naming","0","0","0","0","bureau","0","6546","1","White_Screen.jpg","7","115","Dresser_1.jpg","7"
"070819","10:34:51","4","4","5.0.14.0","2","30","trial1","naming","0","0","0","0","film","0","2869","1","White_Screen.jpg","7","131","Film_Roll.jpg","7"
"070819","10:34:51","4","4","5.0.14.0","2","31","trial1","naming","0","0","0","0","leash","0","3327","1","White_Screen.jpg","6","150","DogLeash.jpg","6"
"070819","10:34:51","4","4","5.0.14.0","2","32","trial1","naming","0","0","0","0","loofah","0","3761","1","White_Screen.jpg","6","98","Loofa.jpg","6"
"070819","10:34:51","4","4","5.0.14.0","2","33","trial1","naming","0","0","0","0","cone","0","1774","1","White_Screen.jpg","6","197","IceCreamCone.jpg","6"
"070819","10:34:51","4","4","5.0.14.0","2","34","trial1","naming","0","0","0","0","bow tie","0","3905","1","White_Screen.jpg","6","28","Bowtie.jpg","6"
"070819","10:34:51","4","4","5.0.14.0","2","35","trial1","naming","0","0","0","0","arm","0","1908","1","White_Screen.jpg","7","137","Arm.jpg","7"
"070819","10:34:51","4","4","5.0.14.0","2","36","trial1","naming","0","0","0","0","pea pod","0","4573","1","White_Screen.jpg","10","160","Snowpea.jpg","10"
"070819","10:34:51","4","4","5.0.14.0","2","37","trial1","naming","0","0","0","0","rake","0","1761","1","White_Screen.jpg","6","19","Rake_Long.jpg","6"
"070819","10:34:51","4","4","5.0.14.0","2","38","trial1","naming","0","0","0","0","bench","0","2563","1","White_Screen.jpg","6","109","Bench_Park.jpg","6"
"070819","10:34:51","4","4","5.0.14.0","2","39","trial1","naming","0","0","0","0","paddle","0","3133","1","White_Screen.jpg","7","16","Paddle_Canoe.jpg","7"
"070819","10:34:51","4","4","5.0.14.0","2","40","trial1","naming","0","0","0","0","knee","0","1907","1","White_Screen.jpg","7","181","Knee.jpg","7"
"070819","10:34:51","4","4","5.0.14.0","2","41","trial1","naming","0","0","0","0","blood pressure taker","0","5381","1","White_Screen.jpg","6","43","BloodpPresureCuff.jpg","6"
"070819","10:34:51","4","4","5.0.14.0","2","42","trial1","naming","0","0","0","0","pencil holder","0","6051","1","White_Screen.jpg","6","83","ToothbrushHolder.jpg","6"
"070819","10:34:51","4","4","5.0.14.0","2","43","trial1","naming","0","0","0","0","bread machine","0","4782","1","White_Screen.jpg","7","143","Machine_Bread.jpg","7"
"070819","10:34:51","4","4","5.0.14.0","2","44","trial1","naming","0","0","0","0","screen","0","2650","1","White_Screen.jpg","6","192","ProjectorScreen.jpg","6"
"070819","10:34:51","4","4","5.0.14.0","2","45","trial1","naming","0","0","0","0","pita bread","0","5103","1","White_Screen.jpg","7","66","Bread_Pita.jpg","7"
"070819","10:34:51","4","4","5.0.14.0","2","46","trial1","naming","0","0","0","0","radio player","0","7321","1","White_Screen.jpg","9","9","Radio_Modern.jpg","9"
"070819","10:34:51","4","4","5.0.14.0","2","47","trial1","naming","0","0","0","0","bottle","0","2519","1","White_Screen.jpg","7","194","Bottle_Baby.jpg","7"
"070819","10:34:51","4","4","5.0.14.0","2","48","trial1","naming","0","0","0","0","drums","0","2563","1","White_Screen.jpg","7","147","Drum_Bongos.jpg","7"
"070819","10:34:51","4","4","5.0.14.0","2","49","trial1","naming","0","0","0","0","train","0","6140","1","White_Screen.jpg","7","196","Locomotive.jpg","7"
"070819","10:34:51","4","4","5.0.14.0","2","50","trial1","naming","0","0","0","0","candy bar","0","3328","1","White_Screen.jpg","7","86","Toblerone.jpg","7"
"070819","10:34:51","4","4","5.0.14.0","2","52","trial1","naming","0","0","0","0","drill","0","2537","1","White_Screen.jpg","11","60","DrillBit.jpg","11"
"070819","10:34:51","4","4","5.0.14.0","2","53","trial1","naming","0","0","0","0","luggage","0","3677","1","White_Screen.jpg","7","140","Backpack_Suitcase.jpg","7"
"070819","10:34:51","4","4","5.0.14.0","2","54","trial1","naming","0","0","0","0","sugar bowl","0","4946","1","White_Screen.jpg","6","135","Bowl_Sugar.jpg","6"
"070819","10:34:51","4","4","5.0.14.0","2","55","trial1","naming","0","0","0","0","folder","0","3432","1","White_Screen.jpg","8","100","Binder.jpg","8"
"070819","10:34:51","4","4","5.0.14.0","2","56","trial1","naming","0","0","0","0","pitcher","0","3598","1","White_Screen.jpg","7","44","Pitcher.jpg","7"
"070819","10:34:51","4","4","5.0.14.0","2","57","trial1","naming","0","0","0","0","gears","0","3241","1","White_Screen.jpg","7","85","BicycleChain.jpg","7"
"070819","10:34:51","4","4","5.0.14.0","2","58","trial1","naming","0","0","0","0","flute","0","3425","1","White_Screen.jpg","7","57","Flute_Wooden.jpg","7"
"070819","10:34:51","4","4","5.0.14.0","2","59","trial1","naming","0","0","0","0","pot","0","2754","1","White_Screen.jpg","5","186","Pot_Crock.jpg","5"
"070819","10:34:51","4","4","5.0.14.0","2","60","trial1","naming","0","0","0","0","gauge","0","5119","1","White_Screen.jpg","7","32","Gauge.jpg","7"
"070819","10:34:51","4","4","5.0.14.0","2","61","trial1","naming","0","0","0","0","chicken","0","2775","1","White_Screen.jpg","7","189","Toy_Chicken.jpg","7"
"070819","10:34:51","4","4","5.0.14.0","2","62","trial1","naming","0","0","0","0","knitting needle","0","5830","1","White_Screen.jpg","7","141","ToothPick.jpg","7"
"070819","10:34:51","4","4","5.0.14.0","2","63","trial1","naming","0","0","0","0","party blowers","0","7364","1","White_Screen.jpg","7","184","Noisemaker_Streamers.jpg","7"
"070819","10:34:51","4","4","5.0.14.0","2","64","trial1","naming","0","0","0","0","suitcase","0","3531","1","White_Screen.jpg","7","165","Briefcase_Silver.jpg","7"
"070819","10:34:51","4","4","5.0.14.0","2","65","trial1","naming","0","0","0","0","gavel","0","4032","1","White_Screen.jpg","7","47","MalletJudge.jpg","7"
"070819","10:34:51","4","4","5.0.14.0","2","66","trial1","naming","0","0","0","0","arch","0","3591","1","White_Screen.jpg","7","166","Arch_Triomphe.jpg","7"
"070819","10:34:51","4","4","5.0.14.0","2","67","trial1","naming","0","0","0","0","ointment","0","2800","1","White_Screen.jpg","6","46","Tube_Glue.jpg","6"
"070819","10:34:51","4","4","5.0.14.0","2","68","trial1","naming","0","0","0","0","lamp","0","2103","1","White_Screen.jpg","7","61","Lantern_Tea.jpg","7"
"070819","10:34:51","4","4","5.0.14.0","2","69","trial1","naming","0","0","0","0","pot holder","0","4304","1","White_Screen.jpg","6","190","Mitt_Oven.jpg","6"
"070819","10:34:51","4","4","5.0.14.0","2","70","trial1","naming","0","0","0","0","rope","0","3446","1","White_Screen.jpg","7","179","Rope_Manila.jpg","7"
"070819","10:34:51","4","4","5.0.14.0","2","71","trial1","naming","0","0","0","0","bike lock","0","3997","1","White_Screen.jpg","6","174","Lock_Bike.jpg","6"
"070819","10:34:51","4","4","5.0.14.0","2","72","trial1","naming","0","0","0","0","perfume","0","5351","1","White_Screen.jpg","6","87","Perfume.jpg","6"
"070819","10:34:51","4","4","5.0.14.0","2","73","trial1","naming","0","0","0","0","handcuffs","0","3077","1","White_Screen.jpg","7","120","Handcuffs.jpg","7"
"070819","10:34:51","4","4","5.0.14.0","2","74","trial1","naming","0","0","0","0","sandal","0","4744","1","White_Screen.jpg","6","158","FlipFlop_SingleRed.jpg","6"
"070819","10:34:51","4","4","5.0.14.0","2","75","trial1","naming","0","0","0","0","washcloth","0","4968","1","White_Screen.jpg","7","36","Rag.jpg","7"
"070819","10:34:51","4","4","5.0.14.0","2","76","trial1","naming","0","0","0","0","winnie the pooh","0","8249","1","White_Screen.jpg","7","153","Toy_WinnieThePooh.jpg","7"
"070819","10:34:51","4","4","5.0.14.0","2","77","trial1","naming","0","0","0","0","stump","0","3306","1","White_Screen.jpg","7","14","TreeStump.jpg","7"
"070819","10:34:51","4","4","5.0.14.0","2","78","trial1","naming","0","0","0","0","doll","0","2440","1","White_Screen.jpg","7","132","PersonWooden.jpg","7"
"070819","10:34:51","4","4","5.0.14.0","2","79","trial1","naming","0","0","0","0","sign","0","2251","1","White_Screen.jpg","6","105","Sign_Construction.jpg","6"
"070819","10:34:51","4","4","5.0.14.0","2","80","trial1","naming","0","0","0","0","broom","0","2699","1","White_Screen.jpg","7","80","Broom_Short.jpg","7"
"070819","10:34:51","4","4","5.0.14.0","2","81","trial1","naming","0","0","0","0","eraser","0","5180","1","White_Screen.jpg","7","117","ChalkboardEraser.jpg","7"
"070819","10:34:51","4","4","5.0.14.0","2","82","trial1","naming","0","0","0","0","button","0","2466","1","White_Screen.jpg","7","138","Button.jpg","7"
"070819","10:34:51","4","4","5.0.14.0","2","83","trial1","naming","0","0","0","0","cream","0","2661","1","White_Screen.jpg","7","68","ToothPaste.jpg","7"
"070819","10:34:51","4","4","5.0.14.0","2","84","trial1","naming","0","0","0","0","fork lift","0","6807","1","White_Screen.jpg","8","99","Dolly.jpg","8"
"070819","10:34:51","4","4","5.0.14.0","2","85","trial1","naming","0","0","0","0","luggage tag","0","4479","1","White_Screen.jpg","7","31","Tag_Identifier.jpg","7"
"070819","10:34:51","4","4","5.0.14.0","2","86","trial1","naming","0","0","0","0","mask","0","2247","1","White_Screen.jpg","6","133","Mask_VenetianLongNose.jpg","6"
"070819","10:34:51","4","4","5.0.14.0","2","87","trial1","naming","0","0","0","0","suspenders","0","3950","1","White_Screen.jpg","6","176","Suspenders.jpg","6"
"070819","10:34:51","4","4","5.0.14.0","2","88","trial1","naming","0","0","0","0","stationary bike","0","4117","1","White_Screen.jpg","7","40","Exercise_Bike.jpg","7"
"070819","10:34:51","4","4","5.0.14.0","2","89","trial1","naming","0","0","0","0","tennis ball","0","4606","1","White_Screen.jpg","7","37","Ball_Tennis.jpg","7"
"070819","10:34:51","4","4","5.0.14.0","2","90","trial1","naming","0","0","0","0","bowling ball","0","5264","1","White_Screen.jpg","7","49","Ball_Bowling.jpg","7"
"070819","10:34:51","4","4","5.0.14.0","2","91","trial1","naming","0","0","0","0","server","0","6080","1","White_Screen.jpg","6","64","TelephoneSwitchboard.jpg","6"
"070819","10:34:51","4","4","5.0.14.0","2","92","trial1","naming","0","0","0","0","cash register","0","3593","1","White_Screen.jpg","7","67","CashRegister_Modern.jpg","7"
"070819","10:34:51","4","4","5.0.14.0","2","93","trial1","naming","0","0","0","0","lady bug","0","2969","1","White_Screen.jpg","7","163","Ladybug.jpg","7"
"070819","10:34:51","4","4","5.0.14.0","2","94","trial1","naming","0","0","0","0","cocktail","0","3938","1","White_Screen.jpg","7","20","Drink_Cocktail.jpg","7"
"070819","10:34:51","4","4","5.0.14.0","2","95","trial1","naming","0","0","0","0","oragami","0","3196","1","White_Screen.jpg","5","183","Origami_Ox.jpg","5"
"070819","10:34:51","4","4","5.0.14.0","2","96","trial1","naming","0","0","0","0","bib","0","2855","1","White_Screen.jpg","7","126","Bib.jpg","7"
"070819","10:34:51","4","4","5.0.14.0","2","97","trial1","naming","0","0","0","0","box","0","6285","1","White_Screen.jpg","7","106","Book_Paper.jpg","7"
"070819","10:34:51","4","4","5.0.14.0","2","98","trial1","naming","0","0","0","0","stamp","0","3072","1","White_Screen.jpg","7","157","Stamper.jpg","7"
"070819","10:34:51","4","4","5.0.14.0","2","99","trial1","naming","0","0","0","0","video recorder","0","7841","1","White_Screen.jpg","7","162","Camera_Video.jpg","7"
"070819","10:34:51","4","4","5.0.14.0","2","100","trial1","naming","0","0","0","0","scissors","0","3461","1","White_Screen.jpg","6","52","Scissors.jpg","6"
"070819","10:34:51","4","4","5.0.14.0","2","101","trial1","naming","0","0","0","0","bird","0","2133","1","White_Screen.jpg","6","156","Bird_Tern.jpg","6"
"070819","10:34:51","4","4","5.0.14.0","2","103","trial1","naming","0","0","0","0","jackolantern","0","9024","1","White_Screen.jpg","11","161","Bucket_Halloween.jpg","11"
"070819","10:34:51","4","4","5.0.14.0","2","104","trial1","naming","0","0","0","0","kiddie pool","0","3515","1","White_Screen.jpg","8","84","KiddiePool.jpg","8"
"070819","10:34:51","4","4","5.0.14.0","2","105","trial1","naming","0","0","0","0","triangle","0","3278","1","White_Screen.jpg","8","92","Triangle.jpg","8"
"070819","10:34:51","4","4","5.0.14.0","2","106","trial1","naming","0","0","0","0","elk","0","2312","1","White_Screen.jpg","8","130","Caribou.jpg","8"
"070819","10:34:51","4","4","5.0.14.0","2","107","trial1","naming","0","0","0","0","car","0","1618","1","White_Screen.jpg","8","127","Toy_Car.jpg","8"
"070819","10:34:51","4","4","5.0.14.0","2","108","trial1","naming","0","0","0","0","mop","0","7722","1","White_Screen.jpg","6","169","Cart_Janitor.jpg","6"
"070819","10:34:51","4","4","5.0.14.0","2","109","trial1","naming","0","0","0","0","hamster","0","2571","1","White_Screen.jpg","9","79","Chinchilla.jpg","9"
"070819","10:34:51","4","4","5.0.14.0","2","110","trial1","naming","0","0","0","0","bucket","0","4608","1","White_Screen.jpg","6","4","Bucket_Ice.jpg","6"
"070819","10:34:51","4","4","5.0.14.0","2","111","trial1","naming","0","0","0","0","test tubes","0","3432","1","White_Screen.jpg","8","25","TestTube_MultipleAndRack.jpg","8"
"070819","10:34:51","4","4","5.0.14.0","2","112","trial1","naming","0","0","0","0","pump","0","2237","1","White_Screen.jpg","7","113","Shoe_WomenHeals.jpg","7"
"070819","10:34:51","4","4","5.0.14.0","2","113","trial1","naming","0","0","0","0","cork","0","1877","1","White_Screen.jpg","6","121","Cork.jpg","6"
"070819","10:34:51","4","4","5.0.14.0","2","114","trial1","naming","0","0","0","0","clothes pin","0","8386","1","White_Screen.jpg","7","136","Clothespin_Beige.jpg","7"
"070819","10:34:51","4","4","5.0.14.0","2","115","trial1","naming","0","0","0","0","check","0","2848","1","White_Screen.jpg","7","6","Cheque.jpg","7"
"070819","10:34:51","4","4","5.0.14.0","2","116","trial1","naming","0","0","0","0","desk organizer","0","5596","1","White_Screen.jpg","7","30","Stationary.jpg","7"
"070819","10:34:51","4","4","5.0.14.0","2","117","trial1","naming","0","0","0","0","sewing machine","0","4117","1","White_Screen.jpg","7","50","SewingMachine.jpg","7"
"070819","10:34:51","4","4","5.0.14.0","2","118","trial1","naming","0","0","0","0","cabin","0","2985","1","White_Screen.jpg","6","155","House_Stone.jpg","6"
"070819","10:34:51","4","4","5.0.14.0","2","119","trial1","naming","0","0","0","0","screw","0","2699","1","White_Screen.jpg","8","149","Bolt.jpg","8"
"070819","10:34:51","4","4","5.0.14.0","2","120","trial1","naming","0","0","0","0","beaker","0","2090","1","White_Screen.jpg","7","134","Beaker.jpg","7"
"070819","10:34:51","4","4","5.0.14.0","2","121","trial1","naming","0","0","0","0","video cassette","0","4419","1","White_Screen.jpg","6","13","Cassette_Video.jpg","6"
"070819","10:34:51","4","4","5.0.14.0","2","122","trial1","naming","0","0","0","0","crystal","0","3282","1","White_Screen.jpg","6","24","Quartz.jpg","6"
"070819","10:34:51","4","4","5.0.14.0","2","123","trial1","naming","0","0","0","0","pear","0","2227","1","White_Screen.jpg","6","5","Mango.jpg","6"
"070819","10:34:51","4","4","5.0.14.0","2","124","trial1","naming","0","0","0","0","pliers","0","3881","1","White_Screen.jpg","7","199","LeatherPuncherTool.jpg","7"
"070819","10:34:51","4","4","5.0.14.0","2","125","trial1","naming","0","0","0","0","trash can","0","3233","1","White_Screen.jpg","6","65","Garbage_Can.jpg","6"
"070819","10:34:51","4","4","5.0.14.0","2","126","trial1","naming","0","0","0","0","potato head","0","5594","1","White_Screen.jpg","7","59","Toy_MrPotatoHeadjpg.jpg","7"
"070819","10:34:51","4","4","5.0.14.0","2","127","trial1","naming","0","0","0","0","fingerless gloves","0","4889","1","White_Screen.jpg","7","70","Gloves_Bicycle.jpg","7"
"070819","10:34:51","4","4","5.0.14.0","2","128","trial1","naming","0","0","0","0","brush","0","3940","1","White_Screen.jpg","7","95","Brush_Makeup.jpg","7"
"070819","10:34:51","4","4","5.0.14.0","2","129","trial1","naming","0","0","0","0","hat","0","3253","1","White_Screen.jpg","6","198","Hat_Feather.jpg","6"
"070819","10:34:51","4","4","5.0.14.0","2","130","trial1","naming","0","0","0","0","pizza cutter","0","3844","1","White_Screen.jpg","7","17","PizzaCutter.jpg","7"
"070819","10:34:51","4","4","5.0.14.0","2","131","trial1","naming","0","0","0","0","wheel","0","2519","1","White_Screen.jpg","6","200","BicycleWheel.jpg","6"
"070819","10:34:51","4","4","5.0.14.0","2","132","trial1","naming","0","0","0","0","crock pot","0","5575","1","White_Screen.jpg","8","139","RiceCooker.jpg","8"
"070819","10:34:51","4","4","5.0.14.0","2","133","trial1","naming","0","0","0","0","bread","0","3010","1","White_Screen.jpg","7","51","Toast.jpg","7"
"070819","10:34:51","4","4","5.0.14.0","2","134","trial1","naming","0","0","0","0","bike wheel","0","5978","1","White_Screen.jpg","8","2","BicycleWheelRusty.jpg","8"
"070819","10:34:51","4","4","5.0.14.0","2","135","trial1","naming","0","0","0","0","book shelf","0","4116","1","White_Screen.jpg","6","171","BookShelf.jpg","6"
"070819","10:34:51","4","4","5.0.14.0","2","136","trial1","naming","0","0","0","0","waffles","0","2384","1","White_Screen.jpg","6","142","Waffle.jpg","6"
"070819","10:34:51","4","4","5.0.14.0","2","137","trial1","naming","0","0","0","0","door","0","2002","1","White_Screen.jpg","7","123","Door_Green.jpg","7"
"070819","10:34:51","4","4","5.0.14.0","2","138","trial1","naming","0","0","0","0","towel","0","3663","1","White_Screen.jpg","7","34","Towel.jpg","7"
"070819","10:34:51","4","4","5.0.14.0","2","139","trial1","naming","0","0","0","0","hand mixer","0","3878","1","White_Screen.jpg","7","55","HandMixer.jpg","7"
"070819","10:34:51","4","4","5.0.14.0","2","140","trial1","naming","0","0","0","0","spoon","0","2282","1","White_Screen.jpg","6","38","Spoon_WoodenLight.jpg","6"
"070819","10:34:51","4","4","5.0.14.0","2","141","trial1","naming","0","0","0","0","helmet","0","3641","1","White_Screen.jpg","7","145","Helmet_Motorcycle.jpg","7"
"070819","10:34:51","4","4","5.0.14.0","2","142","trial1","naming","0","0","0","0","leaf","0","2025","1","White_Screen.jpg","7","108","Leaf_Yellow.jpg","7"
"070819","10:34:51","4","4","5.0.14.0","2","143","trial1","naming","0","0","0","0","jeans","0","2201","1","White_Screen.jpg","6","42","Pants_Jeans.jpg","6"
"070819","10:34:51","4","4","5.0.14.0","2","144","trial1","naming","0","0","0","0","lamp","0","3290","1","White_Screen.jpg","8","12","Lantern_Chinese.jpg","8"
"070819","10:34:51","4","4","5.0.14.0","2","145","trial1","naming","0","0","0","0","twig","0","6319","1","White_Screen.jpg","7","111","Branch.jpg","7"
"070819","10:34:51","4","4","5.0.14.0","2","146","trial1","naming","0","0","0","0","budda","0","4885","1","White_Screen.jpg","6","159","Statue_Buddha.jpg","6"
"070819","10:34:51","4","4","5.0.14.0","2","147","trial1","naming","0","0","0","0","space heater","0","5007","1","White_Screen.jpg","6","56","Heater_ElectricPortable.jpg","6"
"070819","10:34:51","4","4","5.0.14.0","2","148","trial1","naming","0","0","0","0","chocolate bar","0","3319","1","White_Screen.jpg","7","175","ChocolateBar_HalfUnwrapped.jpg","7"
"070819","10:34:51","4","4","5.0.14.0","2","149","trial1","naming","0","0","0","0","coat rack","0","4500","1","White_Screen.jpg","6","112","Coatrack.jpg","6"
"070819","10:34:51","4","4","5.0.14.0","2","150","trial1","naming","0","0","0","0","pot holder","0","4138","1","White_Screen.jpg","7","81","ClothCoaster.jpg","7"
"070819","10:34:51","4","4","5.0.14.0","2","151","trial1","naming","0","0","0","0","basketball hoop","0","5457","1","White_Screen.jpg","6","152","BasketballHoop.jpg","6"
"070819","10:34:51","4","4","5.0.14.0","2","152","trial1","naming","0","0","0","0","wedding cake","0","6917","1","White_Screen.jpg","6","101","Cake_Wedding.jpg","6"
"070819","10:34:51","4","4","5.0.14.0","2","154","trial1","naming","0","0","0","0","totem pole","0","5870","1","White_Screen.jpg","12","89","TotemPole.jpg","12"
"070819","10:34:51","4","4","5.0.14.0","2","155","trial1","naming","0","0","0","0","grill","0","5749","1","White_Screen.jpg","8","128","Barbecue_Charcoal.jpg","8"
"070819","10:34:51","4","4","5.0.14.0","2","156","trial1","naming","0","0","0","0","helicopter","0","2649","1","White_Screen.jpg","6","185","Helicopter.jpg","6"
"070819","10:34:51","4","4","5.0.14.0","2","157","trial1","naming","0","0","0","0","police car","0","3655","1","White_Screen.jpg","7","97","Toy_PoliceCar.jpg","7"
"070819","10:34:51","4","4","5.0.14.0","2","158","trial1","naming","0","0","0","0","plug","0","4020","1","White_Screen.jpg","7","94","ConnectorPlug.jpg","7"
"070819","10:34:51","4","4","5.0.14.0","2","159","trial1","naming","0","0","0","0","pencil case","0","3824","1","White_Screen.jpg","7","75","PencilCase.jpg","7"
"070819","10:34:51","4","4","5.0.14.0","2","160","trial1","naming","0","0","0","0","motorcycle","0","2869","1","White_Screen.jpg","7","90","Motorcycle.jpg","7"
"070819","10:34:51","4","4","5.0.14.0","2","161","trial1","naming","0","0","0","0","grill","0","1994","1","White_Screen.jpg","7","18","Barbecue_Gas.jpg","7"
"070819","10:34:51","4","4","5.0.14.0","2","162","trial1","naming","0","0","0","0","exercise walker","0","8522","1","White_Screen.jpg","7","76","Stepper.jpg","7"
"070819","10:34:51","4","4","5.0.14.0","2","163","trial1","naming","0","0","0","0","candle holder","0","5940","1","White_Screen.jpg","6","178","Candleholder_LampShaped.jpg","6"
"070819","10:34:51","4","4","5.0.14.0","2","164","trial1","naming","0","0","0","0","oil","0","2881","1","White_Screen.jpg","6","29","Bottle_Oil.jpg","6"
"070819","10:34:51","4","4","5.0.14.0","2","165","trial1","naming","0","0","0","0","jet ski","0","3478","1","White_Screen.jpg","6","58","Jetski.jpg","6"
"070819","10:34:51","4","4","5.0.14.0","2","166","trial1","naming","0","0","0","0","knee pads","0","3732","1","White_Screen.jpg","6","33","ShinPads.jpg","6"
"070819","10:34:51","4","4","5.0.14.0","2","167","trial1","naming","0","0","0","0","puzzle piece","0","4072","1","White_Screen.jpg","7","69","Puzzle_Piece.jpg","7"
"070819","10:34:51","4","4","5.0.14.0","2","168","trial1","naming","0","0","0","0","golf ball","0","3857","1","White_Screen.jpg","7","104","Ball_Golf.jpg","7"
"070819","10:34:51","4","4","5.0.14.0","2","169","trial1","naming","0","0","0","0","lighthouse","0","4110","1","White_Screen.jpg","7","118","Toy_Lighthouse.jpg","7"
"070819","10:34:51","4","4","5.0.14.0","2","170","trial1","naming","0","0","0","0","couch","0","2477","1","White_Screen.jpg","7","168","Loveseat.jpg","7"
"070819","10:34:51","4","4","5.0.14.0","2","171","trial1","naming","0","0","0","0","money","0","5944","1","White_Screen.jpg","7","122","MoneyBill50.jpg","7"
"070819","10:34:51","4","4","5.0.14.0","2","172","trial1","naming","0","0","0","0","crate","0","2561","1","White_Screen.jpg","7","73","Crate_Milk.jpg","7"
"070819","10:34:51","4","4","5.0.14.0","2","173","trial1","naming","0","0","0","0","hammer","0","2354","1","White_Screen.jpg","6","1","Hammer.jpg","6"
"070819","10:34:51","4","4","5.0.14.0","2","174","trial1","naming","0","0","0","0","scratcher","0","8331","1","White_Screen.jpg","6","93","Instrument_African.jpg","6"
"070819","10:34:51","4","4","5.0.14.0","2","175","trial1","naming","0","0","0","0","wine","0","2360","1","White_Screen.jpg","7","91","Crate_Wine.jpg","7"
"070819","10:34:51","4","4","5.0.14.0","2","176","trial1","naming","0","0","0","0","roller","0","6969","1","White_Screen.jpg","7","167","Autocreeper.jpg","7"
"070819","10:34:51","4","4","5.0.14.0","2","177","trial1","naming","0","0","0","0","wire","0","2108","1","White_Screen.jpg","7","116","SolderingWire.jpg","7"
"070819","10:34:51","4","4","5.0.14.0","2","178","trial1","naming","0","0","0","0","monkey","0","2306","1","White_Screen.jpg","7","53","Chimpanzee.jpg","7"
"070819","10:34:51","4","4","5.0.14.0","2","179","trial1","naming","0","0","0","0","apples","0","2223","1","White_Screen.jpg","6","78","Box_Apples.jpg","6"
