"date","time","group","subject","build","blocknum","trialnum","blockcode","trialcode","pretrialpause","posttrialpause","trialduration","trialtimeout","response","correct","latency","stimulusnumber1","stimulusitem1","stimulusonset1","stimulusnumber2","stimulusitem2","stimulusonset2"
"082219","16:01:43","2","2","5.0.14.0","2","1","trial1","naming","0","0","0","0"," sandwich","0","2892","1","White_Screen.jpg","35","59","Sandwich_Ham.jpg","35"
"082219","16:01:43","2","2","5.0.14.0","2","2","trial1","naming","0","0","0","0","Ctrl+'Q'","1","2151","1","White_Screen.jpg","17","89","CarJack.jpg","17"
"082219","13:47:54","10","10","5.0.14.0","2","1","trial1","naming","0","0","0","0","christmas","0","10000","1","White_Screen.jpg","15","5","GiftBow.jpg","15"
"082219","13:47:54","10","10","5.0.14.0","2","2","trial1","naming","0","0","0","0","Workout machine","0","9962","1","White_Screen.jpg","3","81","Exercise_Machine.jpg","3"
"082219","13:47:54","10","10","5.0.14.0","2","3","trial1","naming","0","0","0","0","Spoon","0","6645","1","White_Screen.jpg","3","77","Stick_Stirring.jpg","3"
"082219","13:47:54","10","10","5.0.14.0","2","4","trial1","naming","0","0","0","0","House","0","10000","1","White_Screen.jpg","3","7","House_CeramicGingerbread.jpg","3"
"082219","13:47:54","10","10","5.0.14.0","2","5","trial1","naming","0","0","0","0","Enter Name","0","305","1","White_Screen.jpg","3","74","Mirror_Handheld.jpg","3"
"082219","13:47:54","10","10","5.0.14.0","2","6","trial1","naming","0","0","0","0","Flute","0","5903","1","White_Screen.jpg","3","67","Clave.jpg","3"
"082219","13:47:54","10","10","5.0.14.0","2","7","trial1","naming","0","0","0","0","Metal strings","0","9474","1","White_Screen.jpg","3","35","Exercise_Stretch.jpg","3"
"082219","13:47:54","10","10","5.0.14.0","2","8","trial1","naming","0","0","0","0","Receipt machine","0","9807","1","White_Screen.jpg","3","105","Pricegun.jpg","3"
"082219","13:47:54","10","10","5.0.14.0","2","9","trial1","naming","0","0","0","0","Parrot","0","4546","1","White_Screen.jpg","3","92","Bird_Budgie.jpg","3"
"082219","13:47:54","10","10","5.0.14.0","2","10","trial1","naming","0","0","0","0","Mona Lisa","0","4164","1","White_Screen.jpg","2","60","MonaLisa.jpg","2"
"082219","13:47:54","10","10","5.0.14.0","2","11","trial1","naming","0","0","0","0","jar","0","5293","1","White_Screen.jpg","3","136","Jar_Empty.jpg","3"
"082219","13:47:54","10","10","5.0.14.0","2","12","trial1","naming","0","0","0","0","rocks","0","6514","1","White_Screen.jpg","2","118","Inukshuk.jpg","2"
"082219","13:47:54","10","10","5.0.14.0","2","13","trial1","naming","0","0","0","0","crayon","0","7294","1","White_Screen.jpg","3","80","Crayon_Green.jpg","3"
"082219","13:47:54","10","10","5.0.14.0","2","14","trial1","naming","0","0","0","0","cheese grater","0","7403","1","White_Screen.jpg","3","8","Cheesegrater_Box.jpg","3"
"082219","13:47:54","10","10","5.0.14.0","2","15","trial1","naming","0","0","0","0","printer machine","0","9215","1","White_Screen.jpg","3","18","Photocopier.jpg","3"
"082219","13:47:54","10","10","5.0.14.0","2","16","trial1","naming","0","0","0","0","boots","0","8615","1","White_Screen.jpg","3","55","Boot_Rain.jpg","3"
"082219","13:47:54","10","10","5.0.14.0","2","17","trial1","naming","0","0","0","0","plants","0","5687","1","White_Screen.jpg","3","9","Bamboo.jpg","3"
"082219","13:47:54","10","10","5.0.14.0","2","18","trial1","naming","0","0","0","0","metal han","0","10000","1","White_Screen.jpg","3","99","PulleyWooden.jpg","3"
"082219","13:47:54","10","10","5.0.14.0","2","19","trial1","naming","0","0","0","0","sponge","0","8139","1","White_Screen.jpg","3","16","Toy_DogBall.jpg","3"
"082219","13:47:54","10","10","5.0.14.0","2","20","trial1","naming","0","0","0","0","blender","0","9638","1","White_Screen.jpg","3","21","ProcessorFood_Modern.jpg","3"
"082219","13:47:54","10","10","5.0.14.0","2","21","trial1","naming","0","0","0","0","","0","10000","1","White_Screen.jpg","3","96","AngleGrinder.jpg","3"
"082219","13:47:54","10","10","5.0.14.0","2","22","trial1","naming","0","0","0","0","name clip","0","7105","1","White_Screen.jpg","3","117","Nametag.jpg","3"
"082219","13:47:54","10","10","5.0.14.0","2","23","trial1","naming","0","0","0","0","toy dining set","0","9733","1","White_Screen.jpg","3","56","Toy_TableSet.jpg","3"
"082219","13:47:54","10","10","5.0.14.0","2","24","trial1","naming","0","0","0","0","lettuce","0","7358","1","White_Screen.jpg","3","145","Lettuce_GreenLeaf.jpg","3"
"082219","13:47:54","10","10","5.0.14.0","2","25","trial1","naming","0","0","0","0","selfie stick","0","6413","1","White_Screen.jpg","3","64","SelfieStick.jpg","3"
"082219","13:47:54","10","10","5.0.14.0","2","26","trial1","naming","0","0","0","0","toothpaste","0","6892","1","White_Screen.jpg","3","91","Tube_Paint.jpg","3"
"082219","13:47:54","10","10","5.0.14.0","2","27","trial1","naming","0","0","0","0","cup hold","0","10000","1","White_Screen.jpg","2","26","Mat_Car.jpg","2"
"082219","13:47:54","10","10","5.0.14.0","2","28","trial1","naming","0","0","0","0","light bulb","0","4573","1","White_Screen.jpg","3","125","LightBulb_Blue.jpg","3"
"082219","13:47:54","10","10","5.0.14.0","2","29","trial1","naming","0","0","0","0","flosser","0","6675","1","White_Screen.jpg","3","43","DentalProbe.jpg","3"
"082219","13:47:54","10","10","5.0.14.0","2","30","trial1","naming","0","0","0","0","amp","0","4792","1","White_Screen.jpg","3","138","Amp.jpg","3"
"082219","13:47:54","10","10","5.0.14.0","2","31","trial1","naming","0","0","0","0","record player","0","5984","1","White_Screen.jpg","3","30","RecordPlayer.jpg","3"
"082219","13:47:54","10","10","5.0.14.0","2","32","trial1","naming","0","0","0","0","lock","0","4894","1","White_Screen.jpg","3","31","Lock_Combination.jpg","3"
"082219","13:47:54","10","10","5.0.14.0","2","33","trial1","naming","0","0","0","0","paper towel","0","7019","1","White_Screen.jpg","2","128","PaperTowel_Brown.jpg","2"
"082219","13:47:54","10","10","5.0.14.0","2","34","trial1","naming","0","0","0","0","towel","0","6537","1","White_Screen.jpg","3","1","Blanket.jpg","3"
"082219","13:47:54","10","10","5.0.14.0","2","35","trial1","naming","0","0","0","0","cell phone","0","6076","1","White_Screen.jpg","3","65","Phone_Flip.jpg","3"
"082219","13:47:54","10","10","5.0.14.0","2","36","trial1","naming","0","0","0","0","stick","0","8682","1","White_Screen.jpg","2","41","Spear.jpg","2"
"082219","13:47:54","10","10","5.0.14.0","2","37","trial1","naming","0","0","0","0","queen bed","0","7269","1","White_Screen.jpg","3","63","Bed_QueenSize.jpg","3"
"082219","13:47:54","10","10","5.0.14.0","2","38","trial1","naming","0","0","0","0","squid","0","4004","1","White_Screen.jpg","3","112","Squid_Orange.jpg","3"
"082219","13:47:54","10","10","5.0.14.0","2","39","trial1","naming","0","0","0","0","toy robot","0","5469","1","White_Screen.jpg","3","133","Toy_RobotTransformer.jpg","3"
"082219","13:47:54","10","10","5.0.14.0","2","40","trial1","naming","0","0","0","0","beam","0","6784","1","White_Screen.jpg","2","110","Pillar.jpg","2"
"082219","13:47:54","10","10","5.0.14.0","2","41","trial1","naming","0","0","0","0","sasquatch ","0","6500","1","White_Screen.jpg","2","47","Squash_Butternut.jpg","2"
"082219","13:47:54","10","10","5.0.14.0","2","42","trial1","naming","0","0","0","0","blinds","0","5633","1","White_Screen.jpg","2","75","WindowBlinds.jpg","2"
"082219","13:47:54","10","10","5.0.14.0","2","43","trial1","naming","0","0","0","0","8 ball","0","4170","1","White_Screen.jpg","3","87","Ball_8.jpg","3"
"082219","13:47:54","10","10","5.0.14.0","2","44","trial1","naming","0","0","0","0","hand bag","0","6728","1","White_Screen.jpg","3","40","Handbag.jpg","3"
"082219","13:47:54","10","10","5.0.14.0","2","45","trial1","naming","0","0","0","0","brocolli","0","5769","1","White_Screen.jpg","3","150","Broccoli.jpg","3"
"082219","13:47:54","10","10","5.0.14.0","2","46","trial1","naming","0","0","0","0","crusher","0","8148","1","White_Screen.jpg","3","29","MortarPestle_WhiteMarble.jpg","3"
"082219","13:47:54","10","10","5.0.14.0","2","47","trial1","naming","0","0","0","0","pliers","0","4766","1","White_Screen.jpg","4","37","Pliers_SlipJoint.jpg","4"
"082219","13:47:54","10","10","5.0.14.0","2","48","trial1","naming","0","0","0","0","christmas bells","0","6881","1","White_Screen.jpg","3","122","Bells_Christmas.jpg","3"
"082219","13:47:54","10","10","5.0.14.0","2","49","trial1","naming","0","0","0","0","axe","0","5639","1","White_Screen.jpg","3","20","Pickaxe.jpg","3"
"082219","13:47:54","10","10","5.0.14.0","2","50","trial1","naming","0","0","0","0","bus stop","0","4638","1","White_Screen.jpg","2","53","BusStop.jpg","2"
"082219","13:47:54","10","10","5.0.14.0","2","52","trial1","naming","0","0","0","0","beets","0","4739","1","White_Screen.jpg","3","123","Radish.jpg","3"
"082219","13:47:54","10","10","5.0.14.0","2","53","trial1","naming","0","0","0","0","horse statue","0","6223","1","White_Screen.jpg","3","46","Statue_Horse.jpg","3"
"082219","13:47:54","10","10","5.0.14.0","2","54","trial1","naming","0","0","0","0","raviolli","0","7619","1","White_Screen.jpg","3","23","Pasta_Penne.jpg","3"
"082219","13:47:54","10","10","5.0.14.0","2","55","trial1","naming","0","0","0","0","binoculars","0","4521","1","White_Screen.jpg","3","120","Binoculars.jpg","3"
"082219","13:47:54","10","10","5.0.14.0","2","56","trial1","naming","0","0","0","0","coin","0","5169","1","White_Screen.jpg","3","25","CameoPortrait.jpg","3"
"082219","13:47:54","10","10","5.0.14.0","2","57","trial1","naming","0","0","0","0","safety box","0","7988","1","White_Screen.jpg","3","109","Box_Jewellery.jpg","3"
"082219","13:47:54","10","10","5.0.14.0","2","58","trial1","naming","0","0","0","0","necklace","0","4646","1","White_Screen.jpg","3","94","Necklace_Black.jpg","3"
"082219","13:47:54","10","10","5.0.14.0","2","59","trial1","naming","0","0","0","0","tiled floor","0","8825","1","White_Screen.jpg","4","144","FloorTile.jpg","4"
"082219","13:47:54","10","10","5.0.14.0","2","60","trial1","naming","0","0","0","0","cinnabon","0","4553","1","White_Screen.jpg","3","76","Cinnamonroll.jpg","3"
"082219","13:47:54","10","10","5.0.14.0","2","61","trial1","naming","0","0","0","0","scythe","0","4079","1","White_Screen.jpg","3","141","Scythe.jpg","3"
"082219","13:47:54","10","10","5.0.14.0","2","62","trial1","naming","0","0","0","0","cpu cooler","0","6078","1","White_Screen.jpg","3","114","CoolingFan_Engine.jpg","3"
"082219","13:47:54","10","10","5.0.14.0","2","63","trial1","naming","0","0","0","0","nail clipper","0","9294","1","White_Screen.jpg","3","3","NailClipper.jpg","3"
"082219","13:47:54","10","10","5.0.14.0","2","64","trial1","naming","0","0","0","0","fencing sticks","0","7333","1","White_Screen.jpg","2","129","SkiPoles.jpg","2"
"082219","13:47:54","10","10","5.0.14.0","2","65","trial1","naming","0","0","0","0","protractor","0","9327","1","White_Screen.jpg","3","17","DrawingCompass.jpg","3"
"082219","13:47:54","10","10","5.0.14.0","2","66","trial1","naming","0","0","0","0","comb","0","6137","1","White_Screen.jpg","3","36","Comb.jpg","3"
"082219","13:47:54","10","10","5.0.14.0","2","67","trial1","naming","0","0","0","0","minerals","0","3645","1","White_Screen.jpg","2","12","Sand.jpg","2"
"082219","13:47:54","10","10","5.0.14.0","2","68","trial1","naming","0","0","0","0","paint brush","0","7204","1","White_Screen.jpg","3","116","IceScraper.jpg","3"
"082219","13:47:54","10","10","5.0.14.0","2","69","trial1","naming","0","0","0","0","tractor","0","5942","1","White_Screen.jpg","3","147","Tractor_Orange.jpg","3"
"082219","13:47:54","10","10","5.0.14.0","2","70","trial1","naming","0","0","0","0","crusher","0","7250","1","White_Screen.jpg","2","100","CoffeeGrinder.jpg","2"
"082219","13:47:54","10","10","5.0.14.0","2","71","trial1","naming","0","0","0","0","walnut","0","3264","1","White_Screen.jpg","3","130","Nuts_Walnut.jpg","3"
"082219","13:47:54","10","10","5.0.14.0","2","72","trial1","naming","0","0","0","0","automobile ","0","6403","1","White_Screen.jpg","3","119","Car_Vintage.jpg","3"
"082219","13:47:54","10","10","5.0.14.0","2","73","trial1","naming","0","0","0","0","calculator ","0","4255","1","White_Screen.jpg","3","135","Calculator.jpg","3"
"082219","13:47:54","10","10","5.0.14.0","2","74","trial1","naming","0","0","0","0","night stand","0","5229","1","White_Screen.jpg","3","44","Table_AntiqueWooden.jpg","3"
"082219","13:47:54","10","10","5.0.14.0","2","75","trial1","naming","0","0","0","0","portable potty","0","6978","1","White_Screen.jpg","3","6","PortaPotty.jpg","3"
"082219","13:47:54","10","10","5.0.14.0","2","76","trial1","naming","0","0","0","0","bath tub","0","2993","1","White_Screen.jpg","3","97","Bathtub.jpg","3"
"082219","13:47:54","10","10","5.0.14.0","2","77","trial1","naming","0","0","0","0","crown","0","2298","1","White_Screen.jpg","3","22","Crown.jpg","3"
"082219","13:47:54","10","10","5.0.14.0","2","78","trial1","naming","0","0","0","0","backspace key","0","6017","1","White_Screen.jpg","3","70","ComputerKeyboard_Backspace.jpg","3"
"082219","13:47:54","10","10","5.0.14.0","2","79","trial1","naming","0","0","0","0","water filter","0","9128","1","White_Screen.jpg","3","11","JuicerCitrus.jpg","3"
"082219","13:47:54","10","10","5.0.14.0","2","80","trial1","naming","0","0","0","0","rose","0","3232","1","White_Screen.jpg","3","49","Flower_Tulip.jpg","3"
"082219","13:47:54","10","10","5.0.14.0","2","81","trial1","naming","0","0","0","0","utensils ","0","6405","1","White_Screen.jpg","3","38","Box_Cutlery.jpg","3"
"082219","13:47:54","10","10","5.0.14.0","2","82","trial1","naming","0","0","0","0","eagle","0","2754","1","White_Screen.jpg","3","79","Bird_Eagle.jpg","3"
"082219","13:47:54","10","10","5.0.14.0","2","83","trial1","naming","0","0","0","0","manta ray","0","5183","1","White_Screen.jpg","3","68","Stingray.jpg","3"
"082219","13:47:54","10","10","5.0.14.0","2","84","trial1","naming","0","0","0","0","blender","0","4949","1","White_Screen.jpg","3","126","Beater_Electric.jpg","3"
"082219","13:47:54","10","10","5.0.14.0","2","85","trial1","naming","0","0","0","0","stick","0","9402","1","White_Screen.jpg","3","57","JoustingSpear.jpg","3"
"082219","13:47:54","10","10","5.0.14.0","2","86","trial1","naming","0","0","0","0","cpu processor ","0","7730","1","White_Screen.jpg","3","66","Computer_CPU.jpg","3"
"082219","13:47:54","10","10","5.0.14.0","2","87","trial1","naming","0","0","0","0","hair clip","0","5481","1","White_Screen.jpg","3","102","HairCurler.jpg","3"
"082219","13:47:54","10","10","5.0.14.0","2","88","trial1","naming","0","0","0","0","disco ball","0","3469","1","White_Screen.jpg","3","13","Ball_Disco.jpg","3"
"082219","13:47:54","10","10","5.0.14.0","2","89","trial1","naming","0","0","0","0","ornament","0","3961","1","White_Screen.jpg","3","90","Decoration_ChristmasRed.jpg","3"
"082219","13:47:54","10","10","5.0.14.0","2","90","trial1","naming","0","0","0","0","tail lights","0","6663","1","White_Screen.jpg","2","113","TailLight.jpg","2"
"082219","13:47:54","10","10","5.0.14.0","2","91","trial1","naming","0","0","0","0","conventional oven","0","8488","1","White_Screen.jpg","3","58","Microwave.jpg","3"
"082219","13:47:54","10","10","5.0.14.0","2","92","trial1","naming","0","0","0","0","sugar","0","3067","1","White_Screen.jpg","3","127","Bowl_Flour.jpg","3"
"082219","13:47:54","10","10","5.0.14.0","2","93","trial1","naming","0","0","0","0","bucket","0","2837","1","White_Screen.jpg","3","134","Bucket_WoodenDark.jpg","3"
"082219","13:47:54","10","10","5.0.14.0","2","94","trial1","naming","0","0","0","0","keychain","0","4568","1","White_Screen.jpg","3","14","Carabiner_Orange.jpg","3"
"082219","13:47:54","10","10","5.0.14.0","2","95","trial1","naming","0","0","0","0","camel","0","2788","1","White_Screen.jpg","3","115","Camel_Dromedary.jpg","3"
"082219","13:47:54","10","10","5.0.14.0","2","96","trial1","naming","0","0","0","0","small box","0","5075","1","White_Screen.jpg","3","85","Box_WoodenOpen.jpg","3"
"082219","13:47:54","10","10","5.0.14.0","2","97","trial1","naming","0","0","0","0","plant holder","0","7187","1","White_Screen.jpg","3","78","Flower_Basket.jpg","3"
"082219","13:47:54","10","10","5.0.14.0","2","98","trial1","naming","0","0","0","0","wine glass","0","4473","1","White_Screen.jpg","3","86","Glass_Wine.jpg","3"
"082219","13:47:54","10","10","5.0.14.0","2","99","trial1","naming","0","0","0","0","flamingo","0","3764","1","White_Screen.jpg","2","93","Flamingo_Real.jpg","2"
"082219","13:47:54","10","10","5.0.14.0","2","100","trial1","naming","0","0","0","0","pen","0","2129","1","White_Screen.jpg","3","15","Pen_Ballpoint.jpg","3"
"082219","13:47:54","10","10","5.0.14.0","2","101","trial1","naming","0","0","0","0","balerina ","0","4509","1","White_Screen.jpg","3","148","Figurine_Ballerina.jpg","3"
"082219","13:47:54","10","10","5.0.14.0","2","103","trial1","naming","0","0","0","0","stapler","0","8308","1","White_Screen.jpg","3","89","CarJack.jpg","3"
"082219","13:47:54","10","10","5.0.14.0","2","104","trial1","naming","0","0","0","0","sandwich","0","4952","1","White_Screen.jpg","2","59","Sandwich_Ham.jpg","2"
"082219","13:47:54","10","10","5.0.14.0","2","105","trial1","naming","0","0","0","0","toxic","0","3904","1","White_Screen.jpg","4","104","RadioactiveContainer.jpg","4"
"082219","13:47:54","10","10","5.0.14.0","2","106","trial1","naming","0","0","0","0","belt","0","4167","1","White_Screen.jpg","3","33","CookieCutter_Bell.jpg","3"
"082219","13:47:54","10","10","5.0.14.0","2","107","trial1","naming","0","0","0","0","wood cutter","0","6270","1","White_Screen.jpg","3","142","SlideViewer.jpg","3"
"082219","13:47:54","10","10","5.0.14.0","2","108","trial1","naming","0","0","0","0","squid","0","2176","1","White_Screen.jpg","3","83","Squid_Pink.jpg","3"
"082219","13:47:54","10","10","5.0.14.0","2","109","trial1","naming","0","0","0","0","cat","0","2188","1","White_Screen.jpg","3","45","Lynx.jpg","3"
"082219","13:47:54","10","10","5.0.14.0","2","110","trial1","naming","0","0","0","0","food storage","0","7028","1","White_Screen.jpg","3","124","Container_Tupperware.jpg","3"
"082219","13:47:54","10","10","5.0.14.0","2","111","trial1","naming","0","0","0","0","coffee ","0","6950","1","White_Screen.jpg","3","139","CoffeePot.jpg","3"
"082219","13:47:54","10","10","5.0.14.0","2","112","trial1","naming","0","0","0","0","dart","0","2421","1","White_Screen.jpg","3","2","Dart.jpg","3"
"082219","13:47:54","10","10","5.0.14.0","2","113","trial1","naming","0","0","0","0","murse","0","8047","1","White_Screen.jpg","3","107","Briefcase_Leather.jpg","3"
"082219","13:47:54","10","10","5.0.14.0","2","114","trial1","naming","0","0","0","0","pasta","0","8199","1","White_Screen.jpg","3","137","Bowl_Pasta.jpg","3"
"082219","13:47:54","10","10","5.0.14.0","2","115","trial1","naming","0","0","0","0","duck","0","2290","1","White_Screen.jpg","3","19","Bird_Duck.jpg","3"
"082219","13:47:54","10","10","5.0.14.0","2","116","trial1","naming","0","0","0","0","chalkboard","0","2927","1","White_Screen.jpg","3","34","Blackboard.jpg","3"
"082219","13:47:54","10","10","5.0.14.0","2","117","trial1","naming","0","0","0","0","shot glasses","0","3553","1","White_Screen.jpg","3","95","ShotGlassTray.jpg","3"
"082219","13:47:54","10","10","5.0.14.0","2","118","trial1","naming","0","0","0","0","piana","0","1873","1","White_Screen.jpg","3","111","Piano_Upright.jpg","3"
"082219","13:47:54","10","10","5.0.14.0","2","119","trial1","naming","0","0","0","0","nuts","0","6486","1","White_Screen.jpg","3","50","Jar_Capers.jpg","3"
"082219","13:47:54","10","10","5.0.14.0","2","120","trial1","naming","0","0","0","0","car lights","0","5716","1","White_Screen.jpg","2","10","BicyclePedal.jpg","2"
"082219","13:47:54","10","10","5.0.14.0","2","121","trial1","naming","0","0","0","0","scooper","0","6006","1","White_Screen.jpg","3","32","CementFinisher.jpg","3"
"082219","13:47:54","10","10","5.0.14.0","2","122","trial1","naming","0","0","0","0","string","0","4781","1","White_Screen.jpg","3","108","OvenElement.jpg","3"
"082219","13:47:54","10","10","5.0.14.0","2","123","trial1","naming","0","0","0","0","car keys","0","4731","1","White_Screen.jpg","3","69","Key_Car.jpg","3"
"082219","13:47:54","10","10","5.0.14.0","2","124","trial1","naming","0","0","0","0","baseball","0","2534","1","White_Screen.jpg","3","146","Ball_Baseball.jpg","3"
"082219","13:47:54","10","10","5.0.14.0","2","125","trial1","naming","0","0","0","0","stroller","0","4697","1","White_Screen.jpg","3","24","Walker_Blue.jpg","3"
"082219","13:47:54","10","10","5.0.14.0","2","126","trial1","naming","0","0","0","0","clip","0","4950","1","White_Screen.jpg","3","84","Hook_Double.jpg","3"
"082219","13:47:54","10","10","5.0.14.0","2","127","trial1","naming","0","0","0","0","stocking","0","2699","1","White_Screen.jpg","3","28","StockingChristmas.jpg","3"
"082219","13:47:54","10","10","5.0.14.0","2","128","trial1","naming","0","0","0","0","candy","0","2471","1","White_Screen.jpg","3","39","Candy_Chocolate.jpg","3"
"082219","13:47:54","10","10","5.0.14.0","2","129","trial1","naming","0","0","0","0","cards","0","4249","1","White_Screen.jpg","3","54","Card_Deck.jpg","3"
"082219","13:47:54","10","10","5.0.14.0","2","130","trial1","naming","0","0","0","0","arrow sign","0","3054","1","White_Screen.jpg","2","98","Sign_OneWay.jpg","2"
"082219","13:47:54","10","10","5.0.14.0","2","131","trial1","naming","0","0","0","0","eye chart","0","4808","1","White_Screen.jpg","3","42","EyeChart.jpg","3"
"082219","13:47:54","10","10","5.0.14.0","2","132","trial1","naming","0","0","0","0","spray","0","9061","1","White_Screen.jpg","2","73","Bottle_CosmeticSpray.jpg","2"
"082219","13:47:54","10","10","5.0.14.0","2","133","trial1","naming","0","0","0","0","table","0","9086","1","White_Screen.jpg","3","88","ClothesDryingRack.jpg","3"
"082219","13:47:54","10","10","5.0.14.0","2","134","trial1","naming","0","0","0","0","shovel","0","2272","1","White_Screen.jpg","3","4","Shovel_Sandbox.jpg","3"
"082219","13:47:54","10","10","5.0.14.0","2","135","trial1","naming","0","0","0","0","glasses","0","2011","1","White_Screen.jpg","3","131","Glasses_Reading.jpg","3"
"082219","13:47:54","10","10","5.0.14.0","2","136","trial1","naming","0","0","0","0","oscars","0","4910","1","White_Screen.jpg","3","71","Trophy.jpg","3"
"082219","13:47:54","10","10","5.0.14.0","2","137","trial1","naming","0","0","0","0","stereo","0","9536","1","White_Screen.jpg","3","82","Speaker_Single.jpg","3"
"082219","13:47:54","10","10","5.0.14.0","2","138","trial1","naming","0","0","0","0","paddles","0","2182","1","White_Screen.jpg","3","61","Oars.jpg","3"
"082219","13:47:54","10","10","5.0.14.0","2","139","trial1","naming","0","0","0","0","chopsticks","0","3175","1","White_Screen.jpg","3","149","Chopsticks.jpg","3"
"082219","13:47:54","10","10","5.0.14.0","2","140","trial1","naming","0","0","0","0","lockers","0","2445","1","White_Screen.jpg","3","140","Mailbox_Community.jpg","3"
"082219","13:47:54","10","10","5.0.14.0","2","141","trial1","naming","0","0","0","0","cactus plant","0","3094","1","White_Screen.jpg","3","48","Cactus.jpg","3"
"082219","13:47:54","10","10","5.0.14.0","2","142","trial1","naming","0","0","0","0","hair cut seat","0","8934","1","White_Screen.jpg","3","51","Chair_Barber.jpg","3"
"082219","13:47:54","10","10","5.0.14.0","2","143","trial1","naming","0","0","0","0","racing flags","0","6771","1","White_Screen.jpg","3","101","Flags_CheckeredRacing.jpg","3"
"082219","13:47:54","10","10","5.0.14.0","2","144","trial1","naming","0","0","0","0","bunny","0","1754","1","White_Screen.jpg","2","72","Toy_RabbitPlushie.jpg","2"
"082219","13:47:54","10","10","5.0.14.0","2","145","trial1","naming","0","0","0","0","acorn","0","2127","1","White_Screen.jpg","2","132","Acorn.jpg","2"
"082219","13:47:54","10","10","5.0.14.0","2","146","trial1","naming","0","0","0","0","container","0","5379","1","White_Screen.jpg","3","143","Can_MilkAntique.jpg","3"
"082219","13:47:54","10","10","5.0.14.0","2","147","trial1","naming","0","0","0","0","microscope ","0","5516","1","White_Screen.jpg","3","106","Microscope.jpg","3"
"082219","13:47:54","10","10","5.0.14.0","2","148","trial1","naming","0","0","0","0","lollipop","0","3716","1","White_Screen.jpg","3","62","Lollipop_Grape.jpg","3"
"082219","13:47:54","10","10","5.0.14.0","2","149","trial1","naming","0","0","0","0","storage unit","0","5887","1","White_Screen.jpg","3","27","Shed.jpg","3"
"082219","13:47:54","10","10","5.0.14.0","2","150","trial1","naming","0","0","0","0","construction worker","0","4995","1","White_Screen.jpg","3","121","Toy_FigurineEngineer.jpg","3"
"082219","13:47:54","10","10","5.0.14.0","2","151","trial1","naming","0","0","0","0","bag","0","3923","1","White_Screen.jpg","3","103","Purse.jpg","3"
"082219","13:47:54","10","10","5.0.14.0","2","152","trial1","naming","0","0","0","0","cookie maker","0","4850","1","White_Screen.jpg","3","52","Tray_Muffin.jpg","3"
"082219","13:47:54","10","10","5.0.14.0","2","154","trial1","naming","0","0","0","0","box","0","3030","1","White_Screen.jpg","3","85","Box_WoodenOpen.jpg","3"
"082219","13:47:54","10","10","5.0.14.0","2","155","trial1","naming","0","0","0","0","crown","0","5294","1","White_Screen.jpg","3","22","Crown.jpg","3"
"082219","13:47:54","10","10","5.0.14.0","2","156","trial1","naming","0","0","0","0","pins","0","3172","1","White_Screen.jpg","3","84","Hook_Double.jpg","3"
"082219","13:47:54","10","10","5.0.14.0","2","157","trial1","naming","0","0","0","0","horse statue","0","4468","1","White_Screen.jpg","3","46","Statue_Horse.jpg","3"
"082219","13:47:54","10","10","5.0.14.0","2","158","trial1","naming","0","0","0","0","toy robot","0","2173","1","White_Screen.jpg","3","133","Toy_RobotTransformer.jpg","3"
"082219","13:47:54","10","10","5.0.14.0","2","159","trial1","naming","0","0","0","0","jar","0","2683","1","White_Screen.jpg","3","136","Jar_Empty.jpg","3"
"082219","13:47:54","10","10","5.0.14.0","2","160","trial1","naming","0","0","0","0","murse","0","2204","1","White_Screen.jpg","3","107","Briefcase_Leather.jpg","3"
"082219","13:47:54","10","10","5.0.14.0","2","161","trial1","naming","0","0","0","0","tractor","0","2394","1","White_Screen.jpg","3","147","Tractor_Orange.jpg","3"
"082219","13:47:54","10","10","5.0.14.0","2","162","trial1","naming","0","0","0","0","shovel","0","2377","1","White_Screen.jpg","3","4","Shovel_Sandbox.jpg","3"
"082219","13:47:54","10","10","5.0.14.0","2","163","trial1","naming","0","0","0","0","queen bed","0","3986","1","White_Screen.jpg","2","63","Bed_QueenSize.jpg","2"
"082219","13:47:54","10","10","5.0.14.0","2","164","trial1","naming","0","0","0","0","squid","0","1609","1","White_Screen.jpg","3","83","Squid_Pink.jpg","3"
"082219","13:47:54","10","10","5.0.14.0","2","165","trial1","naming","0","0","0","0","binoculars","0","2724","1","White_Screen.jpg","2","120","Binoculars.jpg","2"
"082219","13:47:54","10","10","5.0.14.0","2","166","trial1","naming","0","0","0","0","microscope","0","2730","1","White_Screen.jpg","3","106","Microscope.jpg","3"
"082219","13:47:54","10","10","5.0.14.0","2","167","trial1","naming","0","0","0","0","cat","0","1525","1","White_Screen.jpg","3","45","Lynx.jpg","3"
"082219","13:47:54","10","10","5.0.14.0","2","168","trial1","naming","0","0","0","0","shovel","0","5365","1","White_Screen.jpg","2","32","CementFinisher.jpg","2"
"082219","13:47:54","10","10","5.0.14.0","2","169","trial1","naming","0","0","0","0","dart","0","3106","1","White_Screen.jpg","3","2","Dart.jpg","3"
"082219","13:47:54","10","10","5.0.14.0","2","170","trial1","naming","0","0","0","0","8 ball","0","2024","1","White_Screen.jpg","3","87","Ball_8.jpg","3"
"082219","13:47:54","10","10","5.0.14.0","2","171","trial1","naming","0","0","0","0","blender","0","2574","1","White_Screen.jpg","3","126","Beater_Electric.jpg","3"
"082219","13:47:54","10","10","5.0.14.0","2","172","trial1","naming","0","0","0","0","portable potty","0","5605","1","White_Screen.jpg","3","6","PortaPotty.jpg","3"
"082219","13:47:54","10","10","5.0.14.0","2","173","trial1","naming","0","0","0","0","candy","0","1720","1","White_Screen.jpg","3","39","Candy_Chocolate.jpg","3"
"082219","13:47:54","10","10","5.0.14.0","2","174","trial1","naming","0","0","0","0","fencing sticks","0","4821","1","White_Screen.jpg","3","129","SkiPoles.jpg","3"
"082219","13:47:54","10","10","5.0.14.0","2","175","trial1","naming","0","0","0","0","stapler","0","5740","1","White_Screen.jpg","3","89","CarJack.jpg","3"
"082219","13:47:54","10","10","5.0.14.0","2","176","trial1","naming","0","0","0","0","beet","0","3557","1","White_Screen.jpg","3","123","Radish.jpg","3"
"082219","13:47:54","10","10","5.0.14.0","2","177","trial1","naming","0","0","0","0","food container","0","3869","1","White_Screen.jpg","3","124","Container_Tupperware.jpg","3"
"082219","13:47:54","10","10","5.0.14.0","2","178","trial1","naming","0","0","0","0","broccolli","0","5491","1","White_Screen.jpg","3","150","Broccoli.jpg","3"
"082219","13:47:54","10","10","5.0.14.0","2","179","trial1","naming","0","0","0","0","glasses","0","2984","1","White_Screen.jpg","3","131","Glasses_Reading.jpg","3"
"082219","13:47:54","10","10","5.0.14.0","2","180","trial1","naming","0","0","0","0","belt","0","3543","1","White_Screen.jpg","3","33","CookieCutter_Bell.jpg","3"
"082219","13:47:54","10","10","5.0.14.0","2","181","trial1","naming","0","0","0","0","paper towel","0","3334","1","White_Screen.jpg","3","128","PaperTowel_Brown.jpg","3"
"082219","13:47:54","10","10","5.0.14.0","2","182","trial1","naming","0","0","0","0","rose","0","2206","1","White_Screen.jpg","3","49","Flower_Tulip.jpg","3"
"082219","13:47:54","10","10","5.0.14.0","2","183","trial1","naming","0","0","0","0","blender","0","8225","1","White_Screen.jpg","2","100","CoffeeGrinder.jpg","2"
"082219","13:47:54","10","10","5.0.14.0","2","184","trial1","naming","0","0","0","0","flutes","0","3307","1","White_Screen.jpg","2","67","Clave.jpg","2"
"082219","13:47:54","10","10","5.0.14.0","2","185","trial1","naming","0","0","0","0","protractor","0","3246","1","White_Screen.jpg","3","17","DrawingCompass.jpg","3"
"082219","13:47:54","10","10","5.0.14.0","2","186","trial1","naming","0","0","0","0","cpu fan","0","2447","1","White_Screen.jpg","3","114","CoolingFan_Engine.jpg","3"
"082219","13:47:54","10","10","5.0.14.0","2","187","trial1","naming","0","0","0","0","tiled floor","0","4061","1","White_Screen.jpg","3","144","FloorTile.jpg","3"
"082219","13:47:54","10","10","5.0.14.0","2","188","trial1","naming","0","0","0","0","tail lights","0","4126","1","White_Screen.jpg","3","113","TailLight.jpg","3"
"082219","13:47:54","10","10","5.0.14.0","2","189","trial1","naming","0","0","0","0","acorn","0","1598","1","White_Screen.jpg","3","132","Acorn.jpg","3"
"082219","13:47:54","10","10","5.0.14.0","2","190","trial1","naming","0","0","0","0","nail clipper","0","6493","1","White_Screen.jpg","3","3","NailClipper.jpg","3"
"082219","13:47:54","10","10","5.0.14.0","2","191","trial1","naming","0","0","0","0","parrot","0","2193","1","White_Screen.jpg","3","92","Bird_Budgie.jpg","3"
"082219","13:47:54","10","10","5.0.14.0","2","192","trial1","naming","0","0","0","0","construction worker","0","4523","1","White_Screen.jpg","2","121","Toy_FigurineEngineer.jpg","2"
"082219","13:47:54","10","10","5.0.14.0","2","193","trial1","naming","0","0","0","0","pasta","0","2424","1","White_Screen.jpg","2","137","Bowl_Pasta.jpg","2"
"082219","13:47:54","10","10","5.0.14.0","2","194","trial1","naming","0","0","0","0","lollipop","0","2344","1","White_Screen.jpg","3","62","Lollipop_Grape.jpg","3"
"082219","13:47:54","10","10","5.0.14.0","2","195","trial1","naming","0","0","0","0","cheese grater ","0","3826","1","White_Screen.jpg","3","8","Cheesegrater_Box.jpg","3"
"082219","13:47:54","10","10","5.0.14.0","2","196","trial1","naming","0","0","0","0","utensils","0","3770","1","White_Screen.jpg","3","38","Box_Cutlery.jpg","3"
"082219","13:47:54","10","10","5.0.14.0","2","197","trial1","naming","0","0","0","0","flamingo","0","2550","1","White_Screen.jpg","2","93","Flamingo_Real.jpg","2"
"082219","13:47:54","10","10","5.0.14.0","2","198","trial1","naming","0","0","0","0","walnut","0","2803","1","White_Screen.jpg","2","130","Nuts_Walnut.jpg","2"
"082219","13:47:54","10","10","5.0.14.0","2","199","trial1","naming","0","0","0","0","arrow sign","0","2248","1","White_Screen.jpg","3","98","Sign_OneWay.jpg","3"
"082219","13:47:54","10","10","5.0.14.0","2","200","trial1","naming","0","0","0","0","blender","0","2423","1","White_Screen.jpg","3","21","ProcessorFood_Modern.jpg","3"
"082219","13:47:54","10","10","5.0.14.0","2","201","trial1","naming","0","0","0","0","disco ball","0","2163","1","White_Screen.jpg","3","13","Ball_Disco.jpg","3"
"082219","13:47:54","10","10","5.0.14.0","2","202","trial1","naming","0","0","0","0","cpu processor","0","3799","1","White_Screen.jpg","3","66","Computer_CPU.jpg","3"
"082219","13:47:54","10","10","5.0.14.0","2","203","trial1","naming","0","0","0","0","garden plant","0","3621","1","White_Screen.jpg","3","9","Bamboo.jpg","3"
"082219","13:47:54","10","10","5.0.14.0","3","1","demographics_block","gender","0","0","0","0","Male","1","31984","0","0","0","0","0","0"
"082219","13:47:54","10","10","5.0.14.0","3","1","demographics_block","age","0","0","0","0","31","1","31984","0","0","0","0","0","0"
"082219","13:47:54","10","10","5.0.14.0","3","1","demographics_block","education","0","0","0","0","16","1","31984","0","0","0","0","0","0"
"082219","13:47:54","10","10","5.0.14.0","3","2","demographics_block","left_right_handed","0","0","0","0","Left","1","50654","0","0","0","0","0","0"
"082219","13:47:54","10","10","5.0.14.0","3","2","demographics_block","raceoption1","0","0","0","0","","1","50654","0","0","0","0","0","0"
"082219","13:47:54","10","10","5.0.14.0","3","2","demographics_block","raceoption2","0","0","0","0","","1","50654","0","0","0","0","0","0"
"082219","13:47:54","10","10","5.0.14.0","3","2","demographics_block","raceoption3","0","0","0","0","","1","50654","0","0","0","0","0","0"
"082219","13:47:54","10","10","5.0.14.0","3","2","demographics_block","raceoption4","0","0","0","0","","1","50654","0","0","0","0","0","0"
"082219","13:47:54","10","10","5.0.14.0","3","2","demographics_block","raceoption5","0","0","0","0","","1","50654","0","0","0","0","0","0"
"082219","13:47:54","10","10","5.0.14.0","3","2","demographics_block","raceoption6","0","0","0","0","","1","50654","0","0","0","0","0","0"
"082219","13:47:54","10","10","5.0.14.0","3","2","demographics_block","raceoption7","0","0","0","0","","1","50654","0","0","0","0","0","0"
"082219","13:47:54","10","10","5.0.14.0","3","2","demographics_block","raceoption8","0","0","0","0","7","1","50654","0","0","0","0","0","0"
"082219","13:47:54","10","10","5.0.14.0","3","2","demographics_block","raceoption9","0","0","0","0","","1","50654","0","0","0","0","0","0"
"082219","13:47:54","10","10","5.0.14.0","3","2","demographics_block","raceother","0","0","0","0","","1","50654","0","0","0","0","0","0"
"082219","13:47:54","10","10","5.0.14.0","3","2","demographics_block","raceother","0","0","0","0","","1","50654","0","0","0","0","0","0"
"082219","13:47:54","10","10","5.0.14.0","3","2","demographics_block","english_language","0","0","0","0","No. When did you first learn English? :","1","50654","0","0","0","0","0","0"
"082219","13:47:54","10","10","5.0.14.0","3","2","demographics_block","english_languageother","0","0","0","0","4 years old","1","50654","0","0","0","0","0","0"
"082219","13:47:54","10","10","5.0.14.0","3","3","demographics_block","eyesight","0","0","0","0","Yes","1","17948","0","0","0","0","0","0"
"082219","13:47:54","10","10","5.0.14.0","3","3","demographics_block","colorblind","0","0","0","0","No","1","17948","0","0","0","0","0","0"
"082219","13:47:54","10","10","5.0.14.0","4","1","worker_id_block","worker_id_textbox","0","0","0","0","A18GLXN59JTX9F","1","22280","0","0","0","0","0","0"
"082319","02:16:27","9","9","5.0.14.0","2","1","trial1","naming","0","0","0","0","Boots","0","10000","1","White_Screen.jpg","66","55","Boot_Rain.jpg","66"
"082319","02:16:27","9","9","5.0.14.0","2","2","trial1","naming","0","0","0","0","Cactus","0","5773","1","White_Screen.jpg","9","48","Cactus.jpg","9"
"082319","02:16:27","9","9","5.0.14.0","2","3","trial1","naming","0","0","0","0","Pin","0","4688","1","White_Screen.jpg","10","84","Hook_Double.jpg","10"
"082319","02:16:27","9","9","5.0.14.0","2","4","trial1","naming","0","0","0","0","container","0","5876","1","White_Screen.jpg","25","124","Container_Tupperware.jpg","25"
"082319","02:16:27","9","9","5.0.14.0","2","5","trial1","naming","0","0","0","0","Bag","0","5271","1","White_Screen.jpg","12","103","Purse.jpg","12"
"082319","02:16:27","9","9","5.0.14.0","2","6","trial1","naming","0","0","0","0","Parrot","0","4649","1","White_Screen.jpg","13","92","Bird_Budgie.jpg","13"
"082319","02:16:27","9","9","5.0.14.0","2","7","trial1","naming","0","0","0","0","Stirrer","0","4698","1","White_Screen.jpg","11","77","Stick_Stirring.jpg","11"
"082319","02:16:27","9","9","5.0.14.0","2","8","trial1","naming","0","0","0","0","Deodrant","0","8051","1","White_Screen.jpg","13","73","Bottle_CosmeticSpray.jpg","13"
"082319","02:16:27","9","9","5.0.14.0","2","9","trial1","naming","0","0","0","0","Tennis","0","10000","1","White_Screen.jpg","13","146","Ball_Baseball.jpg","13"
"082319","02:16:27","9","9","5.0.14.0","2","10","trial1","naming","0","0","0","0","Whisky glas","0","10000","1","White_Screen.jpg","12","95","ShotGlassTray.jpg","12"
"082319","02:16:27","9","9","5.0.14.0","2","11","trial1","naming","0","0","0","0","Lauki","0","6415","1","White_Screen.jpg","10","47","Squash_Butternut.jpg","10"
"082319","02:16:27","9","9","5.0.14.0","2","12","trial1","naming","0","0","0","0","Cadbury flake","0","6561","1","White_Screen.jpg","11","39","Candy_Chocolate.jpg","11"
"082319","02:16:27","9","9","5.0.14.0","2","13","trial1","naming","0","0","0","0","Black board","0","5258","1","White_Screen.jpg","31","34","Blackboard.jpg","31"
"082319","02:16:27","9","9","5.0.14.0","2","14","trial1","naming","0","0","0","0","Plant","0","5050","1","White_Screen.jpg","11","9","Bamboo.jpg","11"
"082319","02:16:27","9","9","5.0.14.0","2","15","trial1","naming","0","0","0","0","Eye check ","0","9124","1","White_Screen.jpg","9","42","EyeChart.jpg","9"
"082319","02:16:27","9","9","5.0.14.0","2","16","trial1","naming","0","0","0","0","Flask","0","7880","1","White_Screen.jpg","9","102","HairCurler.jpg","9"
"082319","02:16:27","9","9","5.0.14.0","2","17","trial1","naming","0","0","0","0","show piece","0","7517","1","White_Screen.jpg","11","90","Decoration_ChristmasRed.jpg","11"
"082319","02:16:27","9","9","5.0.14.0","2","18","trial1","naming","0","0","0","0","speaker","0","2929","1","White_Screen.jpg","9","82","Speaker_Single.jpg","9"
"082319","02:16:27","9","9","5.0.14.0","2","19","trial1","naming","0","0","0","0","wine glass","0","7108","1","White_Screen.jpg","13","86","Glass_Wine.jpg","13"
"082319","02:16:27","9","9","5.0.14.0","2","20","trial1","naming","0","0","0","0","Magic","0","10000","1","White_Screen.jpg","12","108","OvenElement.jpg","12"
"082319","02:16:27","9","9","5.0.14.0","2","21","trial1","naming","0","0","0","0","Hand bag","0","4513","1","White_Screen.jpg","13","40","Handbag.jpg","13"
"082319","02:16:27","9","9","5.0.14.0","2","22","trial1","naming","0","0","0","0","Robot for kids","0","6301","1","White_Screen.jpg","9","133","Toy_RobotTransformer.jpg","9"
"082319","02:16:27","9","9","5.0.14.0","2","23","trial1","naming","0","0","0","0","shovel","0","6884","1","White_Screen.jpg","9","20","Pickaxe.jpg","9"
"082319","02:16:27","9","9","5.0.14.0","2","24","trial1","naming","0","0","0","0","broculli","0","3884","1","White_Screen.jpg","12","150","Broccoli.jpg","12"
"082319","02:16:27","9","9","5.0.14.0","2","25","trial1","naming","0","0","0","0","Stamp","0","6015","1","White_Screen.jpg","13","89","CarJack.jpg","13"
"082319","02:16:27","9","9","5.0.14.0","2","26","trial1","naming","0","0","0","0","xerox","0","4646","1","White_Screen.jpg","11","18","Photocopier.jpg","11"
"082319","02:16:27","9","9","5.0.14.0","2","27","trial1","naming","0","0","0","0","watch","0","8173","1","White_Screen.jpg","9","99","PulleyWooden.jpg","9"
"082319","02:16:27","9","9","5.0.14.0","2","28","trial1","naming","0","0","0","0","cloth hanger","0","6436","1","White_Screen.jpg","10","88","ClothesDryingRack.jpg","10"
"082319","02:16:27","9","9","5.0.14.0","2","29","trial1","naming","0","0","0","0","drilling machine","0","6288","1","White_Screen.jpg","10","96","AngleGrinder.jpg","10"
"082319","02:16:27","9","9","5.0.14.0","2","30","trial1","naming","0","0","0","0","bowl","0","3224","1","White_Screen.jpg","10","127","Bowl_Flour.jpg","10"
"082319","02:16:27","9","9","5.0.14.0","2","31","trial1","naming","0","0","0","0","microwave oven","0","7395","1","White_Screen.jpg","10","58","Microwave.jpg","10"
"082319","02:16:27","9","9","5.0.14.0","2","32","trial1","naming","0","0","0","0","squid","0","4809","1","White_Screen.jpg","8","112","Squid_Orange.jpg","8"
"082319","02:16:27","9","9","5.0.14.0","2","33","trial1","naming","0","0","0","0","christmas bells","0","8039","1","White_Screen.jpg","11","122","Bells_Christmas.jpg","11"
"082319","02:16:27","9","9","5.0.14.0","2","34","trial1","naming","0","0","0","0","stirrer","0","7245","1","White_Screen.jpg","11","64","SelfieStick.jpg","11"
"082319","02:16:27","9","9","5.0.14.0","2","35","trial1","naming","0","0","0","0","necklace","0","6904","1","White_Screen.jpg","8","94","Necklace_Black.jpg","8"
"082319","02:16:27","9","9","5.0.14.0","2","36","trial1","naming","0","0","0","0","violin","0","7135","1","White_Screen.jpg","10","111","Piano_Upright.jpg","10"
"082319","02:16:27","9","9","5.0.14.0","2","37","trial1","naming","0","0","0","0","classic home ","0","10000","1","White_Screen.jpg","12","110","Pillar.jpg","12"
"082319","02:16:27","9","9","5.0.14.0","2","38","trial1","naming","0","0","0","0","duck","0","3211","1","White_Screen.jpg","14","19","Bird_Duck.jpg","14"
"082319","02:16:27","9","9","5.0.14.0","2","39","trial1","naming","0","0","0","0","door","0","3738","1","White_Screen.jpg","11","6","PortaPotty.jpg","11"
"082319","02:16:27","9","9","5.0.14.0","2","40","trial1","naming","0","0","0","0","mixer","0","6377","1","White_Screen.jpg","12","29","MortarPestle_WhiteMarble.jpg","12"
"082319","02:16:27","9","9","5.0.14.0","2","41","trial1","naming","0","0","0","0","cabbage","0","5804","1","White_Screen.jpg","9","145","Lettuce_GreenLeaf.jpg","9"
"082319","02:16:27","9","9","5.0.14.0","2","42","trial1","naming","0","0","0","0","security lock ","0","7658","1","White_Screen.jpg","12","31","Lock_Combination.jpg","12"
"082319","02:16:27","9","9","5.0.14.0","2","43","trial1","naming","0","0","0","0","plates","0","4005","1","White_Screen.jpg","13","26","Mat_Car.jpg","13"
"082319","02:16:27","9","9","5.0.14.0","2","44","trial1","naming","0","0","0","0","paper clipper","0","6029","1","White_Screen.jpg","11","14","Carabiner_Orange.jpg","11"
"082319","02:16:27","9","9","5.0.14.0","2","45","trial1","naming","0","0","0","0","sand","0","8003","1","White_Screen.jpg","11","116","IceScraper.jpg","11"
"082319","02:16:27","9","9","5.0.14.0","2","46","trial1","naming","0","0","0","0","griller","0","8317","1","White_Screen.jpg","12","8","Cheesegrater_Box.jpg","12"
"082319","02:16:27","9","9","5.0.14.0","2","47","trial1","naming","0","0","0","0","bowl","0","6531","1","White_Screen.jpg","9","137","Bowl_Pasta.jpg","9"
"082319","02:16:27","9","9","5.0.14.0","2","48","trial1","naming","0","0","0","0","s","0","10000","1","White_Screen.jpg","10","27","Shed.jpg","10"
"082319","02:16:27","9","9","5.0.14.0","2","49","trial1","naming","0","0","0","0","juicer grind","0","10000","1","White_Screen.jpg","11","126","Beater_Electric.jpg","11"
"082319","02:16:27","9","9","5.0.14.0","2","50","trial1","naming","0","0","0","0","basket","0","4979","1","White_Screen.jpg","13","134","Bucket_WoodenDark.jpg","13"
"082319","02:16:27","9","9","5.0.14.0","2","52","trial1","naming","0","0","0","0","bedEnter Name","0","2155","1","White_Screen.jpg","9","63","Bed_QueenSize.jpg","9"
"082319","02:16:27","9","9","5.0.14.0","2","53","trial1","naming","0","0","0","0","car key","0","6362","1","White_Screen.jpg","11","69","Key_Car.jpg","11"
"082319","02:16:27","9","9","5.0.14.0","2","54","trial1","naming","0","0","0","0","right direction","0","8992","1","White_Screen.jpg","12","98","Sign_OneWay.jpg","12"
"082319","02:16:27","9","9","5.0.14.0","2","55","trial1","naming","0","0","0","0","disco ball","0","4921","1","White_Screen.jpg","9","13","Ball_Disco.jpg","9"
"082319","02:16:27","9","9","5.0.14.0","2","56","trial1","naming","0","0","0","0","plucker","0","6046","1","White_Screen.jpg","11","37","Pliers_SlipJoint.jpg","11"
"082319","02:16:27","9","9","5.0.14.0","2","57","trial1","naming","0","0","0","0","engine cooler","0","8311","1","White_Screen.jpg","11","114","CoolingFan_Engine.jpg","11"
"082319","02:16:27","9","9","5.0.14.0","2","58","trial1","naming","0","0","0","0","salon seat","0","7808","1","White_Screen.jpg","9","51","Chair_Barber.jpg","9"
"082319","02:16:27","9","9","5.0.14.0","2","59","trial1","naming","0","0","0","0","blower","0","7135","1","White_Screen.jpg","10","15","Pen_Ballpoint.jpg","10"
"082319","02:16:27","9","9","5.0.14.0","2","60","trial1","naming","0","0","0","0","Enter Name","0","10000","1","White_Screen.jpg","10","23","Pasta_Penne.jpg","10"
"082319","02:16:27","9","9","5.0.14.0","2","61","trial1","naming","0","0","0","0","cell phone","0","5093","1","White_Screen.jpg","8","65","Phone_Flip.jpg","8"
"082319","02:16:27","9","9","5.0.14.0","2","62","trial1","naming","0","0","0","0","table","0","3816","1","White_Screen.jpg","10","44","Table_AntiqueWooden.jpg","10"
"082319","02:16:27","9","9","5.0.14.0","2","63","trial1","naming","0","0","0","0","Enter Name","0","10000","1","White_Screen.jpg","12","53","BusStop.jpg","12"
"082319","02:16:27","9","9","5.0.14.0","2","64","trial1","naming","0","0","0","0","lolly pop","0","5581","1","White_Screen.jpg","11","62","Lollipop_Grape.jpg","11"
"082319","02:16:27","9","9","5.0.14.0","2","65","trial1","naming","0","0","0","0","office bag","0","5779","1","White_Screen.jpg","10","107","Briefcase_Leather.jpg","10"
"082319","02:16:27","9","9","5.0.14.0","2","66","trial1","naming","0","0","0","0","sEnter Name","0","10000","1","White_Screen.jpg","11","12","Sand.jpg","11"
"082319","02:16:27","9","9","5.0.14.0","2","67","trial1","naming","0","0","0","0","magnifying glass","0","6617","1","White_Screen.jpg","11","74","Mirror_Handheld.jpg","11"
"082319","02:16:27","9","9","5.0.14.0","2","68","trial1","naming","0","0","0","0","jar","0","3378","1","White_Screen.jpg","12","136","Jar_Empty.jpg","12"
"082319","02:16:27","9","9","5.0.14.0","2","69","trial1","naming","0","0","0","0","decoration item","0","8479","1","White_Screen.jpg","9","5","GiftBow.jpg","9"
"082319","02:16:27","9","9","5.0.14.0","2","70","trial1","naming","0","0","0","0","gym sa","0","10000","1","White_Screen.jpg","12","81","Exercise_Machine.jpg","12"
"082319","02:16:27","9","9","5.0.14.0","2","71","trial1","naming","0","0","0","0","toilet paper","0","4854","1","White_Screen.jpg","12","128","PaperTowel_Brown.jpg","12"
"082319","02:16:27","9","9","5.0.14.0","2","72","trial1","naming","0","0","0","0","pool ball","0","8153","1","White_Screen.jpg","9","87","Ball_8.jpg","9"
"082319","02:16:27","9","9","5.0.14.0","2","73","trial1","naming","0","0","0","0","fruit grinder","0","8034","1","White_Screen.jpg","9","21","ProcessorFood_Modern.jpg","9"
"082319","02:16:27","9","9","5.0.14.0","2","74","trial1","naming","0","0","0","0","teddy","0","3844","1","White_Screen.jpg","9","72","Toy_RabbitPlushie.jpg","9"
"082319","02:16:27","9","9","5.0.14.0","2","75","trial1","naming","0","0","0","0","door matress","0","6015","1","White_Screen.jpg","11","66","Computer_CPU.jpg","11"
"082319","02:16:27","9","9","5.0.14.0","2","76","trial1","naming","0","0","0","0","rounder","0","3546","1","White_Screen.jpg","12","17","DrawingCompass.jpg","12"
"082319","02:16:27","9","9","5.0.14.0","2","77","trial1","naming","0","0","0","0","bulldozer","0","3659","1","White_Screen.jpg","8","147","Tractor_Orange.jpg","8"
"082319","02:16:27","9","9","5.0.14.0","2","78","trial1","naming","0","0","0","0","camel","0","2299","1","White_Screen.jpg","11","115","Camel_Dromedary.jpg","11"
"082319","02:16:27","9","9","5.0.14.0","2","79","trial1","naming","0","0","0","0","receipt generat","0","10000","1","White_Screen.jpg","11","105","Pricegun.jpg","11"
"082319","02:16:27","9","9","5.0.14.0","2","80","trial1","naming","0","0","0","0","mil container","0","5681","1","White_Screen.jpg","12","143","Can_MilkAntique.jpg","12"
"082319","02:16:27","9","9","5.0.14.0","2","81","trial1","naming","0","0","0","0","fruit","0","2720","1","White_Screen.jpg","9","130","Nuts_Walnut.jpg","9"
"082319","02:16:27","9","9","5.0.14.0","2","82","trial1","naming","0","0","0","0","Enter Name","0","10000","1","White_Screen.jpg","11","140","Mailbox_Community.jpg","11"
"082319","02:16:27","9","9","5.0.14.0","2","83","trial1","naming","0","0","0","0","makeup kit","0","5587","1","White_Screen.jpg","12","109","Box_Jewellery.jpg","12"
"082319","02:16:27","9","9","5.0.14.0","2","84","trial1","naming","0","0","0","0","coffee machine","0","7999","1","White_Screen.jpg","14","139","CoffeePot.jpg","14"
"082319","02:16:27","9","9","5.0.14.0","2","85","trial1","naming","0","0","0","0","backspace key of pc","0","7535","1","White_Screen.jpg","10","70","ComputerKeyboard_Backspace.jpg","10"
"082319","02:16:27","9","9","5.0.14.0","2","86","trial1","naming","0","0","0","0","soap box","0","7904","1","White_Screen.jpg","8","54","Card_Deck.jpg","8"
"082319","02:16:27","9","9","5.0.14.0","2","87","trial1","naming","0","0","0","0","window cover","0","6736","1","White_Screen.jpg","12","75","WindowBlinds.jpg","12"
"082319","02:16:27","9","9","5.0.14.0","2","88","trial1","naming","0","0","0","0","wheel chair","0","8442","1","White_Screen.jpg","9","24","Walker_Blue.jpg","9"
"082319","02:16:27","9","9","5.0.14.0","2","89","trial1","naming","0","0","0","0","statue","0","3488","1","White_Screen.jpg","11","148","Figurine_Ballerina.jpg","11"
"082319","02:16:27","9","9","5.0.14.0","2","90","trial1","naming","0","0","0","0","Enter Name","0","10000","1","White_Screen.jpg","14","33","CookieCutter_Bell.jpg","14"
"082319","02:16:27","9","9","5.0.14.0","2","91","trial1","naming","0","0","0","0","plucker","0","5364","1","White_Screen.jpg","12","43","DentalProbe.jpg","12"
"082319","02:16:27","9","9","5.0.14.0","2","92","trial1","naming","0","0","0","0","plant","0","8245","1","White_Screen.jpg","11","123","Radish.jpg","11"
"082319","02:16:27","9","9","5.0.14.0","2","93","trial1","naming","0","0","0","0","bulb","0","2807","1","White_Screen.jpg","11","125","LightBulb_Blue.jpg","11"
"082319","02:16:27","9","9","5.0.14.0","2","94","trial1","naming","0","0","0","0","Enter Name","0","10000","1","White_Screen.jpg","16","76","Cinnamonroll.jpg","16"
"082319","02:16:27","9","9","5.0.14.0","2","95","trial1","naming","0","0","0","0","blue eye","0","9513","1","White_Screen.jpg","9","2","Dart.jpg","9"
"082319","02:16:27","9","9","5.0.14.0","2","96","trial1","naming","0","0","0","0","garden ","0","8335","1","White_Screen.jpg","9","4","Shovel_Sandbox.jpg","9"
"082319","02:16:27","9","9","5.0.14.0","2","97","trial1","naming","0","0","0","0","cat","0","6511","1","White_Screen.jpg","9","45","Lynx.jpg","9"
"082319","02:16:27","9","9","5.0.14.0","2","98","trial1","naming","0","0","0","0","fork box","0","9622","1","White_Screen.jpg","11","38","Box_Cutlery.jpg","11"
"082319","02:16:27","9","9","5.0.14.0","2","99","trial1","naming","0","0","0","0","id holder","0","7006","1","White_Screen.jpg","10","117","Nametag.jpg","10"
"082319","02:16:27","9","9","5.0.14.0","2","100","trial1","naming","0","0","0","0","nutEnter Name","0","3112","1","White_Screen.jpg","12","132","Acorn.jpg","12"
"082319","02:16:27","9","9","5.0.14.0","2","101","trial1","naming","0","0","0","0","ostrich","0","4360","1","White_Screen.jpg","11","93","Flamingo_Real.jpg","11"
"082319","02:16:27","9","9","5.0.14.0","2","103","trial1","naming","0","0","0","0","kid's chair","0","6953","1","White_Screen.jpg","8","56","Toy_TableSet.jpg","8"
"082319","02:16:27","9","9","5.0.14.0","2","104","trial1","naming","0","0","0","0","machine","0","6643","1","White_Screen.jpg","13","142","SlideViewer.jpg","13"
"082319","02:16:27","9","9","5.0.14.0","2","105","trial1","naming","0","0","0","0","crown","0","5167","1","White_Screen.jpg","9","22","Crown.jpg","9"
"082319","02:16:27","9","9","5.0.14.0","2","106","trial1","naming","0","0","0","0","eagle","0","3479","1","White_Screen.jpg","9","79","Bird_Eagle.jpg","9"
"082319","02:16:27","9","9","5.0.14.0","2","107","trial1","naming","0","0","0","0","stone","0","6154","1","White_Screen.jpg","9","118","Inukshuk.jpg","9"
"082319","02:16:27","9","9","5.0.14.0","2","108","trial1","naming","0","0","0","0","mona lisa","0","3430","1","White_Screen.jpg","18","60","MonaLisa.jpg","18"
"082319","02:16:27","9","9","5.0.14.0","2","109","trial1","naming","0","0","0","0","juice enhancer","0","8228","1","White_Screen.jpg","17","100","CoffeeGrinder.jpg","17"
"082319","02:16:27","9","9","5.0.14.0","2","110","trial1","naming","0","0","0","0","box","0","2362","1","White_Screen.jpg","11","85","Box_WoodenOpen.jpg","11"
"082319","02:16:27","9","9","5.0.14.0","2","111","trial1","naming","0","0","0","0","wooden spoon","0","8325","1","White_Screen.jpg","9","61","Oars.jpg","9"
"082319","02:16:27","9","9","5.0.14.0","2","112","trial1","naming","0","0","0","0","squid","0","4408","1","White_Screen.jpg","10","83","Squid_Pink.jpg","10"
"082319","02:16:27","9","9","5.0.14.0","2","113","trial1","naming","0","0","0","0","spectacles","0","4393","1","White_Screen.jpg","13","131","Glasses_Reading.jpg","13"
"082319","02:16:27","9","9","5.0.14.0","2","114","trial1","naming","0","0","0","0","flute","0","5850","1","White_Screen.jpg","10","67","Clave.jpg","10"
"082319","02:16:27","9","9","5.0.14.0","2","115","trial1","naming","0","0","0","0","oscar award","0","5288","1","White_Screen.jpg","9","71","Trophy.jpg","9"
"082319","02:16:27","9","9","5.0.14.0","2","116","trial1","naming","0","0","0","0","stapler","0","2793","1","White_Screen.jpg","12","3","NailClipper.jpg","12"
"082319","02:16:27","9","9","5.0.14.0","2","117","trial1","naming","0","0","0","0","towel","0","3066","1","White_Screen.jpg","9","1","Blanket.jpg","9"
"082319","02:16:27","9","9","5.0.14.0","2","118","trial1","naming","0","0","0","0","heater","0","7412","1","White_Screen.jpg","9","138","Amp.jpg","9"
"082319","02:16:27","9","9","5.0.14.0","2","119","trial1","naming","0","0","0","0","march flag","0","6358","1","White_Screen.jpg","11","101","Flags_CheckeredRacing.jpg","11"
"082319","02:16:27","9","9","5.0.14.0","2","120","trial1","naming","0","0","0","0","car headlight","0","6728","1","White_Screen.jpg","12","113","TailLight.jpg","12"
"082319","02:16:27","9","9","5.0.14.0","2","121","trial1","naming","0","0","0","0","hair comb","0","8155","1","White_Screen.jpg","11","36","Comb.jpg","11"
"082319","02:16:27","9","9","5.0.14.0","2","122","trial1","naming","0","0","0","0","chopstick","0","4930","1","White_Screen.jpg","14","149","Chopsticks.jpg","14"
"082319","02:16:27","9","9","5.0.14.0","2","123","trial1","naming","0","0","0","0","flower hanger","0","5963","1","White_Screen.jpg","10","78","Flower_Basket.jpg","10"
"082319","02:16:27","9","9","5.0.14.0","2","124","trial1","naming","0","0","0","0","bike pedd;le","0","10000","1","White_Screen.jpg","12","10","BicyclePedal.jpg","12"
"082319","02:16:27","9","9","5.0.14.0","2","125","trial1","naming","0","0","0","0","sweep","0","4303","1","White_Screen.jpg","9","32","CementFinisher.jpg","9"
"082319","02:16:27","9","9","5.0.14.0","2","126","trial1","naming","0","0","0","0","mop","0","3716","1","White_Screen.jpg","18","35","Exercise_Stretch.jpg","18"
"082319","02:16:27","9","9","5.0.14.0","2","127","trial1","naming","0","0","0","0","calculator","0","3396","1","White_Screen.jpg","10","135","Calculator.jpg","10"
"082319","02:16:27","9","9","5.0.14.0","2","128","trial1","naming","0","0","0","0","fish","0","3686","1","White_Screen.jpg","13","68","Stingray.jpg","13"
"082319","02:16:27","9","9","5.0.14.0","2","129","trial1","naming","0","0","0","0","hun","0","10000","1","White_Screen.jpg","12","141","Scythe.jpg","12"
"082319","02:16:27","9","9","5.0.14.0","2","130","trial1","naming","0","0","0","0","tEnter Name","0","10000","1","White_Screen.jpg","13","129","SkiPoles.jpg","13"
"082319","02:16:27","9","9","5.0.14.0","2","131","trial1","naming","0","0","0","0","Sandwich","0","5455","1","White_Screen.jpg","12","59","Sandwich_Ham.jpg","12"
"082319","02:16:27","9","9","5.0.14.0","2","132","trial1","naming","0","0","0","0","Coin","0","3824","1","White_Screen.jpg","10","25","CameoPortrait.jpg","10"
"082319","02:16:27","9","9","5.0.14.0","2","133","trial1","naming","0","0","0","0","Enter Name","0","10000","1","White_Screen.jpg","14","41","Spear.jpg","14"
"082319","02:16:27","9","9","5.0.14.0","2","134","trial1","naming","0","0","0","0","ice trayEnter Name","0","4095","1","White_Screen.jpg","9","52","Tray_Muffin.jpg","9"
"082319","02:16:27","9","9","5.0.14.0","2","135","trial1","naming","0","0","0","0","cd player","0","4403","1","White_Screen.jpg","11","30","RecordPlayer.jpg","11"
"082319","02:16:27","9","9","5.0.14.0","2","136","trial1","naming","0","0","0","0","kids ","0","10000","1","White_Screen.jpg","9","121","Toy_FigurineEngineer.jpg","9"
"082319","02:16:27","9","9","5.0.14.0","2","137","trial1","naming","0","0","0","0","jar","0","5518","1","White_Screen.jpg","10","50","Jar_Capers.jpg","10"
"082319","02:16:27","9","9","5.0.14.0","2","138","trial1","naming","0","0","0","0","tiles","0","3302","1","White_Screen.jpg","9","144","FloorTile.jpg","9"
"082319","02:16:27","9","9","5.0.14.0","2","139","trial1","naming","0","0","0","0","microscope","0","8449","1","White_Screen.jpg","9","106","Microscope.jpg","9"
"082319","02:16:27","9","9","5.0.14.0","2","140","trial1","naming","0","0","0","0","punch","0","5481","1","White_Screen.jpg","9","16","Toy_DogBall.jpg","9"
"082319","02:16:27","9","9","5.0.14.0","2","141","trial1","naming","0","0","0","0","chrysanthemum","0","8721","1","White_Screen.jpg","10","49","Flower_Tulip.jpg","10"
"082319","02:16:27","9","9","5.0.14.0","2","142","trial1","naming","0","0","0","0","grinder","0","7719","1","White_Screen.jpg","10","11","JuicerCitrus.jpg","10"
"082319","02:16:27","9","9","5.0.14.0","2","143","trial1","naming","0","0","0","0","Enter Name","0","10000","1","White_Screen.jpg","12","104","RadioactiveContainer.jpg","12"
"082319","02:16:27","9","9","5.0.14.0","2","144","trial1","naming","0","0","0","0","christmas home","0","10000","1","White_Screen.jpg","13","7","House_CeramicGingerbread.jpg","13"
"082319","02:16:27","9","9","5.0.14.0","2","145","trial1","naming","0","0","0","0","Enter Name","0","215","1","White_Screen.jpg","12","46","Statue_Horse.jpg","12"
"082319","02:16:27","9","9","5.0.14.0","2","146","trial1","naming","0","0","0","0","bath tub","0","6292","1","White_Screen.jpg","12","97","Bathtub.jpg","12"
"082319","02:16:27","9","9","5.0.14.0","2","147","trial1","naming","0","0","0","0","classic car","0","5935","1","White_Screen.jpg","9","119","Car_Vintage.jpg","9"
"082319","02:16:27","9","9","5.0.14.0","2","148","trial1","naming","0","0","0","0","baby socks","0","4116","1","White_Screen.jpg","9","28","StockingChristmas.jpg","9"
"082319","02:16:27","9","9","5.0.14.0","2","149","trial1","naming","0","0","0","0","binoculars","0","3641","1","White_Screen.jpg","12","120","Binoculars.jpg","12"
"082319","02:16:27","9","9","5.0.14.0","2","150","trial1","naming","0","0","0","0","hunter","0","5442","1","White_Screen.jpg","11","57","JoustingSpear.jpg","11"
"082319","02:16:27","9","9","5.0.14.0","2","151","trial1","naming","0","0","0","0","crayon","0","5706","1","White_Screen.jpg","11","80","Crayon_Green.jpg","11"
"082319","02:16:27","9","9","5.0.14.0","2","152","trial1","naming","0","0","0","0","cream","0","3871","1","White_Screen.jpg","13","91","Tube_Paint.jpg","13"
"082319","02:16:27","9","9","5.0.14.0","2","154","trial1","naming","0","0","0","0","plEnter Name","0","10000","1","White_Screen.jpg","11","32","CementFinisher.jpg","11"
"082319","02:16:27","9","9","5.0.14.0","2","155","trial1","naming","0","0","0","0","cd player","0","5279","1","White_Screen.jpg","22","30","RecordPlayer.jpg","22"
"082319","02:16:27","9","9","5.0.14.0","2","156","trial1","naming","0","0","0","0","shovel","0","2858","1","White_Screen.jpg","9","116","IceScraper.jpg","9"
"082319","02:16:27","9","9","5.0.14.0","2","157","trial1","naming","0","0","0","0","mixer","0","4340","1","White_Screen.jpg","13","64","SelfieStick.jpg","13"
"082319","02:16:27","9","9","5.0.14.0","2","158","trial1","naming","0","0","0","0","plant","0","2815","1","White_Screen.jpg","14","9","Bamboo.jpg","14"
"082319","02:16:27","9","9","5.0.14.0","2","159","trial1","naming","0","0","0","0","bulb","0","2306","1","White_Screen.jpg","10","125","LightBulb_Blue.jpg","10"
"082319","02:16:27","9","9","5.0.14.0","2","160","trial1","naming","0","0","0","0","sEnter Name","0","10000","1","White_Screen.jpg","9","108","OvenElement.jpg","9"
"082319","02:16:27","9","9","5.0.14.0","2","161","trial1","naming","0","0","0","0","lollypop","0","3642","1","White_Screen.jpg","10","62","Lollipop_Grape.jpg","10"
"082319","02:16:27","9","9","5.0.14.0","2","162","trial1","naming","0","0","0","0","duck","0","2207","1","White_Screen.jpg","11","19","Bird_Duck.jpg","11"
"082319","02:16:27","9","9","5.0.14.0","2","163","trial1","naming","0","0","0","0","fruit","0","2517","1","White_Screen.jpg","10","47","Squash_Butternut.jpg","10"
"082319","02:16:27","9","9","5.0.14.0","2","164","trial1","naming","0","0","0","0","grinder","0","3456","1","White_Screen.jpg","10","100","CoffeeGrinder.jpg","10"
"082319","02:16:27","9","9","5.0.14.0","2","165","trial1","naming","0","0","0","0","christmas bell","0","4193","1","White_Screen.jpg","10","122","Bells_Christmas.jpg","10"
"082319","02:16:27","9","9","5.0.14.0","2","166","trial1","naming","0","0","0","0","storage room","0","5082","1","White_Screen.jpg","14","53","BusStop.jpg","14"
"082319","02:16:27","9","9","5.0.14.0","2","167","trial1","naming","0","0","0","0","bucket","0","3888","1","White_Screen.jpg","10","134","Bucket_WoodenDark.jpg","10"
"082319","02:16:27","9","9","5.0.14.0","2","168","trial1","naming","0","0","0","0","stir","0","3025","1","White_Screen.jpg","9","57","JoustingSpear.jpg","9"
"082319","02:16:27","9","9","5.0.14.0","2","169","trial1","naming","0","0","0","0","crown","0","2470","1","White_Screen.jpg","13","22","Crown.jpg","13"
"082319","02:16:27","9","9","5.0.14.0","2","170","trial1","naming","0","0","0","0","race march","0","7594","1","White_Screen.jpg","14","101","Flags_CheckeredRacing.jpg","14"
"082319","02:16:27","9","9","5.0.14.0","2","171","trial1","naming","0","0","0","0","glass","0","2542","1","White_Screen.jpg","13","86","Glass_Wine.jpg","13"
"082319","02:16:27","9","9","5.0.14.0","2","172","trial1","naming","0","0","0","0","teddy bear","0","3496","1","White_Screen.jpg","14","72","Toy_RabbitPlushie.jpg","14"
"082319","02:16:27","9","9","5.0.14.0","2","173","trial1","naming","0","0","0","0","oscar","0","3660","1","White_Screen.jpg","12","71","Trophy.jpg","12"
"082319","02:16:27","9","9","5.0.14.0","2","174","trial1","naming","0","0","0","0","orthopad","0","10000","1","White_Screen.jpg","13","42","EyeChart.jpg","13"
"082319","02:16:27","9","9","5.0.14.0","2","175","trial1","naming","0","0","0","0","microscope","0","4927","1","White_Screen.jpg","17","106","Microscope.jpg","17"
"082319","02:16:27","9","9","5.0.14.0","2","176","trial1","naming","0","0","0","0","violin","0","3863","1","White_Screen.jpg","12","111","Piano_Upright.jpg","12"
"082319","02:16:27","9","9","5.0.14.0","2","177","trial1","naming","0","0","0","0","horse statue","0","4585","1","White_Screen.jpg","11","46","Statue_Horse.jpg","11"
"082319","02:16:27","9","9","5.0.14.0","2","178","trial1","naming","0","0","0","0","crayon","0","2802","1","White_Screen.jpg","12","80","Crayon_Green.jpg","12"
"082319","02:16:27","9","9","5.0.14.0","2","179","trial1","naming","0","0","0","0","id holder","0","4864","1","White_Screen.jpg","12","117","Nametag.jpg","12"
"082319","02:16:27","9","9","5.0.14.0","2","180","trial1","naming","0","0","0","0","hair comb","0","3995","1","White_Screen.jpg","11","36","Comb.jpg","11"
"082319","02:16:27","9","9","5.0.14.0","2","181","trial1","naming","0","0","0","0","plucker","0","4325","1","White_Screen.jpg","12","43","DentalProbe.jpg","12"
"082319","02:16:27","9","9","5.0.14.0","2","182","trial1","naming","0","0","0","0","tier","0","5947","1","White_Screen.jpg","20","33","CookieCutter_Bell.jpg","20"
"082319","02:16:27","9","9","5.0.14.0","2","183","trial1","naming","0","0","0","0","grinder","0","4268","1","White_Screen.jpg","11","126","Beater_Electric.jpg","11"
"082319","02:16:27","9","9","5.0.14.0","2","184","trial1","naming","0","0","0","0","flute","0","5758","1","White_Screen.jpg","9","67","Clave.jpg","9"
"082319","02:16:27","9","9","5.0.14.0","2","185","trial1","naming","0","0","0","0","nachos","0","2655","1","White_Screen.jpg","9","23","Pasta_Penne.jpg","9"
"082319","02:16:27","9","9","5.0.14.0","2","186","trial1","naming","0","0","0","0","christmas ","0","7959","1","White_Screen.jpg","11","90","Decoration_ChristmasRed.jpg","11"
"082319","02:16:27","9","9","5.0.14.0","2","187","trial1","naming","0","0","0","0","eEnter Name","0","10000","1","White_Screen.jpg","16","140","Mailbox_Community.jpg","16"
"082319","02:16:27","9","9","5.0.14.0","2","188","trial1","naming","0","0","0","0","microwave ove","0","10000","1","White_Screen.jpg","9","58","Microwave.jpg","9"
"082319","02:16:27","9","9","5.0.14.0","2","189","trial1","naming","0","0","0","0","juice grinder","0","6798","1","White_Screen.jpg","9","11","JuicerCitrus.jpg","9"
"082319","02:16:27","9","9","5.0.14.0","2","190","trial1","naming","0","0","0","0","ball","0","3088","1","White_Screen.jpg","11","146","Ball_Baseball.jpg","11"
"082319","02:16:27","9","9","5.0.14.0","2","191","trial1","naming","0","0","0","0","binocular","0","3541","1","White_Screen.jpg","9","120","Binoculars.jpg","9"
"082319","02:16:27","9","9","5.0.14.0","2","192","trial1","naming","0","0","0","0","mixer","0","6683","1","White_Screen.jpg","12","29","MortarPestle_WhiteMarble.jpg","12"
"082319","02:16:27","9","9","5.0.14.0","2","193","trial1","naming","0","0","0","0","container","0","4424","1","White_Screen.jpg","10","124","Container_Tupperware.jpg","10"
"082319","02:16:27","9","9","5.0.14.0","2","194","trial1","naming","0","0","0","0","car headlight","0","7355","1","White_Screen.jpg","18","113","TailLight.jpg","18"
"082319","02:16:27","9","9","5.0.14.0","2","195","trial1","naming","0","0","0","0","fish","0","2489","1","White_Screen.jpg","25","68","Stingray.jpg","25"
"082319","02:16:27","9","9","5.0.14.0","2","196","trial1","naming","0","0","0","0","bath tub","0","3175","1","White_Screen.jpg","11","97","Bathtub.jpg","11"
"082319","02:16:27","9","9","5.0.14.0","2","197","trial1","naming","0","0","0","0","bed","0","1666","1","White_Screen.jpg","12","63","Bed_QueenSize.jpg","12"
"082319","02:16:27","9","9","5.0.14.0","2","198","trial1","naming","0","0","0","0","ostrich","0","3334","1","White_Screen.jpg","9","93","Flamingo_Real.jpg","9"
"082319","02:16:27","9","9","5.0.14.0","2","199","trial1","naming","0","0","0","0","wall clock","0","5145","1","White_Screen.jpg","10","110","Pillar.jpg","10"
"082319","02:16:27","9","9","5.0.14.0","2","200","trial1","naming","0","0","0","0","door","0","2214","1","White_Screen.jpg","13","6","PortaPotty.jpg","13"
"082319","02:16:27","9","9","5.0.14.0","2","201","trial1","naming","0","0","0","0","construction work","0","10000","1","White_Screen.jpg","9","121","Toy_FigurineEngineer.jpg","9"
"082319","02:16:27","9","9","5.0.14.0","2","202","trial1","naming","0","0","0","0","sandwich","0","4527","1","White_Screen.jpg","9","59","Sandwich_Ham.jpg","9"
"082319","02:16:27","9","9","5.0.14.0","2","203","trial1","naming","0","0","0","0","eagle","0","4916","1","White_Screen.jpg","14","79","Bird_Eagle.jpg","14"
"082319","02:16:27","9","9","5.0.14.0","3","1","demographics_block","gender","0","0","0","0","male","1","10054","0","0","0","0","0","0"
"082319","02:16:27","9","9","5.0.14.0","3","1","demographics_block","age","0","0","0","0","27","1","10054","0","0","0","0","0","0"
"082319","02:16:27","9","9","5.0.14.0","3","1","demographics_block","education","0","0","0","0","MS","1","10054","0","0","0","0","0","0"
"082319","02:16:27","9","9","5.0.14.0","3","2","demographics_block","left_right_handed","0","0","0","0","Right","1","6055","0","0","0","0","0","0"
"082319","02:16:27","9","9","5.0.14.0","3","2","demographics_block","raceoption1","0","0","0","0","0","1","6055","0","0","0","0","0","0"
"082319","02:16:27","9","9","5.0.14.0","3","2","demographics_block","raceoption2","0","0","0","0","","1","6055","0","0","0","0","0","0"
"082319","02:16:27","9","9","5.0.14.0","3","2","demographics_block","raceoption3","0","0","0","0","","1","6055","0","0","0","0","0","0"
"082319","02:16:27","9","9","5.0.14.0","3","2","demographics_block","raceoption4","0","0","0","0","","1","6055","0","0","0","0","0","0"
"082319","02:16:27","9","9","5.0.14.0","3","2","demographics_block","raceoption5","0","0","0","0","","1","6055","0","0","0","0","0","0"
"082319","02:16:27","9","9","5.0.14.0","3","2","demographics_block","raceoption6","0","0","0","0","","1","6055","0","0","0","0","0","0"
"082319","02:16:27","9","9","5.0.14.0","3","2","demographics_block","raceoption7","0","0","0","0","","1","6055","0","0","0","0","0","0"
"082319","02:16:27","9","9","5.0.14.0","3","2","demographics_block","raceoption8","0","0","0","0","","1","6055","0","0","0","0","0","0"
"082319","02:16:27","9","9","5.0.14.0","3","2","demographics_block","raceoption9","0","0","0","0","","1","6055","0","0","0","0","0","0"
"082319","02:16:27","9","9","5.0.14.0","3","2","demographics_block","raceother","0","0","0","0","","1","6055","0","0","0","0","0","0"
"082319","02:16:27","9","9","5.0.14.0","3","2","demographics_block","raceother","0","0","0","0","","1","6055","0","0","0","0","0","0"
"082319","02:16:27","9","9","5.0.14.0","3","2","demographics_block","english_language","0","0","0","0","Yes","1","6055","0","0","0","0","0","0"
"082319","02:16:27","9","9","5.0.14.0","3","2","demographics_block","english_languageother","0","0","0","0","","1","6055","0","0","0","0","0","0"
"082319","02:16:27","9","9","5.0.14.0","3","3","demographics_block","eyesight","0","0","0","0","Yes","1","9904","0","0","0","0","0","0"
"082319","02:16:27","9","9","5.0.14.0","3","3","demographics_block","colorblind","0","0","0","0","No","1","9904","0","0","0","0","0","0"
"082319","02:16:27","9","9","5.0.14.0","4","1","worker_id_block","worker_id_textbox","0","0","0","0","a29ztf7juo8f39","1","77108","0","0","0","0","0","0"
"082219","16:58:32","11","11","5.0.14.0","2","1","trial1","naming","0","0","0","0","scraperEnter Name","0","6161","1","White_Screen.jpg","50","116","IceScraper.jpg","50"
"082219","16:58:32","11","11","5.0.14.0","2","2","trial1","naming","0","0","0","0","","0","10000","1","White_Screen.jpg","4","3","NailClipper.jpg","4"
"082219","16:58:32","11","11","5.0.14.0","2","3","trial1","naming","0","0","0","0","cookie cutter","0","8829","1","White_Screen.jpg","3","33","CookieCutter_Bell.jpg","3"
"082219","16:58:32","11","11","5.0.14.0","2","4","trial1","naming","0","0","0","0","green crayon","0","5315","1","White_Screen.jpg","2","80","Crayon_Green.jpg","2"
"082219","16:58:32","11","11","5.0.14.0","2","5","trial1","naming","0","0","0","0","","0","10000","1","White_Screen.jpg","3","53","BusStop.jpg","3"
"082219","16:58:32","11","11","5.0.14.0","2","6","trial1","naming","0","0","0","0","tool","0","6442","1","White_Screen.jpg","3","35","Exercise_Stretch.jpg","3"
"082219","16:58:32","11","11","5.0.14.0","2","7","trial1","naming","0","0","0","0","bowl of noodles","0","5937","1","White_Screen.jpg","3","137","Bowl_Pasta.jpg","3"
"082219","16:58:32","11","11","5.0.14.0","2","8","trial1","naming","0","0","0","0","pen","0","6280","1","White_Screen.jpg","3","15","Pen_Ballpoint.jpg","3"
"082219","16:58:32","11","11","5.0.14.0","2","9","trial1","naming","0","0","0","0","flamingo","0","4648","1","White_Screen.jpg","2","93","Flamingo_Real.jpg","2"
"082219","16:58:32","11","11","5.0.14.0","2","10","trial1","naming","0","0","0","0","cupcake pan","0","6058","1","White_Screen.jpg","3","52","Tray_Muffin.jpg","3"
"082219","16:58:32","11","11","5.0.14.0","2","11","trial1","naming","0","0","0","0","flake","0","3688","1","White_Screen.jpg","3","39","Candy_Chocolate.jpg","3"
"082219","16:58:32","11","11","5.0.14.0","2","12","trial1","naming","0","0","0","0","AC","0","4049","1","White_Screen.jpg","4","138","Amp.jpg","4"
"082219","16:58:32","11","11","5.0.14.0","2","13","trial1","naming","0","0","0","0","nter Name","0","1331","1","White_Screen.jpg","2","90","Decoration_ChristmasRed.jpg","2"
"082219","16:58:32","11","11","5.0.14.0","2","14","trial1","naming","0","0","0","0","Tractor","0","5789","1","White_Screen.jpg","2","147","Tractor_Orange.jpg","2"
"082219","16:58:32","11","11","5.0.14.0","2","15","trial1","naming","0","0","0","0","Table","0","4368","1","White_Screen.jpg","3","44","Table_AntiqueWooden.jpg","3"
"082219","16:58:32","11","11","5.0.14.0","2","16","trial1","naming","0","0","0","0","Christmas stocking","0","5639","1","White_Screen.jpg","3","28","StockingChristmas.jpg","3"
"082219","16:58:32","11","11","5.0.14.0","2","17","trial1","naming","0","0","0","0","Mona Lisa","0","4785","1","White_Screen.jpg","2","60","MonaLisa.jpg","2"
"082219","16:58:32","11","11","5.0.14.0","2","18","trial1","naming","0","0","0","0","ca","0","10000","1","White_Screen.jpg","3","135","Calculator.jpg","3"
"082219","16:58:32","11","11","5.0.14.0","2","19","trial1","naming","0","0","0","0","baseball","0","5009","1","White_Screen.jpg","2","146","Ball_Baseball.jpg","2"
"082219","16:58:32","11","11","5.0.14.0","2","20","trial1","naming","0","0","0","0","pool ball","0","4682","1","White_Screen.jpg","2","87","Ball_8.jpg","2"
"082219","16:58:32","11","11","5.0.14.0","2","21","trial1","naming","0","0","0","0","gundam","0","5426","1","White_Screen.jpg","3","133","Toy_RobotTransformer.jpg","3"
"082219","16:58:32","11","11","5.0.14.0","2","22","trial1","naming","0","0","0","0","blinds","0","3786","1","White_Screen.jpg","2","75","WindowBlinds.jpg","2"
"082219","16:58:32","11","11","5.0.14.0","2","23","trial1","naming","0","0","0","0","cactus","0","3550","1","White_Screen.jpg","3","48","Cactus.jpg","3"
"082219","16:58:32","11","11","5.0.14.0","2","24","trial1","naming","0","0","0","0","bul","0","3885","1","White_Screen.jpg","3","125","LightBulb_Blue.jpg","3"
"082219","16:58:32","11","11","5.0.14.0","2","25","trial1","naming","0","0","0","0","squiid","0","4074","1","White_Screen.jpg","2","112","Squid_Orange.jpg","2"
"082219","16:58:32","11","11","5.0.14.0","2","26","trial1","naming","0","0","0","0","jakc","0","3466","1","White_Screen.jpg","3","89","CarJack.jpg","3"
"082219","16:58:32","11","11","5.0.14.0","2","27","trial1","naming","0","0","0","0","microwave","0","3554","1","White_Screen.jpg","5","58","Microwave.jpg","5"
"082219","16:58:32","11","11","5.0.14.0","2","28","trial1","naming","0","0","0","0","dart","0","2800","1","White_Screen.jpg","2","2","Dart.jpg","2"
"082219","16:58:32","11","11","5.0.14.0","2","29","trial1","naming","0","0","0","0","siren","0","5410","1","White_Screen.jpg","3","113","TailLight.jpg","3"
"082219","16:58:32","11","11","5.0.14.0","2","30","trial1","naming","0","0","0","0","squash","0","4071","1","White_Screen.jpg","2","47","Squash_Butternut.jpg","2"
"082219","16:58:32","11","11","5.0.14.0","2","31","trial1","naming","0","0","0","0","fuck id ont' know","0","8937","1","White_Screen.jpg","4","67","Clave.jpg","4"
"082219","16:58:32","11","11","5.0.14.0","2","32","trial1","naming","0","0","0","0","basin","0","6323","1","White_Screen.jpg","3","134","Bucket_WoodenDark.jpg","3"
"082219","16:58:32","11","11","5.0.14.0","2","33","trial1","naming","0","0","0","0","port o potty","0","4057","1","White_Screen.jpg","3","6","PortaPotty.jpg","3"
"082219","16:58:32","11","11","5.0.14.0","2","34","trial1","naming","0","0","0","0","filter","0","3706","1","White_Screen.jpg","3","114","CoolingFan_Engine.jpg","3"
"082219","16:58:32","11","11","5.0.14.0","2","35","trial1","naming","0","0","0","0","tool","0","3082","1","White_Screen.jpg","3","37","Pliers_SlipJoint.jpg","3"
"082219","16:58:32","11","11","5.0.14.0","2","36","trial1","naming","0","0","0","0","chicken","0","3253","1","White_Screen.jpg","3","19","Bird_Duck.jpg","3"
"082219","16:58:32","11","11","5.0.14.0","2","37","trial1","naming","0","0","0","0","kid table","0","5256","1","White_Screen.jpg","3","56","Toy_TableSet.jpg","3"
"082219","16:58:32","11","11","5.0.14.0","2","38","trial1","naming","0","0","0","0","arrow sign","0","4108","1","White_Screen.jpg","2","98","Sign_OneWay.jpg","2"
"082219","16:58:32","11","11","5.0.14.0","2","39","trial1","naming","0","0","0","0","mixer","0","3776","1","White_Screen.jpg","5","126","Beater_Electric.jpg","5"
"082219","16:58:32","11","11","5.0.14.0","2","40","trial1","naming","0","0","0","0","glasses","0","3513","1","White_Screen.jpg","3","131","Glasses_Reading.jpg","3"
"082219","16:58:32","11","11","5.0.14.0","2","41","trial1","naming","0","0","0","0","purse","0","3846","1","White_Screen.jpg","3","103","Purse.jpg","3"
"082219","16:58:32","11","11","5.0.14.0","2","42","trial1","naming","0","0","0","0","olives","0","5583","1","White_Screen.jpg","3","50","Jar_Capers.jpg","3"
"082219","16:58:32","11","11","5.0.14.0","2","43","trial1","naming","0","0","0","0","sucker","0","3207","1","White_Screen.jpg","3","62","Lollipop_Grape.jpg","3"
"082219","16:58:32","11","11","5.0.14.0","2","44","trial1","naming","0","0","0","0","car keys","0","2906","1","White_Screen.jpg","2","69","Key_Car.jpg","2"
"082219","16:58:32","11","11","5.0.14.0","2","45","trial1","naming","0","0","0","0","gingerbread house","0","4911","1","White_Screen.jpg","2","7","House_CeramicGingerbread.jpg","2"
"082219","16:58:32","11","11","5.0.14.0","2","46","trial1","naming","0","0","0","0","Enter Name","0","10000","1","White_Screen.jpg","3","49","Flower_Tulip.jpg","3"
"082219","16:58:32","11","11","5.0.14.0","2","47","trial1","naming","0","0","0","0","eye chart","0","5337","1","White_Screen.jpg","3","42","EyeChart.jpg","3"
"082219","16:58:32","11","11","5.0.14.0","2","48","trial1","naming","0","0","0","0","chalkboard","0","4296","1","White_Screen.jpg","2","34","Blackboard.jpg","2"
"082219","16:58:32","11","11","5.0.14.0","2","49","trial1","naming","0","0","0","0","scythe","0","4214","1","White_Screen.jpg","2","141","Scythe.jpg","2"
"082219","16:58:32","11","11","5.0.14.0","2","50","trial1","naming","0","0","0","0","juicer","0","3544","1","White_Screen.jpg","2","11","JuicerCitrus.jpg","2"
"082219","16:58:32","11","11","5.0.14.0","2","52","trial1","naming","0","0","0","0","box","0","3549","1","White_Screen.jpg","3","85","Box_WoodenOpen.jpg","3"
"082219","16:58:32","11","11","5.0.14.0","2","53","trial1","naming","0","0","0","0","rocks","0","6449","1","White_Screen.jpg","4","12","Sand.jpg","4"
"082219","16:58:32","11","11","5.0.14.0","2","54","trial1","naming","0","0","0","0","trash picker upper","0","7276","1","White_Screen.jpg","3","129","SkiPoles.jpg","3"
"082219","16:58:32","11","11","5.0.14.0","2","55","trial1","naming","0","0","0","0","pasta","0","6077","1","White_Screen.jpg","2","23","Pasta_Penne.jpg","2"
"082219","16:58:32","11","11","5.0.14.0","2","56","trial1","naming","0","0","0","0","backspace key","0","6256","1","White_Screen.jpg","3","70","ComputerKeyboard_Backspace.jpg","3"
"082219","16:58:32","11","11","5.0.14.0","2","57","trial1","naming","0","0","0","0","goblet","0","7053","1","White_Screen.jpg","3","86","Glass_Wine.jpg","3"
"082219","16:58:32","11","11","5.0.14.0","2","58","trial1","naming","0","0","0","0","tool","0","7586","1","White_Screen.jpg","3","96","AngleGrinder.jpg","3"
"082219","16:58:32","11","11","5.0.14.0","2","59","trial1","naming","0","0","0","0","rainboot","0","3867","1","White_Screen.jpg","4","55","Boot_Rain.jpg","4"
"082219","16:58:32","11","11","5.0.14.0","2","60","trial1","naming","0","0","0","0","speake","0","5589","1","White_Screen.jpg","2","82","Speaker_Single.jpg","2"
"082219","16:58:32","11","11","5.0.14.0","2","61","trial1","naming","0","0","0","0","bathtub","0","5185","1","White_Screen.jpg","3","97","Bathtub.jpg","3"
"082219","16:58:32","11","11","5.0.14.0","2","62","trial1","naming","0","0","0","0","record player","0","9217","1","White_Screen.jpg","3","30","RecordPlayer.jpg","3"
"082219","16:58:32","11","11","5.0.14.0","2","63","trial1","naming","0","0","0","0","magnifying glass","0","4974","1","White_Screen.jpg","3","74","Mirror_Handheld.jpg","3"
"082219","16:58:32","11","11","5.0.14.0","2","64","trial1","naming","0","0","0","0","cleaning tool","0","8774","1","White_Screen.jpg","3","64","SelfieStick.jpg","3"
"082219","16:58:32","11","11","5.0.14.0","2","65","trial1","naming","0","0","0","0","doors","0","3844","1","White_Screen.jpg","2","27","Shed.jpg","2"
"082219","16:58:32","11","11","5.0.14.0","2","66","trial1","naming","0","0","0","0","ribbon","0","3029","1","White_Screen.jpg","3","5","GiftBow.jpg","3"
"082219","16:58:32","11","11","5.0.14.0","2","67","trial1","naming","0","0","0","0","noisy bird","0","5806","1","White_Screen.jpg","4","92","Bird_Budgie.jpg","4"
"082219","16:58:32","11","11","5.0.14.0","2","68","trial1","naming","0","0","0","0","cooking thing","0","6784","1","White_Screen.jpg","3","32","CementFinisher.jpg","3"
"082219","16:58:32","11","11","5.0.14.0","2","69","trial1","naming","0","0","0","0","sharp object","0","5790","1","White_Screen.jpg","3","84","Hook_Double.jpg","3"
"082219","16:58:32","11","11","5.0.14.0","2","70","trial1","naming","0","0","0","0","labeler","0","8979","1","White_Screen.jpg","3","105","Pricegun.jpg","3"
"082219","16:58:32","11","11","5.0.14.0","2","71","trial1","naming","0","0","0","0","cart wheel","0","4852","1","White_Screen.jpg","3","99","PulleyWooden.jpg","3"
"082219","16:58:32","11","11","5.0.14.0","2","72","trial1","naming","0","0","0","0","paper towel","0","4465","1","White_Screen.jpg","2","128","PaperTowel_Brown.jpg","2"
"082219","16:58:32","11","11","5.0.14.0","2","73","trial1","naming","0","0","0","0","mason jar","0","3352","1","White_Screen.jpg","2","136","Jar_Empty.jpg","2"
"082219","16:58:32","11","11","5.0.14.0","2","74","trial1","naming","0","0","0","0","flipphone","0","4501","1","White_Screen.jpg","3","65","Phone_Flip.jpg","3"
"082219","16:58:32","11","11","5.0.14.0","2","75","trial1","naming","0","0","0","0","lynx ?","0","4205","1","White_Screen.jpg","3","45","Lynx.jpg","3"
"082219","16:58:32","11","11","5.0.14.0","2","76","trial1","naming","0","0","0","0","ballerina","0","4062","1","White_Screen.jpg","4","148","Figurine_Ballerina.jpg","4"
"082219","16:58:32","11","11","5.0.14.0","2","77","trial1","naming","0","0","0","0","rabbit plush","0","4813","1","White_Screen.jpg","2","72","Toy_RabbitPlushie.jpg","2"
"082219","16:58:32","11","11","5.0.14.0","2","78","trial1","naming","0","0","0","0","copying machine","0","7998","1","White_Screen.jpg","2","18","Photocopier.jpg","2"
"082219","16:58:32","11","11","5.0.14.0","2","79","trial1","naming","0","0","0","0","thingie","0","5113","1","White_Screen.jpg","2","140","Mailbox_Community.jpg","2"
"082219","16:58:32","11","11","5.0.14.0","2","80","trial1","naming","0","0","0","0","scooper","0","4469","1","White_Screen.jpg","3","4","Shovel_Sandbox.jpg","3"
"082219","16:58:32","11","11","5.0.14.0","2","81","trial1","naming","0","0","0","0","lance","0","4942","1","White_Screen.jpg","3","57","JoustingSpear.jpg","3"
"082219","16:58:32","11","11","5.0.14.0","2","82","trial1","naming","0","0","0","0","badge holder","0","5236","1","White_Screen.jpg","5","117","Nametag.jpg","5"
"082219","16:58:32","11","11","5.0.14.0","2","83","trial1","naming","0","0","0","0","hair curler","0","8695","1","White_Screen.jpg","5","102","HairCurler.jpg","5"
"082219","16:58:32","11","11","5.0.14.0","2","84","trial1","naming","0","0","0","0","jewelry box","0","6255","1","White_Screen.jpg","2","109","Box_Jewellery.jpg","2"
"082219","16:58:32","11","11","5.0.14.0","2","85","trial1","naming","0","0","0","0","tile","0","4449","1","White_Screen.jpg","3","144","FloorTile.jpg","3"
"082219","16:58:32","11","11","5.0.14.0","2","86","trial1","naming","0","0","0","0","bowl of sugar","0","3854","1","White_Screen.jpg","3","127","Bowl_Flour.jpg","3"
"082219","16:58:32","11","11","5.0.14.0","2","87","trial1","naming","0","0","0","0","arrow and shaft","0","4893","1","White_Screen.jpg","3","41","Spear.jpg","3"
"082219","16:58:32","11","11","5.0.14.0","2","88","trial1","naming","0","0","0","0","bed","0","4891","1","White_Screen.jpg","3","63","Bed_QueenSize.jpg","3"
"082219","16:58:32","11","11","5.0.14.0","2","89","trial1","naming","0","0","0","0","cinnamon roll","0","4300","1","White_Screen.jpg","3","76","Cinnamonroll.jpg","3"
"082219","16:58:32","11","11","5.0.14.0","2","90","trial1","naming","0","0","0","0","exercise machine","0","5044","1","White_Screen.jpg","3","81","Exercise_Machine.jpg","3"
"082219","16:58:32","11","11","5.0.14.0","2","91","trial1","naming","0","0","0","0","sandwich","0","4920","1","White_Screen.jpg","3","59","Sandwich_Ham.jpg","3"
"082219","16:58:32","11","11","5.0.14.0","2","92","trial1","naming","0","0","0","0","microscope","0","3634","1","White_Screen.jpg","3","106","Microscope.jpg","3"
"082219","16:58:32","11","11","5.0.14.0","2","93","trial1","naming","0","0","0","0","piano","0","3373","1","White_Screen.jpg","3","111","Piano_Upright.jpg","3"
"082219","16:58:32","11","11","5.0.14.0","2","94","trial1","naming","0","0","0","0","neckaxe","0","3991","1","White_Screen.jpg","2","94","Necklace_Black.jpg","2"
"082219","16:58:32","11","11","5.0.14.0","2","95","trial1","naming","0","0","0","0","bamboo thing","0","5254","1","White_Screen.jpg","2","9","Bamboo.jpg","2"
"082219","16:58:32","11","11","5.0.14.0","2","96","trial1","naming","0","0","0","0","the brain","0","3792","1","White_Screen.jpg","4","130","Nuts_Walnut.jpg","4"
"082219","16:58:32","11","11","5.0.14.0","2","97","trial1","naming","0","0","0","0","crown","0","2761","1","White_Screen.jpg","3","22","Crown.jpg","3"
"082219","16:58:32","11","11","5.0.14.0","2","98","trial1","naming","0","0","0","0","rock formation","0","3649","1","White_Screen.jpg","3","118","Inukshuk.jpg","3"
"082219","16:58:32","11","11","5.0.14.0","2","99","trial1","naming","0","0","0","0","coffee pot","0","3819","1","White_Screen.jpg","3","139","CoffeePot.jpg","3"
"082219","16:58:32","11","11","5.0.14.0","2","100","trial1","naming","0","0","0","0","weird fish thinig","0","8295","1","White_Screen.jpg","3","68","Stingray.jpg","3"
"082219","16:58:32","11","11","5.0.14.0","2","101","trial1","naming","0","0","0","0","cabbage","0","3513","1","White_Screen.jpg","3","145","Lettuce_GreenLeaf.jpg","3"
"082219","16:58:32","11","11","5.0.14.0","2","103","trial1","naming","0","0","0","0","aersol","0","5717","1","White_Screen.jpg","3","73","Bottle_CosmeticSpray.jpg","3"
"082219","16:58:32","11","11","5.0.14.0","2","104","trial1","naming","0","0","0","0","kitchen stuff","0","7086","1","White_Screen.jpg","3","38","Box_Cutlery.jpg","3"
"082219","16:58:32","11","11","5.0.14.0","2","105","trial1","naming","0","0","0","0","tube","0","3821","1","White_Screen.jpg","3","91","Tube_Paint.jpg","3"
"082219","16:58:32","11","11","5.0.14.0","2","106","trial1","naming","0","0","0","0","towel","0","3164","1","White_Screen.jpg","2","1","Blanket.jpg","2"
"082219","16:58:32","11","11","5.0.14.0","2","107","trial1","naming","0","0","0","0","unicorn statue","0","6571","1","White_Screen.jpg","3","46","Statue_Horse.jpg","3"
"082219","16:58:32","11","11","5.0.14.0","2","108","trial1","naming","0","0","0","0","frame thing ma","0","10000","1","White_Screen.jpg","2","142","SlideViewer.jpg","2"
"082219","16:58:32","11","11","5.0.14.0","2","109","trial1","naming","0","0","0","0","squid","0","5688","1","White_Screen.jpg","3","83","Squid_Pink.jpg","3"
"082219","16:58:32","11","11","5.0.14.0","2","110","trial1","naming","0","0","0","0","acorn","0","4857","1","White_Screen.jpg","2","132","Acorn.jpg","2"
"082219","16:58:32","11","11","5.0.14.0","2","111","trial1","naming","0","0","0","0","cheese grater","0","6989","1","White_Screen.jpg","3","8","Cheesegrater_Box.jpg","3"
"082219","16:58:32","11","11","5.0.14.0","2","112","trial1","naming","0","0","0","0","deck of cards","0","4143","1","White_Screen.jpg","3","54","Card_Deck.jpg","3"
"082219","16:58:32","11","11","5.0.14.0","2","113","trial1","naming","0","0","0","0","super juicer","0","5650","1","White_Screen.jpg","2","21","ProcessorFood_Modern.jpg","2"
"082219","16:58:32","11","11","5.0.14.0","2","114","trial1","naming","0","0","0","0","chopsticks","0","3505","1","White_Screen.jpg","2","149","Chopsticks.jpg","2"
"082219","16:58:32","11","11","5.0.14.0","2","115","trial1","naming","0","0","0","0","paddles","0","3888","1","White_Screen.jpg","3","61","Oars.jpg","3"
"082219","16:58:32","11","11","5.0.14.0","2","116","trial1","naming","0","0","0","0","lady soup","0","4750","1","White_Screen.jpg","3","25","CameoPortrait.jpg","3"
"082219","16:58:32","11","11","5.0.14.0","2","117","trial1","naming","0","0","0","0","spikey ball","0","4417","1","White_Screen.jpg","3","16","Toy_DogBall.jpg","3"
"082219","16:58:32","11","11","5.0.14.0","2","118","trial1","naming","0","0","0","0","christmas bell","0","5747","1","White_Screen.jpg","2","122","Bells_Christmas.jpg","2"
"082219","16:58:32","11","11","5.0.14.0","2","119","trial1","naming","0","0","0","0","floormat","0","3561","1","White_Screen.jpg","3","26","Mat_Car.jpg","3"
"082219","16:58:32","11","11","5.0.14.0","2","120","trial1","naming","0","0","0","0","spice grinder","0","5527","1","White_Screen.jpg","3","100","CoffeeGrinder.jpg","3"
"082219","16:58:32","11","11","5.0.14.0","2","121","trial1","naming","0","0","0","0","CPU","0","3466","1","White_Screen.jpg","3","66","Computer_CPU.jpg","3"
"082219","16:58:32","11","11","5.0.14.0","2","122","trial1","naming","0","0","0","0","hazardous","0","6189","1","White_Screen.jpg","3","104","RadioactiveContainer.jpg","3"
"082219","16:58:32","11","11","5.0.14.0","2","123","trial1","naming","0","0","0","0","stern worker doll dude","0","8293","1","White_Screen.jpg","3","121","Toy_FigurineEngineer.jpg","3"
"082219","16:58:32","11","11","5.0.14.0","2","124","trial1","naming","0","0","0","0","camel","0","2788","1","White_Screen.jpg","2","115","Camel_Dromedary.jpg","2"
"082219","16:58:32","11","11","5.0.14.0","2","125","trial1","naming","0","0","0","0","lock","0","3804","1","White_Screen.jpg","3","31","Lock_Combination.jpg","3"
"082219","16:58:32","11","11","5.0.14.0","2","126","trial1","naming","0","0","0","0","tupperware","0","4073","1","White_Screen.jpg","3","124","Container_Tupperware.jpg","3"
"082219","16:58:32","11","11","5.0.14.0","2","127","trial1","naming","0","0","0","0","oldschool car","0","4744","1","White_Screen.jpg","3","119","Car_Vintage.jpg","3"
"082219","16:58:32","11","11","5.0.14.0","2","128","trial1","naming","0","0","0","0","lots of fun over ther","0","5318","1","White_Screen.jpg","3","95","ShotGlassTray.jpg","3"
"082219","16:58:32","11","11","5.0.14.0","2","129","trial1","naming","0","0","0","0","spring things","0","10000","1","White_Screen.jpg","3","108","OvenElement.jpg","3"
"082219","16:58:32","11","11","5.0.14.0","2","130","trial1","naming","0","0","0","0","Enter Name","0","227","1","White_Screen.jpg","3","51","Chair_Barber.jpg","3"
"082219","16:58:32","11","11","5.0.14.0","2","131","trial1","naming","0","0","0","0","comb","0","4211","1","White_Screen.jpg","2","36","Comb.jpg","2"
"082219","16:58:32","11","11","5.0.14.0","2","132","trial1","naming","0","0","0","0","pail","0","3616","1","White_Screen.jpg","2","143","Can_MilkAntique.jpg","2"
"082219","16:58:32","11","11","5.0.14.0","2","133","trial1","naming","0","0","0","0","red thing","0","8857","1","White_Screen.jpg","3","110","Pillar.jpg","3"
"082219","16:58:32","11","11","5.0.14.0","2","134","trial1","naming","0","0","0","0","brocolo","0","3768","1","White_Screen.jpg","3","150","Broccoli.jpg","3"
"082219","16:58:32","11","11","5.0.14.0","2","135","trial1","naming","0","0","0","0","pickaxe","0","5172","1","White_Screen.jpg","2","20","Pickaxe.jpg","2"
"082219","16:58:32","11","11","5.0.14.0","2","136","trial1","naming","0","0","0","0","raddish","0","4471","1","White_Screen.jpg","3","123","Radish.jpg","3"
"082219","16:58:32","11","11","5.0.14.0","2","137","trial1","naming","0","0","0","0","binoculars","0","5496","1","White_Screen.jpg","5","120","Binoculars.jpg","5"
"082219","16:58:32","11","11","5.0.14.0","2","138","trial1","naming","0","0","0","0","wheel things","0","8811","1","White_Screen.jpg","3","10","BicyclePedal.jpg","3"
"082219","16:58:32","11","11","5.0.14.0","2","139","trial1","naming","0","0","0","0","Escarper","0","8728","1","White_Screen.jpg","3","43","DentalProbe.jpg","3"
"082219","16:58:32","11","11","5.0.14.0","2","140","trial1","naming","0","0","0","0","drying rack","0","5629","1","White_Screen.jpg","3","88","ClothesDryingRack.jpg","3"
"082219","16:58:32","11","11","5.0.14.0","2","141","trial1","naming","0","0","0","0","old person vehicle","0","4670","1","White_Screen.jpg","2","24","Walker_Blue.jpg","2"
"082219","16:58:32","11","11","5.0.14.0","2","142","trial1","naming","0","0","0","0","green and yel","0","10000","1","White_Screen.jpg","2","77","Stick_Stirring.jpg","2"
"082219","16:58:32","11","11","5.0.14.0","2","143","trial1","naming","0","0","0","0","mortar and pestle","0","8331","1","White_Screen.jpg","2","29","MortarPestle_WhiteMarble.jpg","2"
"082219","16:58:32","11","11","5.0.14.0","2","144","trial1","naming","0","0","0","0","purse","0","5629","1","White_Screen.jpg","3","40","Handbag.jpg","3"
"082219","16:58:32","11","11","5.0.14.0","2","145","trial1","naming","0","0","0","0","bald eagle","0","6626","1","White_Screen.jpg","3","79","Bird_Eagle.jpg","3"
"082219","16:58:32","11","11","5.0.14.0","2","146","trial1","naming","0","0","0","0","protractor","0","5064","1","White_Screen.jpg","2","17","DrawingCompass.jpg","2"
"082219","16:58:32","11","11","5.0.14.0","2","147","trial1","naming","0","0","0","0","race flags","0","4266","1","White_Screen.jpg","2","101","Flags_CheckeredRacing.jpg","2"
"082219","16:58:32","11","11","5.0.14.0","2","148","trial1","naming","0","0","0","0","planter","0","4251","1","White_Screen.jpg","2","78","Flower_Basket.jpg","2"
"082219","16:58:32","11","11","5.0.14.0","2","149","trial1","naming","0","0","0","0","award","0","4058","1","White_Screen.jpg","2","71","Trophy.jpg","2"
"082219","16:58:32","11","11","5.0.14.0","2","150","trial1","naming","0","0","0","0","man purse","0","5353","1","White_Screen.jpg","3","107","Briefcase_Leather.jpg","3"
"082219","16:58:32","11","11","5.0.14.0","2","151","trial1","naming","0","0","0","0","keyring","0","3629","1","White_Screen.jpg","3","14","Carabiner_Orange.jpg","3"
"082219","16:58:32","11","11","5.0.14.0","2","152","trial1","naming","0","0","0","0","disco ball","0","3768","1","White_Screen.jpg","3","13","Ball_Disco.jpg","3"
"082219","16:58:32","11","11","5.0.14.0","2","154","trial1","naming","0","0","0","0","keyring","0","6064","1","White_Screen.jpg","4","14","Carabiner_Orange.jpg","4"
"082219","16:58:32","11","11","5.0.14.0","2","155","trial1","naming","0","0","0","0","calculator","0","6783","1","White_Screen.jpg","2","135","Calculator.jpg","2"
"082219","16:58:32","11","11","5.0.14.0","2","156","trial1","naming","0","0","0","0","mona lisa","0","4688","1","White_Screen.jpg","3","60","MonaLisa.jpg","3"
"082219","16:58:32","11","11","5.0.14.0","2","157","trial1","naming","0","0","0","0","tupperware","0","4911","1","White_Screen.jpg","2","124","Container_Tupperware.jpg","2"
"082219","16:58:32","11","11","5.0.14.0","2","158","trial1","naming","0","0","0","0","lockboxes","0","5333","1","White_Screen.jpg","3","140","Mailbox_Community.jpg","3"
"082219","16:58:32","11","11","5.0.14.0","2","159","trial1","naming","0","0","0","0","gingerbread house","0","3987","1","White_Screen.jpg","2","7","House_CeramicGingerbread.jpg","2"
"082219","16:58:32","11","11","5.0.14.0","2","160","trial1","naming","0","0","0","0","havy dutye","0","8533","1","White_Screen.jpg","3","147","Tractor_Orange.jpg","3"
"082219","16:58:32","11","11","5.0.14.0","2","161","trial1","naming","0","0","0","0","cart wheel","0","4301","1","White_Screen.jpg","2","99","PulleyWooden.jpg","2"
"082219","16:58:32","11","11","5.0.14.0","2","162","trial1","naming","0","0","0","0","scraper","0","4569","1","White_Screen.jpg","3","116","IceScraper.jpg","3"
"082219","16:58:32","11","11","5.0.14.0","2","163","trial1","naming","0","0","0","0","Enter Name","0","10000","1","White_Screen.jpg","3","110","Pillar.jpg","3"
"082219","16:58:32","11","11","5.0.14.0","2","164","trial1","naming","0","0","0","0","protractor","0","5577","1","White_Screen.jpg","3","17","DrawingCompass.jpg","3"
"082219","16:58:32","11","11","5.0.14.0","2","165","trial1","naming","0","0","0","0","beeeer","0","4096","1","White_Screen.jpg","2","95","ShotGlassTray.jpg","2"
"082219","16:58:32","11","11","5.0.14.0","2","166","trial1","naming","0","0","0","0","ribbon","0","3315","1","White_Screen.jpg","3","5","GiftBow.jpg","3"
"082219","16:58:32","11","11","5.0.14.0","2","167","trial1","naming","0","0","0","0","sccraper","0","9012","1","White_Screen.jpg","3","43","DentalProbe.jpg","3"
"082219","16:58:32","11","11","5.0.14.0","2","168","trial1","naming","0","0","0","0","filter","0","3185","1","White_Screen.jpg","3","114","CoolingFan_Engine.jpg","3"
"082219","16:58:32","11","11","5.0.14.0","2","169","trial1","naming","0","0","0","0","green crayon","0","3467","1","White_Screen.jpg","3","80","Crayon_Green.jpg","3"
"082219","16:58:32","11","11","5.0.14.0","2","170","trial1","naming","0","0","0","0","jewelry box","0","4338","1","White_Screen.jpg","2","109","Box_Jewellery.jpg","2"
"082219","16:58:32","11","11","5.0.14.0","2","171","trial1","naming","0","0","0","0","magnifier","0","4657","1","White_Screen.jpg","4","74","Mirror_Handheld.jpg","4"
"082219","16:58:32","11","11","5.0.14.0","2","172","trial1","naming","0","0","0","0","record player","0","3332","1","White_Screen.jpg","3","30","RecordPlayer.jpg","3"
"082219","16:58:32","11","11","5.0.14.0","2","173","trial1","naming","0","0","0","0","cinnamon roll","0","5356","1","White_Screen.jpg","3","76","Cinnamonroll.jpg","3"
"082219","16:58:32","11","11","5.0.14.0","2","174","trial1","naming","0","0","0","0","exercise stuff","0","5508","1","White_Screen.jpg","2","35","Exercise_Stretch.jpg","2"
"082219","16:58:32","11","11","5.0.14.0","2","175","trial1","naming","0","0","0","0","micrscope","0","4325","1","White_Screen.jpg","2","106","Microscope.jpg","2"
"082219","16:58:32","11","11","5.0.14.0","2","176","trial1","naming","0","0","0","0","bird of noise","0","5366","1","White_Screen.jpg","3","92","Bird_Budgie.jpg","3"
"082219","16:58:32","11","11","5.0.14.0","2","177","trial1","naming","0","0","0","0","bed","0","4291","1","White_Screen.jpg","2","63","Bed_QueenSize.jpg","2"
"082219","16:58:32","11","11","5.0.14.0","2","178","trial1","naming","0","0","0","0","rock formation","0","3967","1","White_Screen.jpg","2","118","Inukshuk.jpg","2"
