date,time,group,subject,build,blocknum,trialnum,blockcode,trialcode,pretrialpause,posttrialpause,trialduration,trialtimeout,response,correct,latency,stimulusnumber1,stimulusitem1,stimulusonset1,stimulusnumber2,stimulusitem2,stimulusonset2
22420,15:14:50,32,32,5.0.14.0,2,1,trial1,naming,0,0,0,0,Purse,0,9768,1,White_Screen.jpg,64,40,Handbag.jpg,64
22420,15:14:50,32,32,5.0.14.0,2,2,trial1,naming,0,0,0,0,BroachEnter Name,0,10000,1,White_Screen.jpg,15,25,CameoPortrait.jpg,15
22420,15:14:50,32,32,5.0.14.0,2,3,trial1,naming,0,0,0,0,Cookie Jar,0,7381,1,White_Screen.jpg,13,136,Jar_Empty.jpg,13
22420,15:14:50,32,32,5.0.14.0,2,4,trial1,naming,0,0,0,0,Grater,0,8634,1,White_Screen.jpg,13,8,Cheesegrater_Box.jpg,13
22420,15:14:50,32,32,5.0.14.0,2,5,trial1,naming,0,0,0,0,Pen,0,5226,1,White_Screen.jpg,12,15,Pen_Ballpoint.jpg,12
22420,15:14:50,32,32,5.0.14.0,2,6,trial1,naming,0,0,0,0,Box,0,5887,1,White_Screen.jpg,13,85,Box_WoodenOpen.jpg,13
22420,15:14:50,32,32,5.0.14.0,2,7,trial1,naming,0,0,0,0,Piano,0,5326,1,White_Screen.jpg,13,111,Piano_Upright.jpg,13
22420,15:14:50,32,32,5.0.14.0,2,8,trial1,naming,0,0,0,0,DartEnter Name,0,4310,1,White_Screen.jpg,14,57,JoustingSpear.jpg,14
22420,15:14:50,32,32,5.0.14.0,2,9,trial1,naming,0,0,0,0,Camel,0,4973,1,White_Screen.jpg,13,115,Camel_Dromedary.jpg,13
22420,15:14:50,32,32,5.0.14.0,2,10,trial1,naming,0,0,0,0,Lollipop,0,6521,1,White_Screen.jpg,13,62,Lollipop_Grape.jpg,13
22420,15:14:50,32,32,5.0.14.0,2,11,trial1,naming,0,0,0,0,Bulb,0,4907,1,White_Screen.jpg,14,125,LightBulb_Blue.jpg,14
22420,15:14:50,32,32,5.0.14.0,2,12,trial1,naming,0,0,0,0,Rock Formation,0,6080,1,White_Screen.jpg,13,118,Inukshuk.jpg,13
22420,15:14:50,32,32,5.0.14.0,2,13,trial1,naming,0,0,0,0,Muffin Tin,0,5332,1,White_Screen.jpg,13,52,Tray_Muffin.jpg,13
22420,15:14:50,32,32,5.0.14.0,2,14,trial1,naming,0,0,0,0,Milk Bucket,0,7374,1,White_Screen.jpg,15,143,Can_MilkAntique.jpg,15
22420,15:14:50,32,32,5.0.14.0,2,15,trial1,naming,0,0,0,0,Microchip,0,6184,1,White_Screen.jpg,12,66,Computer_CPU.jpg,12
22420,15:14:50,32,32,5.0.14.0,2,16,trial1,naming,0,0,0,0,Hair Pick,0,5007,1,White_Screen.jpg,15,36,Comb.jpg,15
22420,15:14:50,32,32,5.0.14.0,2,17,trial1,naming,0,0,0,0,Scythe,0,4553,1,White_Screen.jpg,13,141,Scythe.jpg,13
22420,15:14:50,32,32,5.0.14.0,2,18,trial1,naming,0,0,0,0,Boot,0,4359,1,White_Screen.jpg,13,55,Boot_Rain.jpg,13
22420,15:14:50,32,32,5.0.14.0,2,19,trial1,naming,0,0,0,0,Pail,0,10000,1,White_Screen.jpg,13,134,Bucket_WoodenDark.jpg,13
22420,15:14:50,32,32,5.0.14.0,2,20,trial1,naming,0,0,0,0,Enter Name,0,30,1,White_Screen.jpg,13,58,Microwave.jpg,13
22420,15:14:50,32,32,5.0.14.0,2,21,trial1,naming,0,0,0,0,Car,0,4876,1,White_Screen.jpg,15,119,Car_Vintage.jpg,15
22420,15:14:50,32,32,5.0.14.0,2,22,trial1,naming,0,0,0,0,Shove,0,5369,1,White_Screen.jpg,13,4,Shovel_Sandbox.jpg,13
22420,15:14:50,32,32,5.0.14.0,2,23,trial1,naming,0,0,0,0,Necklace,0,5514,1,White_Screen.jpg,13,94,Necklace_Black.jpg,13
22420,15:14:50,32,32,5.0.14.0,2,24,trial1,naming,0,0,0,0,Stuffed Rabbit,0,5680,1,White_Screen.jpg,15,72,Toy_RabbitPlushie.jpg,15
22420,15:14:50,32,32,5.0.14.0,2,25,trial1,naming,0,0,0,0,Tupperware,0,4779,1,White_Screen.jpg,14,124,Container_Tupperware.jpg,14
22420,15:14:50,32,32,5.0.14.0,2,26,trial1,naming,0,0,0,0,Chopsticks,0,5598,1,White_Screen.jpg,14,149,Chopsticks.jpg,14
22420,15:14:50,32,32,5.0.14.0,2,27,trial1,naming,0,0,0,0,Catus,0,4372,1,White_Screen.jpg,15,48,Cactus.jpg,15
22420,15:14:50,32,32,5.0.14.0,2,28,trial1,naming,0,0,0,0,Speaker,0,4227,1,White_Screen.jpg,13,82,Speaker_Single.jpg,13
22420,15:14:50,32,32,5.0.14.0,2,29,trial1,naming,0,0,0,0,Juicer,0,5120,1,White_Screen.jpg,13,11,JuicerCitrus.jpg,13
22420,15:14:50,32,32,5.0.14.0,2,30,trial1,naming,0,0,0,0,hook,0,4408,1,White_Screen.jpg,15,84,Hook_Double.jpg,15
22420,15:14:50,32,32,5.0.14.0,2,31,trial1,naming,0,0,0,0,Acorn,0,4664,1,White_Screen.jpg,15,132,Acorn.jpg,15
22420,15:14:50,32,32,5.0.14.0,2,32,trial1,naming,0,0,0,0,clothes dryer,0,7129,1,White_Screen.jpg,13,88,ClothesDryingRack.jpg,13
22420,15:14:50,32,32,5.0.14.0,2,33,trial1,naming,0,0,0,0,flip phone,0,6460,1,White_Screen.jpg,15,65,Phone_Flip.jpg,15
22420,15:14:50,32,32,5.0.14.0,2,34,trial1,naming,0,0,0,0,barber chair,0,4891,1,White_Screen.jpg,13,51,Chair_Barber.jpg,13
22420,15:14:50,32,32,5.0.14.0,2,35,trial1,naming,0,0,0,0,bamboo plant,0,7099,1,White_Screen.jpg,13,9,Bamboo.jpg,13
22420,15:14:50,32,32,5.0.14.0,2,36,trial1,naming,0,0,0,0,gingerbread house,0,7109,1,White_Screen.jpg,13,7,House_CeramicGingerbread.jpg,13
22420,15:14:50,32,32,5.0.14.0,2,37,trial1,naming,0,0,0,0,broccoli,0,4551,1,White_Screen.jpg,13,150,Broccoli.jpg,13
22420,15:14:50,32,32,5.0.14.0,2,38,trial1,naming,0,0,0,0,cinnamon bun,0,6196,1,White_Screen.jpg,15,76,Cinnamonroll.jpg,15
22420,15:14:50,32,32,5.0.14.0,2,39,trial1,naming,0,0,0,0,exercise ma,0,10000,1,White_Screen.jpg,15,81,Exercise_Machine.jpg,15
22420,15:14:50,32,32,5.0.14.0,2,40,trial1,naming,0,0,0,0,chopper,0,6126,1,White_Screen.jpg,13,21,ProcessorFood_Modern.jpg,13
22420,15:14:50,32,32,5.0.14.0,2,41,trial1,naming,0,0,0,0,nail clip,0,9676,1,White_Screen.jpg,16,3,NailClipper.jpg,16
22420,15:14:50,32,32,5.0.14.0,2,42,trial1,naming,0,0,0,0,backspacebter Name,0,10000,1,White_Screen.jpg,12,70,ComputerKeyboard_Backspace.jpg,12
22420,15:14:50,32,32,5.0.14.0,2,43,trial1,naming,0,0,0,0,coffee pot,0,6529,1,White_Screen.jpg,14,139,CoffeePot.jpg,14
22420,15:14:50,32,32,5.0.14.0,2,44,trial1,naming,0,0,0,0,pick,0,5820,1,White_Screen.jpg,13,77,Stick_Stirring.jpg,13
22420,15:14:50,32,32,5.0.14.0,2,45,trial1,naming,0,0,0,0,baseball,0,6836,1,White_Screen.jpg,15,146,Ball_Baseball.jpg,15
22420,15:14:50,32,32,5.0.14.0,2,46,trial1,naming,0,0,0,0,purse,0,9685,1,White_Screen.jpg,13,103,Purse.jpg,13
22420,15:14:50,32,32,5.0.14.0,2,47,trial1,naming,0,0,0,0,squid,0,5241,1,White_Screen.jpg,15,112,Squid_Orange.jpg,15
22420,15:14:50,32,32,5.0.14.0,2,48,trial1,naming,0,0,0,0,nut,0,5416,1,White_Screen.jpg,14,130,Nuts_Walnut.jpg,14
22420,15:14:50,32,32,5.0.14.0,2,49,trial1,naming,0,0,0,0,blinds,0,5300,1,White_Screen.jpg,15,75,WindowBlinds.jpg,15
22420,15:14:50,32,32,5.0.14.0,2,50,trial1,naming,0,0,0,0,amp,0,5377,1,White_Screen.jpg,13,138,Amp.jpg,13
22420,15:14:50,32,32,5.0.14.0,2,52,trial1,naming,0,0,0,0,drill,0,4552,1,White_Screen.jpg,14,96,AngleGrinder.jpg,14
22420,15:14:50,32,32,5.0.14.0,2,53,trial1,naming,0,0,0,0,disco ball,0,5138,1,White_Screen.jpg,13,13,Ball_Disco.jpg,13
22420,15:14:50,32,32,5.0.14.0,2,54,trial1,naming,0,0,0,0,wheel,0,5255,1,White_Screen.jpg,13,99,PulleyWooden.jpg,13
22420,15:14:50,32,32,5.0.14.0,2,55,trial1,naming,0,0,0,0,projector,0,6533,1,White_Screen.jpg,13,142,SlideViewer.jpg,13
22420,15:14:50,32,32,5.0.14.0,2,56,trial1,naming,0,0,0,0,mona lisa,0,4855,1,White_Screen.jpg,12,60,MonaLisa.jpg,12
22420,15:14:50,32,32,5.0.14.0,2,57,trial1,naming,0,0,0,0,robot,0,3755,1,White_Screen.jpg,14,133,Toy_RobotTransformer.jpg,14
22420,15:14:50,32,32,5.0.14.0,2,58,trial1,naming,0,0,0,0,pail,0,7175,1,White_Screen.jpg,13,104,RadioactiveContainer.jpg,13
22420,15:14:50,32,32,5.0.14.0,2,59,trial1,naming,0,0,0,0,spray can,0,5770,1,White_Screen.jpg,14,73,Bottle_CosmeticSpray.jpg,14
22420,15:14:50,32,32,5.0.14.0,2,60,trial1,naming,0,0,0,0,filter,0,5054,1,White_Screen.jpg,13,114,CoolingFan_Engine.jpg,13
22420,15:14:50,32,32,5.0.14.0,2,61,trial1,naming,0,0,0,0,glasses,0,4098,1,White_Screen.jpg,14,131,Glasses_Reading.jpg,14
22420,15:14:50,32,32,5.0.14.0,2,62,trial1,naming,0,0,0,0,bells,0,3637,1,White_Screen.jpg,15,122,Bells_Christmas.jpg,15
22420,15:14:50,32,32,5.0.14.0,2,63,trial1,naming,0,0,0,0,statue,0,4988,1,White_Screen.jpg,13,148,Figurine_Ballerina.jpg,13
22420,15:14:50,32,32,5.0.14.0,2,64,trial1,naming,0,0,0,0,bow,0,3192,1,White_Screen.jpg,14,5,GiftBow.jpg,14
22420,15:14:50,32,32,5.0.14.0,2,65,trial1,naming,0,0,0,0,front loader,0,7545,1,White_Screen.jpg,14,147,Tractor_Orange.jpg,14
22420,15:14:50,32,32,5.0.14.0,2,66,trial1,naming,0,0,0,0,name tag,0,5731,1,White_Screen.jpg,14,117,Nametag.jpg,14
22420,15:14:50,32,32,5.0.14.0,2,67,trial1,naming,0,0,0,0,tulip,0,4170,1,White_Screen.jpg,15,49,Flower_Tulip.jpg,15
22420,15:14:50,32,32,5.0.14.0,2,68,trial1,naming,0,0,0,0,bathtub,0,4474,1,White_Screen.jpg,15,97,Bathtub.jpg,15
22420,15:14:50,32,32,5.0.14.0,2,69,trial1,naming,0,0,0,0,scoop,0,6695,1,White_Screen.jpg,13,32,CementFinisher.jpg,13
22420,15:14:50,32,32,5.0.14.0,2,70,trial1,naming,0,0,0,0,towel,0,3595,1,White_Screen.jpg,13,1,Blanket.jpg,13
22420,15:14:50,32,32,5.0.14.0,2,71,trial1,naming,0,0,0,0,beer glass flig,0,10000,1,White_Screen.jpg,13,95,ShotGlassTray.jpg,13
22420,15:14:50,32,32,5.0.14.0,2,72,trial1,naming,0,0,0,0,ball,0,4117,1,White_Screen.jpg,13,16,Toy_DogBall.jpg,13
22420,15:14:50,32,32,5.0.14.0,2,73,trial1,naming,0,0,0,0,radish,0,4164,1,White_Screen.jpg,15,123,Radish.jpg,15
22420,15:14:50,32,32,5.0.14.0,2,74,trial1,naming,0,0,0,0,skate,0,4694,1,White_Screen.jpg,14,68,Stingray.jpg,14
22420,15:14:50,32,32,5.0.14.0,2,75,trial1,naming,0,0,0,0,eight ball,0,5252,1,White_Screen.jpg,14,87,Ball_8.jpg,14
22420,15:14:50,32,32,5.0.14.0,2,76,trial1,naming,0,0,0,0,eye chart,0,4460,1,White_Screen.jpg,14,42,EyeChart.jpg,14
22420,15:14:50,32,32,5.0.14.0,2,77,trial1,naming,0,0,0,0,pick axe,0,5438,1,White_Screen.jpg,13,20,Pickaxe.jpg,13
22420,15:14:50,32,32,5.0.14.0,2,78,trial1,naming,0,0,0,0,pasta,0,4190,1,White_Screen.jpg,13,137,Bowl_Pasta.jpg,13
22420,15:14:50,32,32,5.0.14.0,2,79,trial1,naming,0,0,0,0,shed,0,4653,1,White_Screen.jpg,13,27,Shed.jpg,13
22420,15:14:50,32,32,5.0.14.0,2,80,trial1,naming,0,0,0,0,christmas ball,0,9920,1,White_Screen.jpg,13,90,Decoration_ChristmasRed.jpg,13
22420,15:14:50,32,32,5.0.14.0,2,81,trial1,naming,0,0,0,0,crown,0,4048,1,White_Screen.jpg,15,22,Crown.jpg,15
22420,15:14:50,32,32,5.0.14.0,2,82,trial1,naming,0,0,0,0,caliper,0,4325,1,White_Screen.jpg,14,14,Carabiner_Orange.jpg,14
22420,15:14:50,32,32,5.0.14.0,2,83,trial1,naming,0,0,0,0,walker,0,3919,1,White_Screen.jpg,15,24,Walker_Blue.jpg,15
22420,15:14:50,32,32,5.0.14.0,2,84,trial1,naming,0,0,0,0,lift,0,4013,1,White_Screen.jpg,13,89,CarJack.jpg,13
22420,15:14:50,32,32,5.0.14.0,2,85,trial1,naming,0,0,0,0,crayon,0,5146,1,White_Screen.jpg,15,80,Crayon_Green.jpg,15
22420,15:14:50,32,32,5.0.14.0,2,86,trial1,naming,0,0,0,0,planter,0,3840,1,White_Screen.jpg,16,78,Flower_Basket.jpg,16
22420,15:14:50,32,32,5.0.14.0,2,87,trial1,naming,0,0,0,0,cookie cutter,0,5049,1,White_Screen.jpg,13,33,CookieCutter_Bell.jpg,13
22420,15:14:50,32,32,5.0.14.0,2,88,trial1,naming,0,0,0,0,oars,0,3230,1,White_Screen.jpg,15,61,Oars.jpg,15
22420,15:14:50,32,32,5.0.14.0,2,89,trial1,naming,0,0,0,0,scraper,0,4835,1,White_Screen.jpg,14,116,IceScraper.jpg,14
22420,15:14:50,32,32,5.0.14.0,2,90,trial1,naming,0,0,0,0,lock,0,3348,1,White_Screen.jpg,15,31,Lock_Combination.jpg,15
22420,15:14:50,32,32,5.0.14.0,2,91,trial1,naming,0,0,0,0,exerciser,0,5910,1,White_Screen.jpg,13,35,Exercise_Stretch.jpg,13
22420,15:14:50,32,32,5.0.14.0,2,92,trial1,naming,0,0,0,0,squid,0,3423,1,White_Screen.jpg,13,83,Squid_Pink.jpg,13
22420,15:14:50,32,32,5.0.14.0,2,93,trial1,naming,0,0,0,0,flour,0,3325,1,White_Screen.jpg,13,127,Bowl_Flour.jpg,13
22420,15:14:50,32,32,5.0.14.0,2,94,trial1,naming,0,0,0,0,capers,0,3370,1,White_Screen.jpg,13,50,Jar_Capers.jpg,13
22420,15:14:50,32,32,5.0.14.0,2,95,trial1,naming,0,0,0,0,sticker machine,0,7912,1,White_Screen.jpg,14,105,Pricegun.jpg,14
22420,15:14:50,32,32,5.0.14.0,2,96,trial1,naming,0,0,0,0,candy,0,3061,1,White_Screen.jpg,15,39,Candy_Chocolate.jpg,15
22420,15:14:50,32,32,5.0.14.0,2,97,trial1,naming,0,0,0,0,magnifying glass,0,6206,1,White_Screen.jpg,14,74,Mirror_Handheld.jpg,14
22420,15:14:50,32,32,5.0.14.0,2,98,trial1,naming,0,0,0,0,morter and pestle,0,5474,1,White_Screen.jpg,13,29,MortarPestle_WhiteMarble.jpg,13
22420,15:14:50,32,32,5.0.14.0,2,99,trial1,naming,0,0,0,0,floor mats,0,3757,1,White_Screen.jpg,13,26,Mat_Car.jpg,13
22420,15:14:50,32,32,5.0.14.0,2,100,trial1,naming,0,0,0,0,butternut squash,0,8243,1,White_Screen.jpg,14,47,Squash_Butternut.jpg,14
22420,15:14:50,32,32,5.0.14.0,2,101,trial1,naming,0,0,0,0,microscope,0,5325,1,White_Screen.jpg,14,106,Microscope.jpg,14
22420,15:14:50,32,32,5.0.14.0,2,103,trial1,naming,0,0,0,0,lockers,0,3333,1,White_Screen.jpg,11,140,Mailbox_Community.jpg,11
22420,15:14:50,32,32,5.0.14.0,2,104,trial1,naming,0,0,0,0,award,0,2803,1,White_Screen.jpg,13,71,Trophy.jpg,13
22420,15:14:50,32,32,5.0.14.0,2,105,trial1,naming,0,0,0,0,bonoculars,0,5069,1,White_Screen.jpg,13,120,Binoculars.jpg,13
22420,15:14:50,32,32,5.0.14.0,2,106,trial1,naming,0,0,0,0,tube,0,3286,1,White_Screen.jpg,14,91,Tube_Paint.jpg,14
22420,15:14:50,32,32,5.0.14.0,2,107,trial1,naming,0,0,0,0,pasta,0,3053,1,White_Screen.jpg,13,23,Pasta_Penne.jpg,13
22420,15:14:50,32,32,5.0.14.0,2,108,trial1,naming,0,0,0,0,briefcase,0,4701,1,White_Screen.jpg,15,107,Briefcase_Leather.jpg,15
22420,15:14:50,32,32,5.0.14.0,2,109,trial1,naming,0,0,0,0,bed,0,2786,1,White_Screen.jpg,13,63,Bed_QueenSize.jpg,13
22420,15:14:50,32,32,5.0.14.0,2,110,trial1,naming,0,0,0,0,cutlery,0,5072,1,White_Screen.jpg,15,38,Box_Cutlery.jpg,15
22420,15:14:50,32,32,5.0.14.0,2,111,trial1,naming,0,0,0,0,eagle,0,2467,1,White_Screen.jpg,14,79,Bird_Eagle.jpg,14
22420,15:14:50,32,32,5.0.14.0,2,112,trial1,naming,0,0,0,0,arrow,0,5625,1,White_Screen.jpg,15,41,Spear.jpg,15
22420,15:14:50,32,32,5.0.14.0,2,113,trial1,naming,0,0,0,0,glass,0,2943,1,White_Screen.jpg,14,86,Glass_Wine.jpg,14
22420,15:14:50,32,32,5.0.14.0,2,114,trial1,naming,0,0,0,0,grinder,0,3507,1,White_Screen.jpg,13,100,CoffeeGrinder.jpg,13
22420,15:14:50,32,32,5.0.14.0,2,115,trial1,naming,0,0,0,0,lettuce,0,4541,1,White_Screen.jpg,15,145,Lettuce_GreenLeaf.jpg,15
22420,15:14:50,32,32,5.0.14.0,2,116,trial1,naming,0,0,0,0,dirt,0,3885,1,White_Screen.jpg,15,12,Sand.jpg,15
22420,15:14:50,32,32,5.0.14.0,2,117,trial1,naming,0,0,0,0,statue,0,2736,1,White_Screen.jpg,13,46,Statue_Horse.jpg,13
22420,15:14:50,32,32,5.0.14.0,2,118,trial1,naming,0,0,0,0,duck,0,3323,1,White_Screen.jpg,13,19,Bird_Duck.jpg,13
22420,15:14:50,32,32,5.0.14.0,2,119,trial1,naming,0,0,0,0,wire,0,3566,1,White_Screen.jpg,13,108,OvenElement.jpg,13
22420,15:14:50,32,32,5.0.14.0,2,120,trial1,naming,0,0,0,0,cards,0,5092,1,White_Screen.jpg,16,54,Card_Deck.jpg,16
22420,15:14:50,32,32,5.0.14.0,2,121,trial1,naming,0,0,0,0,paper towels,0,3876,1,White_Screen.jpg,15,128,PaperTowel_Brown.jpg,15
22420,15:14:50,32,32,5.0.14.0,2,122,trial1,naming,0,0,0,0,pliers,0,6405,1,White_Screen.jpg,13,37,Pliers_SlipJoint.jpg,13
22420,15:14:50,32,32,5.0.14.0,2,123,trial1,naming,0,0,0,0,dart,0,2656,1,White_Screen.jpg,13,2,Dart.jpg,13
22420,15:14:50,32,32,5.0.14.0,2,124,trial1,naming,0,0,0,0,flamingo,0,4952,1,White_Screen.jpg,14,93,Flamingo_Real.jpg,14
22420,15:14:50,32,32,5.0.14.0,2,125,trial1,naming,0,0,0,0,pedals,0,4009,1,White_Screen.jpg,13,10,BicyclePedal.jpg,13
22420,15:14:50,32,32,5.0.14.0,2,126,trial1,naming,0,0,0,0,worker,0,3758,1,White_Screen.jpg,15,121,Toy_FigurineEngineer.jpg,15
22420,15:14:50,32,32,5.0.14.0,2,127,trial1,naming,0,0,0,0,chalk board,0,5658,1,White_Screen.jpg,13,34,Blackboard.jpg,13
22420,15:14:50,32,32,5.0.14.0,2,128,trial1,naming,0,0,0,0,ski poles,0,4991,1,White_Screen.jpg,12,129,SkiPoles.jpg,12
22420,15:14:50,32,32,5.0.14.0,2,129,trial1,naming,0,0,0,0,calculator,0,3628,1,White_Screen.jpg,14,135,Calculator.jpg,14
22420,15:14:50,32,32,5.0.14.0,2,130,trial1,naming,0,0,0,0,keys,0,2661,1,White_Screen.jpg,12,69,Key_Car.jpg,12
22420,15:14:50,32,32,5.0.14.0,2,131,trial1,naming,0,0,0,0,mixer,0,5442,1,White_Screen.jpg,16,126,Beater_Electric.jpg,16
22420,15:14:50,32,32,5.0.14.0,2,132,trial1,naming,0,0,0,0,floor tile,0,5551,1,White_Screen.jpg,12,144,FloorTile.jpg,12
22420,15:14:50,32,32,5.0.14.0,2,133,trial1,naming,0,0,0,0,curler,0,4023,1,White_Screen.jpg,13,102,HairCurler.jpg,13
22420,15:14:50,32,32,5.0.14.0,2,134,trial1,naming,0,0,0,0,bus stop,0,3490,1,White_Screen.jpg,13,53,BusStop.jpg,13
22420,15:14:50,32,32,5.0.14.0,2,135,trial1,naming,0,0,0,0,sandwich,0,3000,1,White_Screen.jpg,13,59,Sandwich_Ham.jpg,13
22420,15:14:50,32,32,5.0.14.0,2,136,trial1,naming,0,0,0,0,table,0,2472,1,White_Screen.jpg,15,44,Table_AntiqueWooden.jpg,15
22420,15:14:50,32,32,5.0.14.0,2,137,trial1,naming,0,0,0,0,sign,0,4047,1,White_Screen.jpg,13,98,Sign_OneWay.jpg,13
22420,15:14:50,32,32,5.0.14.0,2,138,trial1,naming,0,0,0,0,selfie stick,0,5666,1,White_Screen.jpg,13,64,SelfieStick.jpg,13
22420,15:14:50,32,32,5.0.14.0,2,139,trial1,naming,0,0,0,0,wistle,0,3069,1,White_Screen.jpg,14,67,Clave.jpg,14
22420,15:14:50,32,32,5.0.14.0,2,140,trial1,naming,0,0,0,0,checkered flags,0,8996,1,White_Screen.jpg,13,101,Flags_CheckeredRacing.jpg,13
22420,15:14:50,32,32,5.0.14.0,2,141,trial1,naming,0,0,0,0,christmas stocking,0,5464,1,White_Screen.jpg,12,28,StockingChristmas.jpg,12
22420,15:14:50,32,32,5.0.14.0,2,142,trial1,naming,0,0,0,0,pick,0,3785,1,White_Screen.jpg,14,43,DentalProbe.jpg,14
22420,15:14:50,32,32,5.0.14.0,2,143,trial1,naming,0,0,0,0,projector,0,4069,1,White_Screen.jpg,15,17,DrawingCompass.jpg,15
22420,15:14:50,32,32,5.0.14.0,2,144,trial1,naming,0,0,0,0,record player,0,5017,1,White_Screen.jpg,15,30,RecordPlayer.jpg,15
22420,15:14:50,32,32,5.0.14.0,2,145,trial1,naming,0,0,0,0,tail light,0,4141,1,White_Screen.jpg,13,113,TailLight.jpg,13
22420,15:14:50,32,32,5.0.14.0,2,146,trial1,naming,0,0,0,0,copier,0,2830,1,White_Screen.jpg,13,18,Photocopier.jpg,13
22420,15:14:50,32,32,5.0.14.0,2,147,trial1,naming,0,0,0,0,kids table,0,4088,1,White_Screen.jpg,14,56,Toy_TableSet.jpg,14
22420,15:14:50,32,32,5.0.14.0,2,148,trial1,naming,0,0,0,0,bos,0,10000,1,White_Screen.jpg,13,109,Box_Jewellery.jpg,13
22420,15:14:50,32,32,5.0.14.0,2,149,trial1,naming,0,0,0,0,outhouse,0,6299,1,White_Screen.jpg,14,6,PortaPotty.jpg,14
22420,15:14:50,32,32,5.0.14.0,2,150,trial1,naming,0,0,0,0,pole,0,4874,1,White_Screen.jpg,12,110,Pillar.jpg,12
22420,15:14:50,32,32,5.0.14.0,2,151,trial1,naming,0,0,0,0,bobcat,0,3158,1,White_Screen.jpg,13,45,Lynx.jpg,13
22420,15:14:50,32,32,5.0.14.0,2,152,trial1,naming,0,0,0,0,bird,0,2897,1,White_Screen.jpg,14,92,Bird_Budgie.jpg,14
22420,15:14:50,32,32,5.0.14.0,2,154,trial1,naming,0,0,0,0,capers,0,2569,1,White_Screen.jpg,13,50,Jar_Capers.jpg,13
22420,15:14:50,32,32,5.0.14.0,2,155,trial1,naming,0,0,0,0,pick,0,3170,1,White_Screen.jpg,16,36,Comb.jpg,16
22420,15:14:50,32,32,5.0.14.0,2,156,trial1,naming,0,0,0,0,whistle,0,3576,1,White_Screen.jpg,14,67,Clave.jpg,14
22420,15:14:50,32,32,5.0.14.0,2,157,trial1,naming,0,0,0,0,glass,0,2512,1,White_Screen.jpg,14,86,Glass_Wine.jpg,14
22420,15:14:50,32,32,5.0.14.0,2,158,trial1,naming,0,0,0,0,crown,0,2547,1,White_Screen.jpg,15,22,Crown.jpg,15
22420,15:14:50,32,32,5.0.14.0,2,159,trial1,naming,0,0,0,0,floor tile,0,4077,1,White_Screen.jpg,17,144,FloorTile.jpg,17
22420,15:14:50,32,32,5.0.14.0,2,160,trial1,naming,0,0,0,0,flour,0,2528,1,White_Screen.jpg,13,127,Bowl_Flour.jpg,13
22420,15:14:50,32,32,5.0.14.0,2,161,trial1,naming,0,0,0,0,sign,0,3677,1,White_Screen.jpg,14,98,Sign_OneWay.jpg,14
22420,15:14:50,32,32,5.0.14.0,2,162,trial1,naming,0,0,0,0,bamboo plant,0,4222,1,White_Screen.jpg,14,9,Bamboo.jpg,14
22420,15:14:50,32,32,5.0.14.0,2,163,trial1,naming,0,0,0,0,muffin tin,0,4299,1,White_Screen.jpg,16,52,Tray_Muffin.jpg,16
22420,15:14:50,32,32,5.0.14.0,2,164,trial1,naming,0,0,0,0,slider projector,0,5193,1,White_Screen.jpg,17,142,SlideViewer.jpg,17
22420,15:14:50,32,32,5.0.14.0,2,165,trial1,naming,0,0,0,0,acorn,0,2388,1,White_Screen.jpg,15,132,Acorn.jpg,15
22420,15:14:50,32,32,5.0.14.0,2,166,trial1,naming,0,0,0,0,eagle,0,2778,1,White_Screen.jpg,13,79,Bird_Eagle.jpg,13
22420,15:14:50,32,32,5.0.14.0,2,167,trial1,naming,0,0,0,0,floor mats,0,3616,1,White_Screen.jpg,14,26,Mat_Car.jpg,14
22420,15:14:50,32,32,5.0.14.0,2,168,trial1,naming,0,0,0,0,microwave,0,4302,1,White_Screen.jpg,13,58,Microwave.jpg,13
22420,15:14:50,32,32,5.0.14.0,2,169,trial1,naming,0,0,0,0,walker,0,3747,1,White_Screen.jpg,17,24,Walker_Blue.jpg,17
22420,15:14:50,32,32,5.0.14.0,2,170,trial1,naming,0,0,0,0,box,0,3589,1,White_Screen.jpg,13,109,Box_Jewellery.jpg,13
22420,15:14:50,32,32,5.0.14.0,2,171,trial1,naming,0,0,0,0,purse,0,3091,1,White_Screen.jpg,14,103,Purse.jpg,14
22420,15:14:50,32,32,5.0.14.0,2,172,trial1,naming,0,0,0,0,flip phone,0,4970,1,White_Screen.jpg,14,65,Phone_Flip.jpg,14
22420,15:14:50,32,32,5.0.14.0,2,173,trial1,naming,0,0,0,0,pasta,0,4217,1,White_Screen.jpg,14,23,Pasta_Penne.jpg,14
22420,15:14:50,32,32,5.0.14.0,2,174,trial1,naming,0,0,0,0,copier,0,4222,1,White_Screen.jpg,15,18,Photocopier.jpg,15
22420,15:14:50,32,32,5.0.14.0,2,175,trial1,naming,0,0,0,0,eight ball,0,4524,1,White_Screen.jpg,15,87,Ball_8.jpg,15
22420,15:14:50,32,32,5.0.14.0,2,176,trial1,naming,0,0,0,0,oscar,0,2756,1,White_Screen.jpg,14,71,Trophy.jpg,14
22420,15:14:50,32,32,5.0.14.0,2,177,trial1,naming,0,0,0,0,name tab,0,3799,1,White_Screen.jpg,14,117,Nametag.jpg,14
22420,15:14:50,32,32,5.0.14.0,2,178,trial1,naming,0,0,0,0,mixer,0,3152,1,White_Screen.jpg,14,126,Beater_Electric.jpg,14
22420,15:14:50,32,32,5.0.14.0,2,179,trial1,naming,0,0,0,0,broccoli,0,3245,1,White_Screen.jpg,14,150,Broccoli.jpg,14
22420,15:14:50,32,32,5.0.14.0,2,180,trial1,naming,0,0,0,0,shed,0,2544,1,White_Screen.jpg,15,27,Shed.jpg,15
22420,15:14:50,32,32,5.0.14.0,2,181,trial1,naming,0,0,0,0,milk pail,0,3912,1,White_Screen.jpg,13,143,Can_MilkAntique.jpg,13
22420,15:14:50,32,32,5.0.14.0,2,182,trial1,naming,0,0,0,0,candy,0,5169,1,White_Screen.jpg,17,39,Candy_Chocolate.jpg,17
22420,15:14:50,32,32,5.0.14.0,2,183,trial1,naming,0,0,0,0,flamigo,0,3259,1,White_Screen.jpg,14,93,Flamingo_Real.jpg,14
22420,15:14:50,32,32,5.0.14.0,2,184,trial1,naming,0,0,0,0,pick,0,2827,1,White_Screen.jpg,15,43,DentalProbe.jpg,15
22420,15:14:50,32,32,5.0.14.0,2,185,trial1,naming,0,0,0,0,key,0,4833,1,White_Screen.jpg,14,69,Key_Car.jpg,14
22420,15:14:50,32,32,5.0.14.0,2,186,trial1,naming,0,0,0,0,exerciser,0,5004,1,White_Screen.jpg,14,35,Exercise_Stretch.jpg,14
22420,15:14:50,32,32,5.0.14.0,2,187,trial1,naming,0,0,0,0,speaker,0,3663,1,White_Screen.jpg,13,82,Speaker_Single.jpg,13
22420,15:14:50,32,32,5.0.14.0,2,188,trial1,naming,0,0,0,0,broach,0,3407,1,White_Screen.jpg,13,25,CameoPortrait.jpg,13
22420,15:14:50,32,32,5.0.14.0,2,189,trial1,naming,0,0,0,0,microchip,0,3845,1,White_Screen.jpg,13,66,Computer_CPU.jpg,13
22420,15:14:50,32,32,5.0.14.0,2,190,trial1,naming,0,0,0,0,coffee pot,0,3851,1,White_Screen.jpg,14,139,CoffeePot.jpg,14
22420,15:14:50,32,32,5.0.14.0,2,191,trial1,naming,0,0,0,0,exercise machine,0,4497,1,White_Screen.jpg,14,81,Exercise_Machine.jpg,14
22420,15:14:50,32,32,5.0.14.0,2,192,trial1,naming,0,0,0,0,papertowels,0,3930,1,White_Screen.jpg,16,128,PaperTowel_Brown.jpg,16
22420,15:14:50,32,32,5.0.14.0,2,193,trial1,naming,0,0,0,0,bathtub,0,3516,1,White_Screen.jpg,15,97,Bathtub.jpg,15
22420,15:14:50,32,32,5.0.14.0,2,194,trial1,naming,0,0,0,0,chrismas bells,0,4049,1,White_Screen.jpg,15,122,Bells_Christmas.jpg,15
22420,15:14:50,32,32,5.0.14.0,2,195,trial1,naming,0,0,0,0,eye chart,0,3816,1,White_Screen.jpg,15,42,EyeChart.jpg,15
22420,15:14:50,32,32,5.0.14.0,2,196,trial1,naming,0,0,0,0,amp,0,2348,1,White_Screen.jpg,14,138,Amp.jpg,14
22420,15:14:50,32,32,5.0.14.0,2,197,trial1,naming,0,0,0,0,ticket place,0,10000,1,White_Screen.jpg,17,105,Pricegun.jpg,17
22420,15:14:50,32,32,5.0.14.0,2,198,trial1,naming,0,0,0,0,rEnter Name,0,291,1,White_Screen.jpg,14,59,Sandwich_Ham.jpg,14
22420,15:14:50,32,32,5.0.14.0,2,199,trial1,naming,0,0,0,0,pliers,0,5457,1,White_Screen.jpg,14,37,Pliers_SlipJoint.jpg,14
22420,15:14:50,32,32,5.0.14.0,2,200,trial1,naming,0,0,0,0,duck,0,2502,1,White_Screen.jpg,15,19,Bird_Duck.jpg,15
22420,15:14:50,32,32,5.0.14.0,2,201,trial1,naming,0,0,0,0,pasta,0,3606,1,White_Screen.jpg,14,137,Bowl_Pasta.jpg,14
22420,15:14:50,32,32,5.0.14.0,2,202,trial1,naming,0,0,0,0,checkered flag,0,4051,1,White_Screen.jpg,14,101,Flags_CheckeredRacing.jpg,14
22420,15:14:50,32,32,5.0.14.0,2,203,trial1,naming,0,0,0,0,front loader,0,4004,1,White_Screen.jpg,15,147,Tractor_Orange.jpg,15
22420,15:14:50,32,32,5.0.14.0,3,1,demographics_block,gender,0,0,0,0,Female,1,16111,0,0,0,0,0,0
22420,15:14:50,32,32,5.0.14.0,3,1,demographics_block,age,0,0,0,0,46,1,16111,0,0,0,0,0,0
22420,15:14:50,32,32,5.0.14.0,3,1,demographics_block,education,0,0,0,0,16,1,16111,0,0,0,0,0,0
22420,15:14:50,32,32,5.0.14.0,3,2,demographics_block,left_right_handed,0,0,0,0,Left,1,7228,0,0,0,0,0,0
22420,15:14:50,32,32,5.0.14.0,3,2,demographics_block,raceoption1,0,0,0,0,0,1,7228,0,0,0,0,0,0
22420,15:14:50,32,32,5.0.14.0,3,2,demographics_block,raceoption2,0,0,0,0,,1,7228,0,0,0,0,0,0
22420,15:14:50,32,32,5.0.14.0,3,2,demographics_block,raceoption3,0,0,0,0,,1,7228,0,0,0,0,0,0
22420,15:14:50,32,32,5.0.14.0,3,2,demographics_block,raceoption4,0,0,0,0,,1,7228,0,0,0,0,0,0
22420,15:14:50,32,32,5.0.14.0,3,2,demographics_block,raceoption5,0,0,0,0,,1,7228,0,0,0,0,0,0
22420,15:14:50,32,32,5.0.14.0,3,2,demographics_block,raceoption6,0,0,0,0,,1,7228,0,0,0,0,0,0
22420,15:14:50,32,32,5.0.14.0,3,2,demographics_block,raceoption7,0,0,0,0,,1,7228,0,0,0,0,0,0
22420,15:14:50,32,32,5.0.14.0,3,2,demographics_block,raceoption8,0,0,0,0,,1,7228,0,0,0,0,0,0
22420,15:14:50,32,32,5.0.14.0,3,2,demographics_block,raceoption9,0,0,0,0,,1,7228,0,0,0,0,0,0
22420,15:14:50,32,32,5.0.14.0,3,2,demographics_block,raceother,0,0,0,0,,1,7228,0,0,0,0,0,0
22420,15:14:50,32,32,5.0.14.0,3,2,demographics_block,raceother,0,0,0,0,,1,7228,0,0,0,0,0,0
22420,15:14:50,32,32,5.0.14.0,3,2,demographics_block,english_language,0,0,0,0,Yes,1,7228,0,0,0,0,0,0
22420,15:14:50,32,32,5.0.14.0,3,2,demographics_block,english_languageother,0,0,0,0,,1,7228,0,0,0,0,0,0
22420,15:14:50,32,32,5.0.14.0,3,3,demographics_block,eyesight,0,0,0,0,Yes,1,4762,0,0,0,0,0,0
22420,15:14:50,32,32,5.0.14.0,3,3,demographics_block,colorblind,0,0,0,0,No,1,4762,0,0,0,0,0,0
22420,15:14:50,32,32,5.0.14.0,4,1,worker_id_block,worker_id_textbox,0,0,0,0,A38USYKE9P7Z9O,1,32315,0,0,0,0,0,0
22420,14:22:01,33,33,5.0.14.0,2,1,trial1,naming,0,0,0,0,bath tub,0,4270,1,White_Screen.jpg,85,97,Bathtub.jpg,85
22420,14:22:01,33,33,5.0.14.0,2,2,trial1,naming,0,0,0,0,pasta,0,2553,1,White_Screen.jpg,9,23,Pasta_Penne.jpg,9
22420,14:22:01,33,33,5.0.14.0,2,3,trial1,naming,0,0,0,0,trophy,0,4286,1,White_Screen.jpg,3,71,Trophy.jpg,3
22420,14:22:01,33,33,5.0.14.0,2,4,trial1,naming,0,0,0,0,bag,0,1891,1,White_Screen.jpg,-1,107,Briefcase_Leather.jpg,-1
22420,14:22:01,33,33,5.0.14.0,2,5,trial1,naming,0,0,0,0,game board,0,5591,1,White_Screen.jpg,5,66,Computer_CPU.jpg,5
22420,14:22:01,33,33,5.0.14.0,2,6,trial1,naming,0,0,0,0,flour,0,3883,1,White_Screen.jpg,11,127,Bowl_Flour.jpg,11
22420,14:22:01,33,33,5.0.14.0,2,7,trial1,naming,0,0,0,0,badge,0,4669,1,White_Screen.jpg,0,117,Nametag.jpg,0
22420,14:22:01,33,33,5.0.14.0,2,8,trial1,naming,0,0,0,0,broccoli,0,2743,1,White_Screen.jpg,6,150,Broccoli.jpg,6
22420,14:22:01,33,33,5.0.14.0,2,9,trial1,naming,0,0,0,0,squid,0,3703,1,White_Screen.jpg,5,112,Squid_Orange.jpg,5
22420,14:22:01,33,33,5.0.14.0,2,10,trial1,naming,0,0,0,0,jack,0,3093,1,White_Screen.jpg,5,89,CarJack.jpg,5
22420,14:22:01,33,33,5.0.14.0,2,11,trial1,naming,0,0,0,0,disco ball,0,3752,1,White_Screen.jpg,11,13,Ball_Disco.jpg,11
22420,14:22:01,33,33,5.0.14.0,2,12,trial1,naming,0,0,0,0,utensile set,0,5130,1,White_Screen.jpg,5,38,Box_Cutlery.jpg,5
22420,14:22:01,33,33,5.0.14.0,2,13,trial1,naming,0,0,0,0,ball,0,2818,1,White_Screen.jpg,0,16,Toy_DogBall.jpg,0
22420,14:22:01,33,33,5.0.14.0,2,14,trial1,naming,0,0,0,0,lolipop,0,3245,1,White_Screen.jpg,5,62,Lollipop_Grape.jpg,5
22420,14:22:01,33,33,5.0.14.0,2,15,trial1,naming,0,0,0,0,bag,0,2202,1,White_Screen.jpg,5,103,Purse.jpg,5
22420,14:22:01,33,33,5.0.14.0,2,16,trial1,naming,0,0,0,0,deck of cards,0,4664,1,White_Screen.jpg,5,54,Card_Deck.jpg,5
22420,14:22:01,33,33,5.0.14.0,2,17,trial1,naming,0,0,0,0,walker,0,2463,1,White_Screen.jpg,0,24,Walker_Blue.jpg,0
22420,14:22:01,33,33,5.0.14.0,2,18,trial1,naming,0,0,0,0,container,0,3394,1,White_Screen.jpg,6,124,Container_Tupperware.jpg,6
22420,14:22:01,33,33,5.0.14.0,2,19,trial1,naming,0,0,0,0,barrel,0,2817,1,White_Screen.jpg,0,104,RadioactiveContainer.jpg,0
22420,14:22:01,33,33,5.0.14.0,2,20,trial1,naming,0,0,0,0,spike,0,3156,1,White_Screen.jpg,0,57,JoustingSpear.jpg,0
22420,14:22:01,33,33,5.0.14.0,2,21,trial1,naming,0,0,0,0,box,0,1919,1,White_Screen.jpg,0,109,Box_Jewellery.jpg,0
22420,14:22:01,33,33,5.0.14.0,2,22,trial1,naming,0,0,0,0,key,0,2274,1,White_Screen.jpg,5,69,Key_Car.jpg,5
22420,14:22:01,33,33,5.0.14.0,2,23,trial1,naming,0,0,0,0,dental tool,0,5522,1,White_Screen.jpg,3,43,DentalProbe.jpg,3
22420,14:22:01,33,33,5.0.14.0,2,24,trial1,naming,0,0,0,0,tea set,0,4924,1,White_Screen.jpg,0,56,Toy_TableSet.jpg,0
22420,14:22:01,33,33,5.0.14.0,2,25,trial1,naming,0,0,0,0,paddle,0,3186,1,White_Screen.jpg,8,61,Oars.jpg,8
22420,14:22:01,33,33,5.0.14.0,2,26,trial1,naming,0,0,0,0,drying mat,0,4505,1,White_Screen.jpg,6,88,ClothesDryingRack.jpg,6
22420,14:22:01,33,33,5.0.14.0,2,27,trial1,naming,0,0,0,0,curler,0,2484,1,White_Screen.jpg,1,102,HairCurler.jpg,1
22420,14:22:01,33,33,5.0.14.0,2,28,trial1,naming,0,0,0,0,flower basket,0,5507,1,White_Screen.jpg,6,78,Flower_Basket.jpg,6
22420,14:22:01,33,33,5.0.14.0,2,29,trial1,naming,0,0,0,0,rain boot,0,3889,1,White_Screen.jpg,6,55,Boot_Rain.jpg,6
22420,14:22:01,33,33,5.0.14.0,2,30,trial1,naming,0,0,0,0,shovel,0,2639,1,White_Screen.jpg,3,4,Shovel_Sandbox.jpg,3
22420,14:22:01,33,33,5.0.14.0,2,31,trial1,naming,0,0,0,0,figurine,0,3839,1,White_Screen.jpg,7,46,Statue_Horse.jpg,7
22420,14:22:01,33,33,5.0.14.0,2,32,trial1,naming,0,0,0,0,ray,0,6246,1,White_Screen.jpg,6,68,Stingray.jpg,6
22420,14:22:01,33,33,5.0.14.0,2,33,trial1,naming,0,0,0,0,stretcher,0,4829,1,White_Screen.jpg,8,35,Exercise_Stretch.jpg,8
22420,14:22:01,33,33,5.0.14.0,2,34,trial1,naming,0,0,0,0,pen,0,1903,1,White_Screen.jpg,4,15,Pen_Ballpoint.jpg,4
22420,14:22:01,33,33,5.0.14.0,2,35,trial1,naming,0,0,0,0,table,0,2313,1,White_Screen.jpg,5,44,Table_AntiqueWooden.jpg,5
22420,14:22:01,33,33,5.0.14.0,2,36,trial1,naming,0,0,0,0,flamingo,0,2470,1,White_Screen.jpg,-2,93,Flamingo_Real.jpg,-2
22420,14:22:01,33,33,5.0.14.0,2,37,trial1,naming,0,0,0,0,coffee pot,0,3088,1,White_Screen.jpg,-1,139,CoffeePot.jpg,-1
22420,14:22:01,33,33,5.0.14.0,2,38,trial1,naming,0,0,0,0,purse,0,3481,1,White_Screen.jpg,0,40,Handbag.jpg,0
22420,14:22:01,33,33,5.0.14.0,2,39,trial1,naming,0,0,0,0,crayon,0,3027,1,White_Screen.jpg,0,80,Crayon_Green.jpg,0
22420,14:22:01,33,33,5.0.14.0,2,40,trial1,naming,0,0,0,0,stuffed animal,0,4097,1,White_Screen.jpg,1,72,Toy_RabbitPlushie.jpg,1
22420,14:22:01,33,33,5.0.14.0,2,41,trial1,naming,0,0,0,0,shair,0,2616,1,White_Screen.jpg,5,51,Chair_Barber.jpg,5
22420,14:22:01,33,33,5.0.14.0,2,42,trial1,naming,0,0,0,0,bells,0,2172,1,White_Screen.jpg,8,122,Bells_Christmas.jpg,8
22420,14:22:01,33,33,5.0.14.0,2,43,trial1,naming,0,0,0,0,tile,0,1914,1,White_Screen.jpg,5,144,FloorTile.jpg,5
22420,14:22:01,33,33,5.0.14.0,2,44,trial1,naming,0,0,0,0,bird,0,2393,1,White_Screen.jpg,0,92,Bird_Budgie.jpg,0
22420,14:22:01,33,33,5.0.14.0,2,45,trial1,naming,0,0,0,0,mill,0,4363,1,White_Screen.jpg,6,100,CoffeeGrinder.jpg,6
22420,14:22:01,33,33,5.0.14.0,2,46,trial1,naming,0,0,0,0,dart,0,2694,1,White_Screen.jpg,12,2,Dart.jpg,12
22420,14:22:01,33,33,5.0.14.0,2,47,trial1,naming,0,0,0,0,mixer,0,2763,1,White_Screen.jpg,5,126,Beater_Electric.jpg,5
22420,14:22:01,33,33,5.0.14.0,2,48,trial1,naming,0,0,0,0,ornament,0,5533,1,White_Screen.jpg,0,90,Decoration_ChristmasRed.jpg,0
22420,14:22:01,33,33,5.0.14.0,2,49,trial1,naming,0,0,0,0,sand,0,2476,1,White_Screen.jpg,0,12,Sand.jpg,0
22420,14:22:01,33,33,5.0.14.0,2,50,trial1,naming,0,0,0,0,pole,0,3646,1,White_Screen.jpg,0,110,Pillar.jpg,0
22420,14:22:01,33,33,5.0.14.0,2,52,trial1,naming,0,0,0,0,juicer,0,4988,1,White_Screen.jpg,8,11,JuicerCitrus.jpg,8
22420,14:22:01,33,33,5.0.14.0,2,53,trial1,naming,0,0,0,0,cup,0,4273,1,White_Screen.jpg,-1,86,Glass_Wine.jpg,-1
22420,14:22:01,33,33,5.0.14.0,2,54,trial1,naming,0,0,0,0,headlamp,0,4144,1,White_Screen.jpg,4,113,TailLight.jpg,4
22420,14:22:01,33,33,5.0.14.0,2,55,trial1,naming,0,0,0,0,acorn,0,2388,1,White_Screen.jpg,6,132,Acorn.jpg,6
22420,14:22:01,33,33,5.0.14.0,2,56,trial1,naming,0,0,0,0,worm,0,5579,1,White_Screen.jpg,5,108,OvenElement.jpg,5
22420,14:22:01,33,33,5.0.14.0,2,57,trial1,naming,0,0,0,0,bed,0,1638,1,White_Screen.jpg,1,63,Bed_QueenSize.jpg,1
22420,14:22:01,33,33,5.0.14.0,2,58,trial1,naming,0,0,0,0,eye chart,0,2967,1,White_Screen.jpg,0,42,EyeChart.jpg,0
22420,14:22:01,33,33,5.0.14.0,2,59,trial1,naming,0,0,0,0,dremel,0,3638,1,White_Screen.jpg,7,96,AngleGrinder.jpg,7
22420,14:22:01,33,33,5.0.14.0,2,60,trial1,naming,0,0,0,0,slide,0,3170,1,White_Screen.jpg,0,142,SlideViewer.jpg,0
22420,14:22:01,33,33,5.0.14.0,2,61,trial1,naming,0,0,0,0,cactus,0,2378,1,White_Screen.jpg,0,48,Cactus.jpg,0
22420,14:22:01,33,33,5.0.14.0,2,62,trial1,naming,0,0,0,0,wooden something,0,5720,1,White_Screen.jpg,5,67,Clave.jpg,5
22420,14:22:01,33,33,5.0.14.0,2,63,trial1,naming,0,0,0,0,pitchfork,0,4448,1,White_Screen.jpg,3,20,Pickaxe.jpg,3
22420,14:22:01,33,33,5.0.14.0,2,64,trial1,naming,0,0,0,0,math I don't remember,0,7464,1,White_Screen.jpg,0,17,DrawingCompass.jpg,0
22420,14:22:01,33,33,5.0.14.0,2,65,trial1,naming,0,0,0,0,metal,0,5541,1,White_Screen.jpg,5,10,BicyclePedal.jpg,5
22420,14:22:01,33,33,5.0.14.0,2,66,trial1,naming,0,0,0,0,towel,0,2244,1,White_Screen.jpg,5,1,Blanket.jpg,5
22420,14:22:01,33,33,5.0.14.0,2,67,trial1,naming,0,0,0,0,camel,0,1995,1,White_Screen.jpg,6,115,Camel_Dromedary.jpg,6
22420,14:22:01,33,33,5.0.14.0,2,68,trial1,naming,0,0,0,0,blackboard,0,3632,1,White_Screen.jpg,-1,34,Blackboard.jpg,-1
22420,14:22:01,33,33,5.0.14.0,2,69,trial1,naming,0,0,0,0,sickle,0,5028,1,White_Screen.jpg,6,141,Scythe.jpg,6
22420,14:22:01,33,33,5.0.14.0,2,70,trial1,naming,0,0,0,0,pasta,0,2435,1,White_Screen.jpg,2,137,Bowl_Pasta.jpg,2
22420,14:22:01,33,33,5.0.14.0,2,71,trial1,naming,0,0,0,0,hook,0,3317,1,White_Screen.jpg,0,84,Hook_Double.jpg,0
22420,14:22:01,33,33,5.0.14.0,2,72,trial1,naming,0,0,0,0,beer,0,2478,1,White_Screen.jpg,2,95,ShotGlassTray.jpg,2
22420,14:22:01,33,33,5.0.14.0,2,73,trial1,naming,0,0,0,0,eight ball,0,3331,1,White_Screen.jpg,6,87,Ball_8.jpg,6
22420,14:22:01,33,33,5.0.14.0,2,74,trial1,naming,0,0,0,0,scooper,0,3289,1,White_Screen.jpg,5,32,CementFinisher.jpg,5
22420,14:22:01,33,33,5.0.14.0,2,75,trial1,naming,0,0,0,0,figurine,0,3336,1,White_Screen.jpg,5,121,Toy_FigurineEngineer.jpg,5
22420,14:22:01,33,33,5.0.14.0,2,76,trial1,naming,0,0,0,0,hair pick,0,3014,1,White_Screen.jpg,-1,36,Comb.jpg,-1
22420,14:22:01,33,33,5.0.14.0,2,77,trial1,naming,0,0,0,0,necklace,0,4291,1,White_Screen.jpg,1,94,Necklace_Black.jpg,1
22420,14:22:01,33,33,5.0.14.0,2,78,trial1,naming,0,0,0,0,box,0,1889,1,White_Screen.jpg,5,85,Box_WoodenOpen.jpg,5
22420,14:22:01,33,33,5.0.14.0,2,79,trial1,naming,0,0,0,0,bow,0,1940,1,White_Screen.jpg,5,5,GiftBow.jpg,5
22420,14:22:01,33,33,5.0.14.0,2,80,trial1,naming,0,0,0,0,jar,0,2962,1,White_Screen.jpg,5,136,Jar_Empty.jpg,5
22420,14:22:01,33,33,5.0.14.0,2,81,trial1,naming,0,0,0,0,exercise machine,0,4491,1,White_Screen.jpg,8,81,Exercise_Machine.jpg,8
22420,14:22:01,33,33,5.0.14.0,2,82,trial1,naming,0,0,0,0,microwave,0,2906,1,White_Screen.jpg,5,58,Microwave.jpg,5
22420,14:22:01,33,33,5.0.14.0,2,83,trial1,naming,0,0,0,0,cinamon bun,0,6379,1,White_Screen.jpg,10,76,Cinnamonroll.jpg,10
22420,14:22:01,33,33,5.0.14.0,2,84,trial1,naming,0,0,0,0,magnify glass,0,6558,1,White_Screen.jpg,5,74,Mirror_Handheld.jpg,5
22420,14:22:01,33,33,5.0.14.0,2,85,trial1,naming,0,0,0,0,capers,0,2620,1,White_Screen.jpg,0,50,Jar_Capers.jpg,0
22420,14:22:01,33,33,5.0.14.0,2,86,trial1,naming,0,0,0,0,selfie stick,0,5325,1,White_Screen.jpg,5,64,SelfieStick.jpg,5
22420,14:22:01,33,33,5.0.14.0,2,87,trial1,naming,0,0,0,0,bu squash,0,10000,1,White_Screen.jpg,-1,47,Squash_Butternut.jpg,-1
22420,14:22:01,33,33,5.0.14.0,2,88,trial1,naming,0,0,0,0,bamboo,0,3201,1,White_Screen.jpg,10,9,Bamboo.jpg,10
22420,14:22:01,33,33,5.0.14.0,2,89,trial1,naming,0,0,0,0,truck,0,3096,1,White_Screen.jpg,2,147,Tractor_Orange.jpg,2
22420,14:22:01,33,33,5.0.14.0,2,90,trial1,naming,0,0,0,0,rubber mat,0,2858,1,White_Screen.jpg,3,26,Mat_Car.jpg,3
22420,14:22:01,33,33,5.0.14.0,2,91,trial1,naming,0,0,0,0,squid,0,2326,1,White_Screen.jpg,4,83,Squid_Pink.jpg,4
22420,14:22:01,33,33,5.0.14.0,2,92,trial1,naming,0,0,0,0,rocks,0,2309,1,White_Screen.jpg,0,118,Inukshuk.jpg,0
22420,14:22:01,33,33,5.0.14.0,2,93,trial1,naming,0,0,0,0,toy,0,1960,1,White_Screen.jpg,7,133,Toy_RobotTransformer.jpg,7
22420,14:22:01,33,33,5.0.14.0,2,94,trial1,naming,0,0,0,0,locker,0,4403,1,White_Screen.jpg,0,140,Mailbox_Community.jpg,0
22420,14:22:01,33,33,5.0.14.0,2,95,trial1,naming,0,0,0,0,tulip,0,2277,1,White_Screen.jpg,1,49,Flower_Tulip.jpg,1
22420,14:22:01,33,33,5.0.14.0,2,96,trial1,naming,0,0,0,0,eagle,0,1872,1,White_Screen.jpg,0,79,Bird_Eagle.jpg,0
22420,14:22:01,33,33,5.0.14.0,2,97,trial1,naming,0,0,0,0,scraper,0,2521,1,White_Screen.jpg,6,116,IceScraper.jpg,6
22420,14:22:01,33,33,5.0.14.0,2,98,trial1,naming,0,0,0,0,shed,0,1861,1,White_Screen.jpg,4,27,Shed.jpg,4
22420,14:22:01,33,33,5.0.14.0,2,99,trial1,naming,0,0,0,0,wheel,0,2871,1,White_Screen.jpg,0,99,PulleyWooden.jpg,0
22420,14:22:01,33,33,5.0.14.0,2,100,trial1,naming,0,0,0,0,filter,0,3141,1,White_Screen.jpg,0,114,CoolingFan_Engine.jpg,0
22420,14:22:01,33,33,5.0.14.0,2,101,trial1,naming,0,0,0,0,porta john,0,4617,1,White_Screen.jpg,0,6,PortaPotty.jpg,0
22420,14:22:01,33,33,5.0.14.0,2,103,trial1,naming,0,0,0,0,broach,0,5077,1,White_Screen.jpg,7,25,CameoPortrait.jpg,7
22420,14:22:01,33,33,5.0.14.0,2,104,trial1,naming,0,0,0,0,lock,0,1758,1,White_Screen.jpg,6,31,Lock_Combination.jpg,6
22420,14:22:01,33,33,5.0.14.0,2,105,trial1,naming,0,0,0,0,grater,0,2270,1,White_Screen.jpg,0,8,Cheesegrater_Box.jpg,0
22420,14:22:01,33,33,5.0.14.0,2,106,trial1,naming,0,0,0,0,awning,0,5544,1,White_Screen.jpg,-1,53,BusStop.jpg,-1
22420,14:22:01,33,33,5.0.14.0,2,107,trial1,naming,0,0,0,0,binoculars,0,3556,1,White_Screen.jpg,0,120,Binoculars.jpg,0
22420,14:22:01,33,33,5.0.14.0,2,108,trial1,naming,0,0,0,0,backspace,0,3383,1,White_Screen.jpg,-1,70,ComputerKeyboard_Backspace.jpg,-1
22420,14:22:01,33,33,5.0.14.0,2,109,trial1,naming,0,0,0,0,blinds,0,2213,1,White_Screen.jpg,7,75,WindowBlinds.jpg,7
22420,14:22:01,33,33,5.0.14.0,2,110,trial1,naming,0,0,0,0,radish,0,3449,1,White_Screen.jpg,-1,123,Radish.jpg,-1
22420,14:22:01,33,33,5.0.14.0,2,111,trial1,naming,0,0,0,0,painting,0,2589,1,White_Screen.jpg,2,60,MonaLisa.jpg,2
22420,14:22:01,33,33,5.0.14.0,2,112,trial1,naming,0,0,0,0,cell phone,0,2581,1,White_Screen.jpg,7,65,Phone_Flip.jpg,7
22420,14:22:01,33,33,5.0.14.0,2,113,trial1,naming,0,0,0,0,bobcat,0,2783,1,White_Screen.jpg,5,45,Lynx.jpg,5
22420,14:22:01,33,33,5.0.14.0,2,114,trial1,naming,0,0,0,0,printer,0,3116,1,White_Screen.jpg,6,18,Photocopier.jpg,6
22420,14:22:01,33,33,5.0.14.0,2,115,trial1,naming,0,0,0,0,muffin pan,0,4599,1,White_Screen.jpg,-1,52,Tray_Muffin.jpg,-1
22420,14:22:01,33,33,5.0.14.0,2,116,trial1,naming,0,0,0,0,figurine,0,2528,1,White_Screen.jpg,0,148,Figurine_Ballerina.jpg,0
22420,14:22:01,33,33,5.0.14.0,2,117,trial1,naming,0,0,0,0,paper towel,0,2784,1,White_Screen.jpg,0,128,PaperTowel_Brown.jpg,0
22420,14:22:01,33,33,5.0.14.0,2,118,trial1,naming,0,0,0,0,glasses,0,2408,1,White_Screen.jpg,0,131,Glasses_Reading.jpg,0
22420,14:22:01,33,33,5.0.14.0,2,119,trial1,naming,0,0,0,0,microscope,0,2998,1,White_Screen.jpg,0,106,Microscope.jpg,0
22420,14:22:01,33,33,5.0.14.0,2,120,trial1,naming,0,0,0,0,lettuce,0,2476,1,White_Screen.jpg,-1,145,Lettuce_GreenLeaf.jpg,-1
22420,14:22:01,33,33,5.0.14.0,2,121,trial1,naming,0,0,0,0,cookie cutter,0,5486,1,White_Screen.jpg,5,33,CookieCutter_Bell.jpg,5
22420,14:22:01,33,33,5.0.14.0,2,122,trial1,naming,0,0,0,0,tube ,0,3273,1,White_Screen.jpg,9,91,Tube_Paint.jpg,9
22420,14:22:01,33,33,5.0.14.0,2,123,trial1,naming,0,0,0,0,pick,0,2663,1,White_Screen.jpg,5,41,Spear.jpg,5
22420,14:22:01,33,33,5.0.14.0,2,124,trial1,naming,0,0,0,0,goose,0,3935,1,White_Screen.jpg,7,19,Bird_Duck.jpg,7
22420,14:22:01,33,33,5.0.14.0,2,125,trial1,naming,0,0,0,0,spray,0,2771,1,White_Screen.jpg,6,73,Bottle_CosmeticSpray.jpg,6
22420,14:22:01,33,33,5.0.14.0,2,126,trial1,naming,0,0,0,0,speaker,0,2207,1,White_Screen.jpg,5,82,Speaker_Single.jpg,5
22420,14:22:01,33,33,5.0.14.0,2,127,trial1,naming,0,0,0,0,salt ,0,4230,1,White_Screen.jpg,11,29,MortarPestle_WhiteMarble.jpg,11
22420,14:22:01,33,33,5.0.14.0,2,128,trial1,naming,0,0,0,0,calculator,0,3188,1,White_Screen.jpg,0,135,Calculator.jpg,0
22420,14:22:01,33,33,5.0.14.0,2,129,trial1,naming,0,0,0,0,amplifier,0,3310,1,White_Screen.jpg,5,138,Amp.jpg,5
22420,14:22:01,33,33,5.0.14.0,2,130,trial1,naming,0,0,0,0,sandwich,0,3267,1,White_Screen.jpg,10,59,Sandwich_Ham.jpg,10
22420,14:22:01,33,33,5.0.14.0,2,131,trial1,naming,0,0,0,0,,0,10000,1,White_Screen.jpg,1,105,Pricegun.jpg,1
22420,14:22:01,33,33,5.0.14.0,2,132,trial1,naming,0,0,0,0,chopsticks,0,3532,1,White_Screen.jpg,8,149,Chopsticks.jpg,8
22420,14:22:01,33,33,5.0.14.0,2,133,trial1,naming,0,0,0,0,jug,0,2554,1,White_Screen.jpg,6,143,Can_MilkAntique.jpg,6
22420,14:22:01,33,33,5.0.14.0,2,134,trial1,naming,0,0,0,0,piano,0,2151,1,White_Screen.jpg,0,111,Piano_Upright.jpg,0
22420,14:22:01,33,33,5.0.14.0,2,135,trial1,naming,0,0,0,0,lightbulb,0,2546,1,White_Screen.jpg,3,125,LightBulb_Blue.jpg,3
22420,14:22:01,33,33,5.0.14.0,2,136,trial1,naming,0,0,0,0,record player,0,3696,1,White_Screen.jpg,6,30,RecordPlayer.jpg,6
22420,14:22:01,33,33,5.0.14.0,2,137,trial1,naming,0,0,0,0,finish line flags,0,4654,1,White_Screen.jpg,0,101,Flags_CheckeredRacing.jpg,0
22420,14:22:01,33,33,5.0.14.0,2,138,trial1,naming,0,0,0,0,barrel,0,2669,1,White_Screen.jpg,5,134,Bucket_WoodenDark.jpg,5
22420,14:22:01,33,33,5.0.14.0,2,139,trial1,naming,0,0,0,0,right arrow,0,3658,1,White_Screen.jpg,0,98,Sign_OneWay.jpg,0
22420,14:22:01,33,33,5.0.14.0,2,140,trial1,naming,0,0,0,0,figurine,0,3682,1,White_Screen.jpg,8,7,House_CeramicGingerbread.jpg,8
22420,14:22:01,33,33,5.0.14.0,2,141,trial1,naming,0,0,0,0,base ball,0,2860,1,White_Screen.jpg,3,146,Ball_Baseball.jpg,3
22420,14:22:01,33,33,5.0.14.0,2,142,trial1,naming,0,0,0,0,nail clippers,0,3248,1,White_Screen.jpg,5,3,NailClipper.jpg,5
22420,14:22:01,33,33,5.0.14.0,2,143,trial1,naming,0,0,0,0,ski poles,0,2701,1,White_Screen.jpg,5,129,SkiPoles.jpg,5
22420,14:22:01,33,33,5.0.14.0,2,144,trial1,naming,0,0,0,0,pliers,0,2161,1,White_Screen.jpg,1,37,Pliers_SlipJoint.jpg,1
22420,14:22:01,33,33,5.0.14.0,2,145,trial1,naming,0,0,0,0,caribeaner,0,2946,1,White_Screen.jpg,3,14,Carabiner_Orange.jpg,3
22420,14:22:01,33,33,5.0.14.0,2,146,trial1,naming,0,0,0,0,toothpicks,0,3320,1,White_Screen.jpg,2,77,Stick_Stirring.jpg,2
22420,14:22:01,33,33,5.0.14.0,2,147,trial1,naming,0,0,0,0,figurine,0,3665,1,White_Screen.jpg,0,119,Car_Vintage.jpg,0
22420,14:22:01,33,33,5.0.14.0,2,148,trial1,naming,0,0,0,0,walnut,0,3153,1,White_Screen.jpg,3,130,Nuts_Walnut.jpg,3
22420,14:22:01,33,33,5.0.14.0,2,149,trial1,naming,0,0,0,0,candy,0,3551,1,White_Screen.jpg,5,39,Candy_Chocolate.jpg,5
22420,14:22:01,33,33,5.0.14.0,2,150,trial1,naming,0,0,0,0,stocking,0,2641,1,White_Screen.jpg,6,28,StockingChristmas.jpg,6
22420,14:22:01,33,33,5.0.14.0,2,151,trial1,naming,0,0,0,0,blender,0,2119,1,White_Screen.jpg,3,21,ProcessorFood_Modern.jpg,3
22420,14:22:01,33,33,5.0.14.0,2,152,trial1,naming,0,0,0,0,crown,0,3171,1,White_Screen.jpg,5,22,Crown.jpg,5
22420,14:22:01,33,33,5.0.14.0,2,154,trial1,naming,0,0,0,0,squid,0,2047,1,White_Screen.jpg,12,112,Squid_Orange.jpg,12
22420,14:22:01,33,33,5.0.14.0,2,155,trial1,naming,0,0,0,0,deck of cards,0,3727,1,White_Screen.jpg,4,54,Card_Deck.jpg,4
22420,14:22:01,33,33,5.0.14.0,2,156,trial1,naming,0,0,0,0,capers,0,1925,1,White_Screen.jpg,6,50,Jar_Capers.jpg,6
22420,14:22:01,33,33,5.0.14.0,2,157,trial1,naming,0,0,0,0,tile,0,1653,1,White_Screen.jpg,6,144,FloorTile.jpg,6
22420,14:22:01,33,33,5.0.14.0,2,158,trial1,naming,0,0,0,0,record player,0,2973,1,White_Screen.jpg,3,30,RecordPlayer.jpg,3
22420,14:22:01,33,33,5.0.14.0,2,159,trial1,naming,0,0,0,0,amplifier,0,2522,1,White_Screen.jpg,6,138,Amp.jpg,6
22420,14:22:01,33,33,5.0.14.0,2,160,trial1,naming,0,0,0,0,stuffed animal,0,4605,1,White_Screen.jpg,6,72,Toy_RabbitPlushie.jpg,6
22420,14:22:01,33,33,5.0.14.0,2,161,trial1,naming,0,0,0,0,tea set,0,2745,1,White_Screen.jpg,6,56,Toy_TableSet.jpg,6
22420,14:22:01,33,33,5.0.14.0,2,162,trial1,naming,0,0,0,0,cell phone,0,3445,1,White_Screen.jpg,5,65,Phone_Flip.jpg,5
22420,14:22:01,33,33,5.0.14.0,2,163,trial1,naming,0,0,0,0,piano,0,1928,1,White_Screen.jpg,6,111,Piano_Upright.jpg,6
22420,14:22:01,33,33,5.0.14.0,2,164,trial1,naming,0,0,0,0,nail clippers,0,3161,1,White_Screen.jpg,0,3,NailClipper.jpg,0
22420,14:22:01,33,33,5.0.14.0,2,165,trial1,naming,0,0,0,0,coffee pot,0,2873,1,White_Screen.jpg,2,139,CoffeePot.jpg,2
22420,14:22:01,33,33,5.0.14.0,2,166,trial1,naming,0,0,0,0,figurine,0,2351,1,White_Screen.jpg,0,148,Figurine_Ballerina.jpg,0
22420,14:22:01,33,33,5.0.14.0,2,167,trial1,naming,0,0,0,0,bells,0,1809,1,White_Screen.jpg,4,122,Bells_Christmas.jpg,4
22420,14:22:01,33,33,5.0.14.0,2,168,trial1,naming,0,0,0,0,squid,0,1927,1,White_Screen.jpg,0,83,Squid_Pink.jpg,0
22420,14:22:01,33,33,5.0.14.0,2,169,trial1,naming,0,0,0,0,candy,0,1977,1,White_Screen.jpg,4,39,Candy_Chocolate.jpg,4
22420,14:22:01,33,33,5.0.14.0,2,170,trial1,naming,0,0,0,0,disco ball,0,3356,1,White_Screen.jpg,4,13,Ball_Disco.jpg,4
22420,14:22:01,33,33,5.0.14.0,2,171,trial1,naming,0,0,0,0,stocking,0,3477,1,White_Screen.jpg,4,28,StockingChristmas.jpg,4
22420,14:22:01,33,33,5.0.14.0,2,172,trial1,naming,0,0,0,0,right arrow,0,3728,1,White_Screen.jpg,6,98,Sign_OneWay.jpg,6
22420,14:22:01,33,33,5.0.14.0,2,173,trial1,naming,0,0,0,0,speaker,0,2275,1,White_Screen.jpg,0,82,Speaker_Single.jpg,0
22420,14:22:01,33,33,5.0.14.0,2,174,trial1,naming,0,0,0,0,pliers,0,2074,1,White_Screen.jpg,4,37,Pliers_SlipJoint.jpg,4
22420,14:22:01,33,33,5.0.14.0,2,175,trial1,naming,0,0,0,0,toy,0,2049,1,White_Screen.jpg,3,133,Toy_RobotTransformer.jpg,3
22420,14:22:01,33,33,5.0.14.0,2,176,trial1,naming,0,0,0,0,trophy,0,7305,1,White_Screen.jpg,0,71,Trophy.jpg,0
22420,14:22:01,33,33,5.0.14.0,2,177,trial1,naming,0,0,0,0,lettuce,0,2242,1,White_Screen.jpg,5,145,Lettuce_GreenLeaf.jpg,5
22420,14:22:01,33,33,5.0.14.0,2,178,trial1,naming,0,0,0,0,lock,0,1788,1,White_Screen.jpg,6,31,Lock_Combination.jpg,6
22420,14:22:01,33,33,5.0.14.0,2,179,trial1,naming,0,0,0,0,ski poles,0,2522,1,White_Screen.jpg,6,129,SkiPoles.jpg,6
22420,14:22:01,33,33,5.0.14.0,2,180,trial1,naming,0,0,0,0,camel,0,1617,1,White_Screen.jpg,3,115,Camel_Dromedary.jpg,3
22420,14:22:01,33,33,5.0.14.0,2,181,trial1,naming,0,0,0,0,crayon,0,2500,1,White_Screen.jpg,-1,80,Crayon_Green.jpg,-1
22420,14:22:01,33,33,5.0.14.0,2,182,trial1,naming,0,0,0,0,finish flags,0,3417,1,White_Screen.jpg,0,101,Flags_CheckeredRacing.jpg,0
22420,14:22:01,33,33,5.0.14.0,2,183,trial1,naming,0,0,0,0,figurine,0,4408,1,White_Screen.jpg,0,119,Car_Vintage.jpg,0
22420,14:22:01,33,33,5.0.14.0,2,184,trial1,naming,0,0,0,0,bag,0,2493,1,White_Screen.jpg,0,103,Purse.jpg,0
22420,14:22:01,33,33,5.0.14.0,2,185,trial1,naming,0,0,0,0,caribeaner,0,2676,1,White_Screen.jpg,5,14,Carabiner_Orange.jpg,5
22420,14:22:01,33,33,5.0.14.0,2,186,trial1,naming,0,0,0,0,selfie stick,0,2925,1,White_Screen.jpg,2,64,SelfieStick.jpg,2
22420,14:22:01,33,33,5.0.14.0,2,187,trial1,naming,0,0,0,0,pasta,0,1669,1,White_Screen.jpg,0,23,Pasta_Penne.jpg,0
22420,14:22:01,33,33,5.0.14.0,2,188,trial1,naming,0,0,0,0,acron,0,1976,1,White_Screen.jpg,6,132,Acorn.jpg,6
22420,14:22:01,33,33,5.0.14.0,2,189,trial1,naming,0,0,0,0,flour,0,2457,1,White_Screen.jpg,2,127,Bowl_Flour.jpg,2
22420,14:22:01,33,33,5.0.14.0,2,190,trial1,naming,0,0,0,0,paper towels,0,2529,1,White_Screen.jpg,1,128,PaperTowel_Brown.jpg,1
22420,14:22:01,33,33,5.0.14.0,2,191,trial1,naming,0,0,0,0,magnify glass,0,3319,1,White_Screen.jpg,4,74,Mirror_Handheld.jpg,4
22420,14:22:01,33,33,5.0.14.0,2,192,trial1,naming,0,0,0,0,flamingo,0,2230,1,White_Screen.jpg,0,93,Flamingo_Real.jpg,0
22420,14:22:01,33,33,5.0.14.0,2,193,trial1,naming,0,0,0,0,lolipop,0,5092,1,White_Screen.jpg,0,62,Lollipop_Grape.jpg,0
22420,14:22:01,33,33,5.0.14.0,2,194,trial1,naming,0,0,0,0,figurine,0,3543,1,White_Screen.jpg,4,7,House_CeramicGingerbread.jpg,4
22420,14:22:01,33,33,5.0.14.0,2,195,trial1,naming,0,0,0,0,barrel,0,2691,1,White_Screen.jpg,5,104,RadioactiveContainer.jpg,5
22420,14:22:01,33,33,5.0.14.0,2,196,trial1,naming,0,0,0,0,stake,0,3207,1,White_Screen.jpg,4,57,JoustingSpear.jpg,4
22420,14:22:01,33,33,5.0.14.0,2,197,trial1,naming,0,0,0,0,walnut,0,2338,1,White_Screen.jpg,3,130,Nuts_Walnut.jpg,3
22420,14:22:01,33,33,5.0.14.0,2,198,trial1,naming,0,0,0,0,microscope,0,5165,1,White_Screen.jpg,5,106,Microscope.jpg,5
22420,14:22:01,33,33,5.0.14.0,2,199,trial1,naming,0,0,0,0,headlamp,0,2579,1,White_Screen.jpg,-1,113,TailLight.jpg,-1
22420,14:22:01,33,33,5.0.14.0,2,200,trial1,naming,0,0,0,0,wheel,0,2017,1,White_Screen.jpg,8,99,PulleyWooden.jpg,8
22420,14:22:01,33,33,5.0.14.0,2,201,trial1,naming,0,0,0,0,locker,0,1723,1,White_Screen.jpg,5,140,Mailbox_Community.jpg,5
22420,14:22:01,33,33,5.0.14.0,2,202,trial1,naming,0,0,0,0,protractor,0,5991,1,White_Screen.jpg,1,17,DrawingCompass.jpg,1
22420,14:22:01,33,33,5.0.14.0,2,203,trial1,naming,0,0,0,0,glass,0,1951,1,White_Screen.jpg,2,86,Glass_Wine.jpg,2
22420,14:22:01,33,33,5.0.14.0,3,1,demographics_block,gender,0,0,0,0,female,1,12226,0,0,0,0,0,0
22420,14:22:01,33,33,5.0.14.0,3,1,demographics_block,age,0,0,0,0,36,1,12226,0,0,0,0,0,0
22420,14:22:01,33,33,5.0.14.0,3,1,demographics_block,education,0,0,0,0,bachelors,1,12226,0,0,0,0,0,0
22420,14:22:01,33,33,5.0.14.0,3,2,demographics_block,left_right_handed,0,0,0,0,Right,1,6267,0,0,0,0,0,0
22420,14:22:01,33,33,5.0.14.0,3,2,demographics_block,raceoption1,0,0,0,0,0,1,6267,0,0,0,0,0,0
22420,14:22:01,33,33,5.0.14.0,3,2,demographics_block,raceoption2,0,0,0,0,,1,6267,0,0,0,0,0,0
22420,14:22:01,33,33,5.0.14.0,3,2,demographics_block,raceoption3,0,0,0,0,,1,6267,0,0,0,0,0,0
22420,14:22:01,33,33,5.0.14.0,3,2,demographics_block,raceoption4,0,0,0,0,,1,6267,0,0,0,0,0,0
22420,14:22:01,33,33,5.0.14.0,3,2,demographics_block,raceoption5,0,0,0,0,,1,6267,0,0,0,0,0,0
22420,14:22:01,33,33,5.0.14.0,3,2,demographics_block,raceoption6,0,0,0,0,,1,6267,0,0,0,0,0,0
22420,14:22:01,33,33,5.0.14.0,3,2,demographics_block,raceoption7,0,0,0,0,,1,6267,0,0,0,0,0,0
22420,14:22:01,33,33,5.0.14.0,3,2,demographics_block,raceoption8,0,0,0,0,,1,6267,0,0,0,0,0,0
22420,14:22:01,33,33,5.0.14.0,3,2,demographics_block,raceoption9,0,0,0,0,,1,6267,0,0,0,0,0,0
22420,14:22:01,33,33,5.0.14.0,3,2,demographics_block,raceother,0,0,0,0,,1,6267,0,0,0,0,0,0
22420,14:22:01,33,33,5.0.14.0,3,2,demographics_block,raceother,0,0,0,0,,1,6267,0,0,0,0,0,0
22420,14:22:01,33,33,5.0.14.0,3,2,demographics_block,english_language,0,0,0,0,Yes,1,6267,0,0,0,0,0,0
22420,14:22:01,33,33,5.0.14.0,3,2,demographics_block,english_languageother,0,0,0,0,,1,6267,0,0,0,0,0,0
22420,14:22:01,33,33,5.0.14.0,3,3,demographics_block,eyesight,0,0,0,0,Yes,1,7812,0,0,0,0,0,0
22420,14:22:01,33,33,5.0.14.0,3,3,demographics_block,colorblind,0,0,0,0,No,1,7812,0,0,0,0,0,0
22420,14:22:01,33,33,5.0.14.0,4,1,worker_id_block,worker_id_textbox,0,0,0,0,A281Q8U3T9H7JS,1,5524,0,0,0,0,0,0
22420,13:28:32,35,35,5.0.14.0,2,1,trial1,naming,0,0,0,0,table,0,2608,1,White_Screen.jpg,65,44,Table_AntiqueWooden.jpg,65
22420,13:28:32,35,35,5.0.14.0,2,2,trial1,naming,0,0,0,0,workout equipment,0,6594,1,White_Screen.jpg,0,81,Exercise_Machine.jpg,0
22420,13:28:32,35,35,5.0.14.0,2,3,trial1,naming,0,0,0,0,beer flight,0,4382,1,White_Screen.jpg,0,95,ShotGlassTray.jpg,0
22420,13:28:32,35,35,5.0.14.0,2,4,trial1,naming,0,0,0,0,manta ray,0,3878,1,White_Screen.jpg,1,68,Stingray.jpg,1
22420,13:28:32,35,35,5.0.14.0,2,5,trial1,naming,0,0,0,0,camel,0,1986,1,White_Screen.jpg,-1,115,Camel_Dromedary.jpg,-1
22420,13:28:32,35,35,5.0.14.0,2,6,trial1,naming,0,0,0,0,ornament,0,3883,1,White_Screen.jpg,0,90,Decoration_ChristmasRed.jpg,0
22420,13:28:32,35,35,5.0.14.0,2,7,trial1,naming,0,0,0,0,spear,0,3040,1,White_Screen.jpg,-1,41,Spear.jpg,-1
22420,13:28:32,35,35,5.0.14.0,2,8,trial1,naming,0,0,0,0,comb,0,1755,1,White_Screen.jpg,0,36,Comb.jpg,0
22420,13:28:32,35,35,5.0.14.0,2,9,trial1,naming,0,0,0,0,candy,0,2207,1,White_Screen.jpg,0,39,Candy_Chocolate.jpg,0
22420,13:28:32,35,35,5.0.14.0,2,10,trial1,naming,0,0,0,0,mailboxes,0,6349,1,White_Screen.jpg,0,140,Mailbox_Community.jpg,0
22420,13:28:32,35,35,5.0.14.0,2,11,trial1,naming,0,0,0,0,paper towel,0,3051,1,White_Screen.jpg,0,128,PaperTowel_Brown.jpg,0
22420,13:28:32,35,35,5.0.14.0,2,12,trial1,naming,0,0,0,0,Enter Name,0,10000,1,White_Screen.jpg,0,57,JoustingSpear.jpg,0
22420,13:28:32,35,35,5.0.14.0,2,13,trial1,naming,0,0,0,0,dart,0,2900,1,White_Screen.jpg,0,2,Dart.jpg,0
22420,13:28:32,35,35,5.0.14.0,2,14,trial1,naming,0,0,0,0,container,0,5980,1,White_Screen.jpg,0,124,Container_Tupperware.jpg,0
22420,13:28:32,35,35,5.0.14.0,2,15,trial1,naming,0,0,0,0,lynx,0,2449,1,White_Screen.jpg,0,45,Lynx.jpg,0
22420,13:28:32,35,35,5.0.14.0,2,16,trial1,naming,0,0,0,0,flour,0,2873,1,White_Screen.jpg,0,127,Bowl_Flour.jpg,0
22420,13:28:32,35,35,5.0.14.0,2,17,trial1,naming,0,0,0,0,mixer,0,2568,1,White_Screen.jpg,0,126,Beater_Electric.jpg,0
22420,13:28:32,35,35,5.0.14.0,2,18,trial1,naming,0,0,0,0,bald eagle,0,3566,1,White_Screen.jpg,0,79,Bird_Eagle.jpg,0
22420,13:28:32,35,35,5.0.14.0,2,19,trial1,naming,0,0,0,0,,0,10000,1,White_Screen.jpg,0,25,CameoPortrait.jpg,0
22420,13:28:32,35,35,5.0.14.0,2,20,trial1,naming,0,0,0,0,capers,0,2928,1,White_Screen.jpg,0,50,Jar_Capers.jpg,0
22420,13:28:32,35,35,5.0.14.0,2,21,trial1,naming,0,0,0,0,p,0,10000,1,White_Screen.jpg,0,134,Bucket_WoodenDark.jpg,0
22420,13:28:32,35,35,5.0.14.0,2,22,trial1,naming,0,0,0,0,ski poles,0,3374,1,White_Screen.jpg,0,129,SkiPoles.jpg,0
22420,13:28:32,35,35,5.0.14.0,2,23,trial1,naming,0,0,0,0,jack,0,2222,1,White_Screen.jpg,0,89,CarJack.jpg,0
22420,13:28:32,35,35,5.0.14.0,2,24,trial1,naming,0,0,0,0,car part,0,6676,1,White_Screen.jpg,0,114,CoolingFan_Engine.jpg,0
22420,13:28:32,35,35,5.0.14.0,2,25,trial1,naming,0,0,0,0,walnut,0,4049,1,White_Screen.jpg,0,130,Nuts_Walnut.jpg,0
22420,13:28:32,35,35,5.0.14.0,2,26,trial1,naming,0,0,0,0,compass,0,4644,1,White_Screen.jpg,-1,17,DrawingCompass.jpg,-1
22420,13:28:32,35,35,5.0.14.0,2,27,trial1,naming,0,0,0,0,baseball,0,2374,1,White_Screen.jpg,0,146,Ball_Baseball.jpg,0
22420,13:28:32,35,35,5.0.14.0,2,28,trial1,naming,0,0,0,0,mona lisa,0,2824,1,White_Screen.jpg,0,60,MonaLisa.jpg,0
22420,13:28:32,35,35,5.0.14.0,2,29,trial1,naming,0,0,0,0,paint tube,0,3963,1,White_Screen.jpg,2,91,Tube_Paint.jpg,2
22420,13:28:32,35,35,5.0.14.0,2,30,trial1,naming,0,0,0,0,tulip,0,3366,1,White_Screen.jpg,0,49,Flower_Tulip.jpg,0
22420,13:28:32,35,35,5.0.14.0,2,31,trial1,naming,0,0,0,0,acorn,0,1897,1,White_Screen.jpg,0,132,Acorn.jpg,0
22420,13:28:32,35,35,5.0.14.0,2,32,trial1,naming,0,0,0,0,eight ball,0,2484,1,White_Screen.jpg,-1,87,Ball_8.jpg,-1
22420,13:28:32,35,35,5.0.14.0,2,33,trial1,naming,0,0,0,0,chop sticks,0,3386,1,White_Screen.jpg,0,149,Chopsticks.jpg,0
22420,13:28:32,35,35,5.0.14.0,2,34,trial1,naming,0,0,0,0,cheese grater,0,3402,1,White_Screen.jpg,0,8,Cheesegrater_Box.jpg,0
22420,13:28:32,35,35,5.0.14.0,2,35,trial1,naming,0,0,0,0,binoculars,0,5217,1,White_Screen.jpg,0,120,Binoculars.jpg,0
22420,13:28:32,35,35,5.0.14.0,2,36,trial1,naming,0,0,0,0,paino,0,2530,1,White_Screen.jpg,-1,111,Piano_Upright.jpg,-1
22420,13:28:32,35,35,5.0.14.0,2,37,trial1,naming,0,0,0,0,oars,0,2796,1,White_Screen.jpg,0,61,Oars.jpg,0
22420,13:28:32,35,35,5.0.14.0,2,38,trial1,naming,0,0,0,0,ice scraper,0,3050,1,White_Screen.jpg,0,116,IceScraper.jpg,0
22420,13:28:32,35,35,5.0.14.0,2,39,trial1,naming,0,0,0,0,broccoli,0,5201,1,White_Screen.jpg,0,150,Broccoli.jpg,0
22420,13:28:32,35,35,5.0.14.0,2,40,trial1,naming,0,0,0,0,pick,0,3128,1,White_Screen.jpg,0,20,Pickaxe.jpg,0
22420,13:28:32,35,35,5.0.14.0,2,41,trial1,naming,0,0,0,0,bamboo,0,5286,1,White_Screen.jpg,-1,9,Bamboo.jpg,-1
22420,13:28:32,35,35,5.0.14.0,2,42,trial1,naming,0,0,0,0,gingerbread house,0,4376,1,White_Screen.jpg,-1,7,House_CeramicGingerbread.jpg,-1
22420,13:28:32,35,35,5.0.14.0,2,43,trial1,naming,0,0,0,0,cloth,0,5807,1,White_Screen.jpg,0,1,Blanket.jpg,0
22420,13:28:32,35,35,5.0.14.0,2,44,trial1,naming,0,0,0,0,cinnamon roll,0,3314,1,White_Screen.jpg,0,76,Cinnamonroll.jpg,0
22420,13:28:32,35,35,5.0.14.0,2,45,trial1,naming,0,0,0,0,crown,0,1851,1,White_Screen.jpg,0,22,Crown.jpg,0
22420,13:28:32,35,35,5.0.14.0,2,46,trial1,naming,0,0,0,0,dental pick,0,4379,1,White_Screen.jpg,0,43,DentalProbe.jpg,0
22420,13:28:32,35,35,5.0.14.0,2,47,trial1,naming,0,0,0,0,spray can,0,3274,1,White_Screen.jpg,-1,73,Bottle_CosmeticSpray.jpg,-1
22420,13:28:32,35,35,5.0.14.0,2,48,trial1,naming,0,0,0,0,bike pedal,0,3180,1,White_Screen.jpg,0,10,BicyclePedal.jpg,0
22420,13:28:32,35,35,5.0.14.0,2,49,trial1,naming,0,0,0,0,bus stop,0,4642,1,White_Screen.jpg,0,53,BusStop.jpg,0
22420,13:28:32,35,35,5.0.14.0,2,50,trial1,naming,0,0,0,0,bag,0,2372,1,White_Screen.jpg,0,107,Briefcase_Leather.jpg,0
22420,13:28:32,35,35,5.0.14.0,2,52,trial1,naming,0,0,0,0,dog toy,0,3094,1,White_Screen.jpg,0,16,Toy_DogBall.jpg,0
22420,13:28:32,35,35,5.0.14.0,2,53,trial1,naming,0,0,0,0,pulley,0,2420,1,White_Screen.jpg,0,99,PulleyWooden.jpg,0
22420,13:28:32,35,35,5.0.14.0,2,54,trial1,naming,0,0,0,0,lock,0,2983,1,White_Screen.jpg,-1,31,Lock_Combination.jpg,-1
22420,13:28:32,35,35,5.0.14.0,2,55,trial1,naming,0,0,0,0,Enter Name,0,10000,1,White_Screen.jpg,0,88,ClothesDryingRack.jpg,0
22420,13:28:32,35,35,5.0.14.0,2,56,trial1,naming,0,0,0,0,car,0,1836,1,White_Screen.jpg,0,119,Car_Vintage.jpg,0
22420,13:28:32,35,35,5.0.14.0,2,57,trial1,naming,0,0,0,0,boot,0,3807,1,White_Screen.jpg,0,55,Boot_Rain.jpg,0
22420,13:28:32,35,35,5.0.14.0,2,58,trial1,naming,0,0,0,0,juicer,0,3302,1,White_Screen.jpg,0,11,JuicerCitrus.jpg,0
22420,13:28:32,35,35,5.0.14.0,2,59,trial1,naming,0,0,0,0,squid,0,2921,1,White_Screen.jpg,0,83,Squid_Pink.jpg,0
22420,13:28:32,35,35,5.0.14.0,2,60,trial1,naming,0,0,0,0,radish,0,1995,1,White_Screen.jpg,0,123,Radish.jpg,0
22420,13:28:32,35,35,5.0.14.0,2,61,trial1,naming,0,0,0,0,stuffed bunny,0,3666,1,White_Screen.jpg,0,72,Toy_RabbitPlushie.jpg,0
22420,13:28:32,35,35,5.0.14.0,2,62,trial1,naming,0,0,0,0,coffee pot,0,3414,1,White_Screen.jpg,0,139,CoffeePot.jpg,0
22420,13:28:32,35,35,5.0.14.0,2,63,trial1,naming,0,0,0,0,disco ball,0,2827,1,White_Screen.jpg,-1,13,Ball_Disco.jpg,-1
22420,13:28:32,35,35,5.0.14.0,2,64,trial1,naming,0,0,0,0,carabiner,0,3725,1,White_Screen.jpg,0,14,Carabiner_Orange.jpg,0
22420,13:28:32,35,35,5.0.14.0,2,65,trial1,naming,0,0,0,0,food processor,0,4277,1,White_Screen.jpg,0,21,ProcessorFood_Modern.jpg,0
22420,13:28:32,35,35,5.0.14.0,2,66,trial1,naming,0,0,0,0,checkered flag,0,3951,1,White_Screen.jpg,-1,101,Flags_CheckeredRacing.jpg,-1
22420,13:28:32,35,35,5.0.14.0,2,67,trial1,naming,0,0,0,0,Enter Name,0,10000,1,White_Screen.jpg,0,66,Computer_CPU.jpg,0
22420,13:28:32,35,35,5.0.14.0,2,68,trial1,naming,0,0,0,0,magnifying glass,0,4547,1,White_Screen.jpg,0,74,Mirror_Handheld.jpg,0
22420,13:28:32,35,35,5.0.14.0,2,69,trial1,naming,0,0,0,0,toy,0,3815,1,White_Screen.jpg,0,133,Toy_RobotTransformer.jpg,0
22420,13:28:32,35,35,5.0.14.0,2,70,trial1,naming,0,0,0,0,shed,0,2048,1,White_Screen.jpg,0,27,Shed.jpg,0
22420,13:28:32,35,35,5.0.14.0,2,71,trial1,naming,0,0,0,0,outhouse,0,4148,1,White_Screen.jpg,-1,6,PortaPotty.jpg,-1
22420,13:28:32,35,35,5.0.14.0,2,72,trial1,naming,0,0,0,0,arrow sign,0,3338,1,White_Screen.jpg,0,98,Sign_OneWay.jpg,0
22420,13:28:32,35,35,5.0.14.0,2,73,trial1,naming,0,0,0,0,scythe,0,7093,1,White_Screen.jpg,0,141,Scythe.jpg,0
22420,13:28:32,35,35,5.0.14.0,2,74,trial1,naming,0,0,0,0,glasses,0,2822,1,White_Screen.jpg,0,131,Glasses_Reading.jpg,0
22420,13:28:32,35,35,5.0.14.0,2,75,trial1,naming,0,0,0,0,mortar and pestle,0,5566,1,White_Screen.jpg,-1,29,MortarPestle_WhiteMarble.jpg,-1
22420,13:28:32,35,35,5.0.14.0,2,76,trial1,naming,0,0,0,0,bow,0,2541,1,White_Screen.jpg,0,5,GiftBow.jpg,0
22420,13:28:32,35,35,5.0.14.0,2,77,trial1,naming,0,0,0,0,purse,0,2643,1,White_Screen.jpg,0,103,Purse.jpg,0
22420,13:28:32,35,35,5.0.14.0,2,78,trial1,naming,0,0,0,0,light bulb,0,3425,1,White_Screen.jpg,-1,125,LightBulb_Blue.jpg,-1
22420,13:28:32,35,35,5.0.14.0,2,79,trial1,naming,0,0,0,0,speaker,0,1938,1,White_Screen.jpg,0,82,Speaker_Single.jpg,0
22420,13:28:32,35,35,5.0.14.0,2,80,trial1,naming,0,0,0,0,sea creature,0,4246,1,White_Screen.jpg,0,112,Squid_Orange.jpg,0
22420,13:28:32,35,35,5.0.14.0,2,81,trial1,naming,0,0,0,0,fishing hook,0,4730,1,White_Screen.jpg,0,84,Hook_Double.jpg,0
22420,13:28:32,35,35,5.0.14.0,2,82,trial1,naming,0,0,0,0,backspace,0,3259,1,White_Screen.jpg,0,70,ComputerKeyboard_Backspace.jpg,0
22420,13:28:32,35,35,5.0.14.0,2,83,trial1,naming,0,0,0,0,Enter Name,0,10000,1,White_Screen.jpg,0,96,AngleGrinder.jpg,0
22420,13:28:32,35,35,5.0.14.0,2,84,trial1,naming,0,0,0,0,bird,0,3687,1,White_Screen.jpg,0,92,Bird_Budgie.jpg,0
22420,13:28:32,35,35,5.0.14.0,2,85,trial1,naming,0,0,0,0,hair roller,0,4259,1,White_Screen.jpg,0,102,HairCurler.jpg,0
22420,13:28:32,35,35,5.0.14.0,2,86,trial1,naming,0,0,0,0,tail light,0,3856,1,White_Screen.jpg,0,113,TailLight.jpg,0
22420,13:28:32,35,35,5.0.14.0,2,87,trial1,naming,0,0,0,0,stocking,0,2835,1,White_Screen.jpg,0,28,StockingChristmas.jpg,0
22420,13:28:32,35,35,5.0.14.0,2,88,trial1,naming,0,0,0,0,sucker,0,4121,1,White_Screen.jpg,0,62,Lollipop_Grape.jpg,0
22420,13:28:32,35,35,5.0.14.0,2,89,trial1,naming,0,0,0,0,jar,0,1680,1,White_Screen.jpg,0,136,Jar_Empty.jpg,0
22420,13:28:32,35,35,5.0.14.0,2,90,trial1,naming,0,0,0,0,muffin tin,0,3322,1,White_Screen.jpg,-1,52,Tray_Muffin.jpg,-1
22420,13:28:32,35,35,5.0.14.0,2,91,trial1,naming,0,0,0,0,bath tub,0,2611,1,White_Screen.jpg,0,97,Bathtub.jpg,0
22420,13:28:32,35,35,5.0.14.0,2,92,trial1,naming,0,0,0,0,bed,0,1474,1,White_Screen.jpg,0,63,Bed_QueenSize.jpg,0
22420,13:28:32,35,35,5.0.14.0,2,93,trial1,naming,0,0,0,0,amp,0,4473,1,White_Screen.jpg,-1,138,Amp.jpg,-1
22420,13:28:32,35,35,5.0.14.0,2,94,trial1,naming,0,0,0,0,sandwich,0,2564,1,White_Screen.jpg,0,59,Sandwich_Ham.jpg,0
22420,13:28:32,35,35,5.0.14.0,2,95,trial1,naming,0,0,0,0,labeller,0,4088,1,White_Screen.jpg,0,105,Pricegun.jpg,0
22420,13:28:32,35,35,5.0.14.0,2,96,trial1,naming,0,0,0,0,award,0,3195,1,White_Screen.jpg,0,71,Trophy.jpg,0
22420,13:28:32,35,35,5.0.14.0,2,97,trial1,naming,0,0,0,0,bells,0,3109,1,White_Screen.jpg,0,122,Bells_Christmas.jpg,0
22420,13:28:32,35,35,5.0.14.0,2,98,trial1,naming,0,0,0,0,dirt,0,3094,1,White_Screen.jpg,0,12,Sand.jpg,0
22420,13:28:32,35,35,5.0.14.0,2,99,trial1,naming,0,0,0,0,weird duck,0,7310,1,White_Screen.jpg,0,19,Bird_Duck.jpg,0
22420,13:28:32,35,35,5.0.14.0,2,100,trial1,naming,0,0,0,0,copy machine,0,4860,1,White_Screen.jpg,0,18,Photocopier.jpg,0
22420,13:28:32,35,35,5.0.14.0,2,101,trial1,naming,0,0,0,0,pasta,0,1952,1,White_Screen.jpg,0,23,Pasta_Penne.jpg,0
22420,13:28:32,35,35,5.0.14.0,2,103,trial1,naming,0,0,0,0,Enter Name,0,10000,1,White_Screen.jpg,2,77,Stick_Stirring.jpg,2
22420,13:28:32,35,35,5.0.14.0,2,104,trial1,naming,0,0,0,0,necklace,0,2872,1,White_Screen.jpg,0,94,Necklace_Black.jpg,0
22420,13:28:32,35,35,5.0.14.0,2,105,trial1,naming,0,0,0,0,floor mat,0,3046,1,White_Screen.jpg,1,26,Mat_Car.jpg,1
22420,13:28:32,35,35,5.0.14.0,2,106,trial1,naming,0,0,0,0,s,0,10000,1,White_Screen.jpg,-1,35,Exercise_Stretch.jpg,-1
22420,13:28:32,35,35,5.0.14.0,2,107,trial1,naming,0,0,0,0,squash,0,3256,1,White_Screen.jpg,-1,47,Squash_Butternut.jpg,-1
22420,13:28:32,35,35,5.0.14.0,2,108,trial1,naming,0,0,0,0,horse figurine,0,5731,1,White_Screen.jpg,0,46,Statue_Horse.jpg,0
22420,13:28:32,35,35,5.0.14.0,2,109,trial1,naming,0,0,0,0,silverware,0,4173,1,White_Screen.jpg,0,38,Box_Cutlery.jpg,0
22420,13:28:32,35,35,5.0.14.0,2,110,trial1,naming,0,0,0,0,key fob,0,2837,1,White_Screen.jpg,0,69,Key_Car.jpg,0
22420,13:28:32,35,35,5.0.14.0,2,111,trial1,naming,0,0,0,0,milk canister,0,4214,1,White_Screen.jpg,-1,143,Can_MilkAntique.jpg,-1
22420,13:28:32,35,35,5.0.14.0,2,112,trial1,naming,0,0,0,0,grinder,0,3890,1,White_Screen.jpg,0,100,CoffeeGrinder.jpg,0
22420,13:28:32,35,35,5.0.14.0,2,113,trial1,naming,0,0,0,0,pasta,0,2312,1,White_Screen.jpg,0,137,Bowl_Pasta.jpg,0
22420,13:28:32,35,35,5.0.14.0,2,114,trial1,naming,0,0,0,0,kids table,0,4910,1,White_Screen.jpg,0,56,Toy_TableSet.jpg,0
22420,13:28:32,35,35,5.0.14.0,2,115,trial1,naming,0,0,0,0,barber chair,0,4488,1,White_Screen.jpg,0,51,Chair_Barber.jpg,0
22420,13:28:32,35,35,5.0.14.0,2,116,trial1,naming,0,0,0,0,wooden box,0,3509,1,White_Screen.jpg,0,85,Box_WoodenOpen.jpg,0
22420,13:28:32,35,35,5.0.14.0,2,117,trial1,naming,0,0,0,0,pillar,0,4323,1,White_Screen.jpg,-1,110,Pillar.jpg,-1
22420,13:28:32,35,35,5.0.14.0,2,118,trial1,naming,0,0,0,0,glass,0,5595,1,White_Screen.jpg,0,86,Glass_Wine.jpg,0
22420,13:28:32,35,35,5.0.14.0,2,119,trial1,naming,0,0,0,0,jewelry box,0,7160,1,White_Screen.jpg,-1,109,Box_Jewellery.jpg,-1
22420,13:28:32,35,35,5.0.14.0,2,120,trial1,naming,0,0,0,0,chalk board,0,3450,1,White_Screen.jpg,0,34,Blackboard.jpg,0
22420,13:28:32,35,35,5.0.14.0,2,121,trial1,naming,0,0,0,0,Enter Name,0,10000,1,White_Screen.jpg,0,64,SelfieStick.jpg,0
22420,13:28:32,35,35,5.0.14.0,2,122,trial1,naming,0,0,0,0,flamingo,0,2792,1,White_Screen.jpg,-1,93,Flamingo_Real.jpg,-1
22420,13:28:32,35,35,5.0.14.0,2,123,trial1,naming,0,0,0,0,nail clippers,0,3227,1,White_Screen.jpg,-1,3,NailClipper.jpg,-1
22420,13:28:32,35,35,5.0.14.0,2,124,trial1,naming,0,0,0,0,microwave,0,2479,1,White_Screen.jpg,-1,58,Microwave.jpg,-1
22420,13:28:32,35,35,5.0.14.0,2,125,trial1,naming,0,0,0,0,calculator,0,3561,1,White_Screen.jpg,0,135,Calculator.jpg,0
22420,13:28:32,35,35,5.0.14.0,2,126,trial1,naming,0,0,0,0,eye chart,0,2509,1,White_Screen.jpg,0,42,EyeChart.jpg,0
22420,13:28:32,35,35,5.0.14.0,2,127,trial1,naming,0,0,0,0,record player,0,3018,1,White_Screen.jpg,0,30,RecordPlayer.jpg,0
22420,13:28:32,35,35,5.0.14.0,2,128,trial1,naming,0,0,0,0,rocks,0,3657,1,White_Screen.jpg,2,118,Inukshuk.jpg,2
22420,13:28:32,35,35,5.0.14.0,2,129,trial1,naming,0,0,0,0,shovel,0,3076,1,White_Screen.jpg,-1,4,Shovel_Sandbox.jpg,-1
22420,13:28:32,35,35,5.0.14.0,2,130,trial1,naming,0,0,0,0,cactus,0,2027,1,White_Screen.jpg,0,48,Cactus.jpg,0
22420,13:28:32,35,35,5.0.14.0,2,131,trial1,naming,0,0,0,0,bull dozer,0,5511,1,White_Screen.jpg,-1,147,Tractor_Orange.jpg,-1
22420,13:28:32,35,35,5.0.14.0,2,132,trial1,naming,0,0,0,0,name tag thing,0,5701,1,White_Screen.jpg,0,117,Nametag.jpg,0
22420,13:28:32,35,35,5.0.14.0,2,133,trial1,naming,0,0,0,0,purse,0,2095,1,White_Screen.jpg,-1,40,Handbag.jpg,-1
22420,13:28:32,35,35,5.0.14.0,2,134,trial1,naming,0,0,0,0,pliers,0,2451,1,White_Screen.jpg,-1,37,Pliers_SlipJoint.jpg,-1
22420,13:28:32,35,35,5.0.14.0,2,135,trial1,naming,0,0,0,0,radioactive waste,0,4077,1,White_Screen.jpg,-1,104,RadioactiveContainer.jpg,-1
22420,13:28:32,35,35,5.0.14.0,2,136,trial1,naming,0,0,0,0,flute,0,3018,1,White_Screen.jpg,0,67,Clave.jpg,0
22420,13:28:32,35,35,5.0.14.0,2,137,trial1,naming,0,0,0,0,pen,0,1901,1,White_Screen.jpg,0,15,Pen_Ballpoint.jpg,0
22420,13:28:32,35,35,5.0.14.0,2,138,trial1,naming,0,0,0,0,Enter Name,0,10000,1,White_Screen.jpg,-1,108,OvenElement.jpg,-1
22420,13:28:32,35,35,5.0.14.0,2,139,trial1,naming,0,0,0,0,cookie cutter,0,3757,1,White_Screen.jpg,-1,33,CookieCutter_Bell.jpg,-1
22420,13:28:32,35,35,5.0.14.0,2,140,trial1,naming,0,0,0,0,toy worker,0,4051,1,White_Screen.jpg,0,121,Toy_FigurineEngineer.jpg,0
22420,13:28:32,35,35,5.0.14.0,2,141,trial1,naming,0,0,0,0,walker,0,2306,1,White_Screen.jpg,-1,24,Walker_Blue.jpg,-1
22420,13:28:32,35,35,5.0.14.0,2,142,trial1,naming,0,0,0,0,dust pan,0,4561,1,White_Screen.jpg,0,32,CementFinisher.jpg,0
22420,13:28:32,35,35,5.0.14.0,2,143,trial1,naming,0,0,0,0,plant hanger,0,3681,1,White_Screen.jpg,0,78,Flower_Basket.jpg,0
22420,13:28:32,35,35,5.0.14.0,2,144,trial1,naming,0,0,0,0,crayon,0,2615,1,White_Screen.jpg,0,80,Crayon_Green.jpg,0
22420,13:28:32,35,35,5.0.14.0,2,145,trial1,naming,0,0,0,0,window blinds,0,3085,1,White_Screen.jpg,0,75,WindowBlinds.jpg,0
22420,13:28:32,35,35,5.0.14.0,2,146,trial1,naming,0,0,0,0,lettuce,0,2742,1,White_Screen.jpg,-1,145,Lettuce_GreenLeaf.jpg,-1
22420,13:28:32,35,35,5.0.14.0,2,147,trial1,naming,0,0,0,0,slide thingy,0,6290,1,White_Screen.jpg,-1,142,SlideViewer.jpg,-1
22420,13:28:32,35,35,5.0.14.0,2,148,trial1,naming,0,0,0,0,ballerina figurine,0,5112,1,White_Screen.jpg,0,148,Figurine_Ballerina.jpg,0
22420,13:28:32,35,35,5.0.14.0,2,149,trial1,naming,0,0,0,0,microscope,0,3108,1,White_Screen.jpg,-1,106,Microscope.jpg,-1
22420,13:28:32,35,35,5.0.14.0,2,150,trial1,naming,0,0,0,0,tile,0,2311,1,White_Screen.jpg,0,144,FloorTile.jpg,0
22420,13:28:32,35,35,5.0.14.0,2,151,trial1,naming,0,0,0,0,playing cards,0,3695,1,White_Screen.jpg,0,54,Card_Deck.jpg,0
22420,13:28:32,35,35,5.0.14.0,2,152,trial1,naming,0,0,0,0,cell phone,0,4430,1,White_Screen.jpg,0,65,Phone_Flip.jpg,0
22420,13:28:32,35,35,5.0.14.0,2,154,trial1,naming,0,0,0,0,taillight,0,3173,1,White_Screen.jpg,0,113,TailLight.jpg,0
22420,13:28:32,35,35,5.0.14.0,2,155,trial1,naming,0,0,0,0,floor matt,0,2550,1,White_Screen.jpg,0,26,Mat_Car.jpg,0
22420,13:28:32,35,35,5.0.14.0,2,156,trial1,naming,0,0,0,0,bow,0,1466,1,White_Screen.jpg,-1,5,GiftBow.jpg,-1
22420,13:28:32,35,35,5.0.14.0,2,157,trial1,naming,0,0,0,0,weird duck,0,2591,1,White_Screen.jpg,0,19,Bird_Duck.jpg,0
22420,13:28:32,35,35,5.0.14.0,2,158,trial1,naming,0,0,0,0,record player,0,2478,1,White_Screen.jpg,0,30,RecordPlayer.jpg,0
22420,13:28:32,35,35,5.0.14.0,2,159,trial1,naming,0,0,0,0,stuffed bunny,0,3845,1,White_Screen.jpg,0,72,Toy_RabbitPlushie.jpg,0
22420,13:28:32,35,35,5.0.14.0,2,160,trial1,naming,0,0,0,0,barber chair,0,3126,1,White_Screen.jpg,0,51,Chair_Barber.jpg,0
22420,13:28:32,35,35,5.0.14.0,2,161,trial1,naming,0,0,0,0,beer flight,0,3033,1,White_Screen.jpg,0,95,ShotGlassTray.jpg,0
22420,13:28:32,35,35,5.0.14.0,2,162,trial1,naming,0,0,0,0,candle holder,0,3070,1,White_Screen.jpg,0,86,Glass_Wine.jpg,0
22420,13:28:32,35,35,5.0.14.0,2,163,trial1,naming,0,0,0,0,Enter Name,0,10000,1,White_Screen.jpg,0,88,ClothesDryingRack.jpg,0
22420,13:28:32,35,35,5.0.14.0,2,164,trial1,naming,0,0,0,0,chop sticks,0,4374,1,White_Screen.jpg,0,149,Chopsticks.jpg,0
22420,13:28:32,35,35,5.0.14.0,2,165,trial1,naming,0,0,0,0,dental pick,0,2549,1,White_Screen.jpg,0,43,DentalProbe.jpg,0
22420,13:28:32,35,35,5.0.14.0,2,166,trial1,naming,0,0,0,0,sea creature,0,6295,1,White_Screen.jpg,0,112,Squid_Orange.jpg,0
22420,13:28:32,35,35,5.0.14.0,2,167,trial1,naming,0,0,0,0,bath tub,0,2014,1,White_Screen.jpg,3,97,Bathtub.jpg,3
22420,13:28:32,35,35,5.0.14.0,2,168,trial1,naming,0,0,0,0,window blinds,0,2738,1,White_Screen.jpg,0,75,WindowBlinds.jpg,0
22420,13:28:32,35,35,5.0.14.0,2,169,trial1,naming,0,0,0,0,Enter Name,0,10000,1,White_Screen.jpg,0,57,JoustingSpear.jpg,0
22420,13:28:32,35,35,5.0.14.0,2,170,trial1,naming,0,0,0,0,car part,0,3204,1,White_Screen.jpg,-1,114,CoolingFan_Engine.jpg,-1
22420,13:28:32,35,35,5.0.14.0,2,171,trial1,naming,0,0,0,0,car,0,1393,1,White_Screen.jpg,0,119,Car_Vintage.jpg,0
22420,13:28:32,35,35,5.0.14.0,2,172,trial1,naming,0,0,0,0,carabiner,0,2660,1,White_Screen.jpg,-1,14,Carabiner_Orange.jpg,-1
22420,13:28:32,35,35,5.0.14.0,2,173,trial1,naming,0,0,0,0,planter,0,3393,1,White_Screen.jpg,0,134,Bucket_WoodenDark.jpg,0
22420,13:28:32,35,35,5.0.14.0,2,174,trial1,naming,0,0,0,0,paper towel,0,2853,1,White_Screen.jpg,0,128,PaperTowel_Brown.jpg,0
22420,13:28:32,35,35,5.0.14.0,2,175,trial1,naming,0,0,0,0,microwave,0,2835,1,White_Screen.jpg,-1,58,Microwave.jpg,-1
22420,13:28:32,35,35,5.0.14.0,2,176,trial1,naming,0,0,0,0,sqiud,0,2366,1,White_Screen.jpg,0,83,Squid_Pink.jpg,0
22420,13:28:32,35,35,5.0.14.0,2,177,trial1,naming,0,0,0,0,toy worker,0,3009,1,White_Screen.jpg,0,121,Toy_FigurineEngineer.jpg,0
22420,13:28:32,35,35,5.0.14.0,2,178,trial1,naming,0,0,0,0,necklace,0,2298,1,White_Screen.jpg,0,94,Necklace_Black.jpg,0
22420,13:28:32,35,35,5.0.14.0,2,179,trial1,naming,0,0,0,0,flour,0,1750,1,White_Screen.jpg,0,127,Bowl_Flour.jpg,0
22420,13:28:32,35,35,5.0.14.0,2,180,trial1,naming,0,0,0,0,toy,0,2051,1,White_Screen.jpg,-1,133,Toy_RobotTransformer.jpg,-1
22420,13:28:32,35,35,5.0.14.0,2,181,trial1,naming,0,0,0,0,bamboo,0,2592,1,White_Screen.jpg,-1,9,Bamboo.jpg,-1
22420,13:28:32,35,35,5.0.14.0,2,182,trial1,naming,0,0,0,0,bed,0,1444,1,White_Screen.jpg,0,63,Bed_QueenSize.jpg,0
22420,13:28:32,35,35,5.0.14.0,2,183,trial1,naming,0,0,0,0,bike pedal,0,2645,1,White_Screen.jpg,-1,10,BicyclePedal.jpg,-1
22420,13:28:32,35,35,5.0.14.0,2,184,trial1,naming,0,0,0,0,eight ball,0,2391,1,White_Screen.jpg,0,87,Ball_8.jpg,0
22420,13:28:32,35,35,5.0.14.0,2,185,trial1,naming,0,0,0,0,exercise equipment,0,4834,1,White_Screen.jpg,0,81,Exercise_Machine.jpg,0
22420,13:28:32,35,35,5.0.14.0,2,186,trial1,naming,0,0,0,0,candy,0,2768,1,White_Screen.jpg,-1,39,Candy_Chocolate.jpg,-1
22420,13:28:32,35,35,5.0.14.0,2,187,trial1,naming,0,0,0,0,amp,0,2217,1,White_Screen.jpg,0,138,Amp.jpg,0
22420,13:28:32,35,35,5.0.14.0,2,188,trial1,naming,0,0,0,0,backspace,0,2531,1,White_Screen.jpg,-1,70,ComputerKeyboard_Backspace.jpg,-1
22420,13:28:32,35,35,5.0.14.0,2,189,trial1,naming,0,0,0,0,container,0,2229,1,White_Screen.jpg,-1,124,Container_Tupperware.jpg,-1
22420,13:28:32,35,35,5.0.14.0,2,190,trial1,naming,0,0,0,0,camel,0,1776,1,White_Screen.jpg,0,115,Camel_Dromedary.jpg,0
22420,13:28:32,35,35,5.0.14.0,2,191,trial1,naming,0,0,0,0,pen,0,1624,1,White_Screen.jpg,0,15,Pen_Ballpoint.jpg,0
22420,13:28:32,35,35,5.0.14.0,2,192,trial1,naming,0,0,0,0,pulley,0,1894,1,White_Screen.jpg,0,99,PulleyWooden.jpg,0
22420,13:28:32,35,35,5.0.14.0,2,193,trial1,naming,0,0,0,0,jar,0,1504,1,White_Screen.jpg,0,136,Jar_Empty.jpg,0
22420,13:28:32,35,35,5.0.14.0,2,194,trial1,naming,0,0,0,0,parrot,0,4876,1,White_Screen.jpg,0,92,Bird_Budgie.jpg,0
22420,13:28:32,35,35,5.0.14.0,2,195,trial1,naming,0,0,0,0,oars,0,2598,1,White_Screen.jpg,0,61,Oars.jpg,0
22420,13:28:32,35,35,5.0.14.0,2,196,trial1,naming,0,0,0,0,dart,0,3383,1,White_Screen.jpg,-1,2,Dart.jpg,-1
22420,13:28:32,35,35,5.0.14.0,2,197,trial1,naming,0,0,0,0,walnut,0,2304,1,White_Screen.jpg,-1,130,Nuts_Walnut.jpg,-1
22420,13:28:32,35,35,5.0.14.0,2,198,trial1,naming,0,0,0,0,dremel,0,3255,1,White_Screen.jpg,0,96,AngleGrinder.jpg,0
22420,13:28:32,35,35,5.0.14.0,2,199,trial1,naming,0,0,0,0,playing cards,0,3090,1,White_Screen.jpg,0,54,Card_Deck.jpg,0
22420,13:28:32,35,35,5.0.14.0,2,200,trial1,naming,0,0,0,0,name tag,0,2326,1,White_Screen.jpg,0,117,Nametag.jpg,0
22420,13:28:32,35,35,5.0.14.0,2,201,trial1,naming,0,0,0,0,binoculars,0,3003,1,White_Screen.jpg,0,120,Binoculars.jpg,0
22420,13:28:32,35,35,5.0.14.0,2,202,trial1,naming,0,0,0,0,acorn,0,1844,1,White_Screen.jpg,0,132,Acorn.jpg,0
22420,13:28:32,35,35,5.0.14.0,2,203,trial1,naming,0,0,0,0,jewelry box,0,4865,1,White_Screen.jpg,0,109,Box_Jewellery.jpg,0
22420,13:28:32,35,35,5.0.14.0,3,1,demographics_block,gender,0,0,0,0,female,1,9813,0,0,0,0,0,0
22420,13:28:32,35,35,5.0.14.0,3,1,demographics_block,age,0,0,0,0,37,1,9813,0,0,0,0,0,0
22420,13:28:32,35,35,5.0.14.0,3,1,demographics_block,education,0,0,0,0,18,1,9813,0,0,0,0,0,0
22420,13:28:32,35,35,5.0.14.0,3,2,demographics_block,left_right_handed,0,0,0,0,Right,1,5475,0,0,0,0,0,0
22420,13:28:32,35,35,5.0.14.0,3,2,demographics_block,raceoption1,0,0,0,0,0,1,5475,0,0,0,0,0,0
22420,13:28:32,35,35,5.0.14.0,3,2,demographics_block,raceoption2,0,0,0,0,,1,5475,0,0,0,0,0,0
22420,13:28:32,35,35,5.0.14.0,3,2,demographics_block,raceoption3,0,0,0,0,,1,5475,0,0,0,0,0,0
22420,13:28:32,35,35,5.0.14.0,3,2,demographics_block,raceoption4,0,0,0,0,,1,5475,0,0,0,0,0,0
22420,13:28:32,35,35,5.0.14.0,3,2,demographics_block,raceoption5,0,0,0,0,,1,5475,0,0,0,0,0,0
22420,13:28:32,35,35,5.0.14.0,3,2,demographics_block,raceoption6,0,0,0,0,,1,5475,0,0,0,0,0,0
22420,13:28:32,35,35,5.0.14.0,3,2,demographics_block,raceoption7,0,0,0,0,,1,5475,0,0,0,0,0,0
22420,13:28:32,35,35,5.0.14.0,3,2,demographics_block,raceoption8,0,0,0,0,,1,5475,0,0,0,0,0,0
22420,13:28:32,35,35,5.0.14.0,3,2,demographics_block,raceoption9,0,0,0,0,,1,5475,0,0,0,0,0,0
22420,13:28:32,35,35,5.0.14.0,3,2,demographics_block,raceother,0,0,0,0,,1,5475,0,0,0,0,0,0
22420,13:28:32,35,35,5.0.14.0,3,2,demographics_block,raceother,0,0,0,0,,1,5475,0,0,0,0,0,0
22420,13:28:32,35,35,5.0.14.0,3,2,demographics_block,english_language,0,0,0,0,Yes,1,5475,0,0,0,0,0,0
22420,13:28:32,35,35,5.0.14.0,3,2,demographics_block,english_languageother,0,0,0,0,,1,5475,0,0,0,0,0,0
22420,13:28:32,35,35,5.0.14.0,3,3,demographics_block,eyesight,0,0,0,0,Yes,1,4430,0,0,0,0,0,0
22420,13:28:32,35,35,5.0.14.0,3,3,demographics_block,colorblind,0,0,0,0,No,1,4430,0,0,0,0,0,0
22420,13:28:32,35,35,5.0.14.0,4,1,worker_id_block,worker_id_textbox,0,0,0,0,AQXRHIMQ7UK7O,1,3894,0,0,0,0,0,0
22420,14:31:36,37,37,5.0.14.0,2,1,trial1,naming,0,0,0,0,flag,0,7890,1,White_Screen.jpg,25,101,Flags_CheckeredRacing.jpg,25
22420,14:31:36,37,37,5.0.14.0,2,2,trial1,naming,0,0,0,0,bowl,0,6227,1,White_Screen.jpg,17,127,Bowl_Flour.jpg,17
22420,14:31:36,37,37,5.0.14.0,2,3,trial1,naming,0,0,0,0,paper towel,0,4915,1,White_Screen.jpg,14,128,PaperTowel_Brown.jpg,14
22420,14:31:36,37,37,5.0.14.0,2,4,trial1,naming,0,0,0,0,,0,10000,1,White_Screen.jpg,14,77,Stick_Stirring.jpg,14
22420,14:31:36,37,37,5.0.14.0,2,5,trial1,naming,0,0,0,0,page,0,6844,1,White_Screen.jpg,14,117,Nametag.jpg,14
22420,14:31:36,37,37,5.0.14.0,2,6,trial1,naming,0,0,0,0,flamingo,0,6040,1,White_Screen.jpg,14,93,Flamingo_Real.jpg,14
22420,14:31:36,37,37,5.0.14.0,2,7,trial1,naming,0,0,0,0,baseball\,0,4613,1,White_Screen.jpg,15,146,Ball_Baseball.jpg,15
22420,14:31:36,37,37,5.0.14.0,2,8,trial1,naming,0,0,0,0,spray,0,3572,1,White_Screen.jpg,14,73,Bottle_CosmeticSpray.jpg,14
22420,14:31:36,37,37,5.0.14.0,2,9,trial1,naming,0,0,0,0,glasses,0,3126,1,White_Screen.jpg,14,131,Glasses_Reading.jpg,14
22420,14:31:36,37,37,5.0.14.0,2,10,trial1,naming,0,0,0,0,chomp sticks,0,4021,1,White_Screen.jpg,14,149,Chopsticks.jpg,14
22420,14:31:36,37,37,5.0.14.0,2,11,trial1,naming,0,0,0,0,printer,0,3946,1,White_Screen.jpg,14,18,Photocopier.jpg,14
22420,14:31:36,37,37,5.0.14.0,2,12,trial1,naming,0,0,0,0,horse,0,2933,1,White_Screen.jpg,14,46,Statue_Horse.jpg,14
22420,14:31:36,37,37,5.0.14.0,2,13,trial1,naming,0,0,0,0,jar,0,4292,1,White_Screen.jpg,14,50,Jar_Capers.jpg,14
22420,14:31:36,37,37,5.0.14.0,2,14,trial1,naming,0,0,0,0,sucker,0,2525,1,White_Screen.jpg,14,62,Lollipop_Grape.jpg,14
22420,14:31:36,37,37,5.0.14.0,2,15,trial1,naming,0,0,0,0,disco ball,0,4401,1,White_Screen.jpg,9,13,Ball_Disco.jpg,9
22420,14:31:36,37,37,5.0.14.0,2,16,trial1,naming,0,0,0,0,bells,0,3552,1,White_Screen.jpg,14,122,Bells_Christmas.jpg,14
22420,14:31:36,37,37,5.0.14.0,2,17,trial1,naming,0,0,0,0,purse,0,3511,1,White_Screen.jpg,14,40,Handbag.jpg,14
22420,14:31:36,37,37,5.0.14.0,2,18,trial1,naming,0,0,0,0,,0,10000,1,White_Screen.jpg,16,126,Beater_Electric.jpg,16
22420,14:31:36,37,37,5.0.14.0,2,19,trial1,naming,0,0,0,0,Enter Name,0,10000,1,White_Screen.jpg,15,121,Toy_FigurineEngineer.jpg,15
22420,14:31:36,37,37,5.0.14.0,2,20,trial1,naming,0,0,0,0,Enter Name,0,10000,1,White_Screen.jpg,14,34,Blackboard.jpg,14
22420,14:31:36,37,37,5.0.14.0,2,21,trial1,naming,0,0,0,0,Enter Name,0,10000,1,White_Screen.jpg,15,83,Squid_Pink.jpg,15
22420,14:31:36,37,37,5.0.14.0,2,22,trial1,naming,0,0,0,0,Enter Name,0,10000,1,White_Screen.jpg,14,148,Figurine_Ballerina.jpg,14
22420,14:31:36,37,37,5.0.14.0,2,23,trial1,naming,0,0,0,0,Enter Name,0,10000,1,White_Screen.jpg,22,120,Binoculars.jpg,22
22420,14:31:36,37,37,5.0.14.0,2,24,trial1,naming,0,0,0,0,Enter Name,0,10000,1,White_Screen.jpg,14,7,House_CeramicGingerbread.jpg,14
22420,14:31:36,37,37,5.0.14.0,2,25,trial1,naming,0,0,0,0,Enter Name,0,10000,1,White_Screen.jpg,14,12,Sand.jpg,14
22420,14:31:36,37,37,5.0.14.0,2,26,trial1,naming,0,0,0,0,Enter Name,0,10000,1,White_Screen.jpg,14,26,Mat_Car.jpg,14
22420,14:31:36,37,37,5.0.14.0,2,27,trial1,naming,0,0,0,0,Enter Name,0,10000,1,White_Screen.jpg,14,31,Lock_Combination.jpg,14
22420,14:31:36,37,37,5.0.14.0,2,28,trial1,naming,0,0,0,0,Enter Name,0,10000,1,White_Screen.jpg,14,109,Box_Jewellery.jpg,14
22420,14:31:36,37,37,5.0.14.0,2,29,trial1,naming,0,0,0,0,Enter Name,0,10000,1,White_Screen.jpg,14,36,Comb.jpg,14
22420,14:31:36,37,37,5.0.14.0,2,30,trial1,naming,0,0,0,0,Enter Name,0,10000,1,White_Screen.jpg,14,6,PortaPotty.jpg,14
22420,14:31:36,37,37,5.0.14.0,2,31,trial1,naming,0,0,0,0,Enter Name,0,10000,1,White_Screen.jpg,15,64,SelfieStick.jpg,15
22420,14:31:36,37,37,5.0.14.0,2,32,trial1,naming,0,0,0,0,Enter Name,0,10000,1,White_Screen.jpg,14,44,Table_AntiqueWooden.jpg,14
22420,14:31:36,37,37,5.0.14.0,2,33,trial1,naming,0,0,0,0,Enter Name,0,10000,1,White_Screen.jpg,14,74,Mirror_Handheld.jpg,14
22420,14:31:36,37,37,5.0.14.0,2,34,trial1,naming,0,0,0,0,Enter Name,0,10000,1,White_Screen.jpg,16,111,Piano_Upright.jpg,16
22420,14:31:36,37,37,5.0.14.0,2,35,trial1,naming,0,0,0,0,Enter Name,0,10000,1,White_Screen.jpg,20,42,EyeChart.jpg,20
22420,14:31:36,37,37,5.0.14.0,2,36,trial1,naming,0,0,0,0,Enter Name,0,10000,1,White_Screen.jpg,14,25,CameoPortrait.jpg,14
22420,14:31:36,37,37,5.0.14.0,2,37,trial1,naming,0,0,0,0,Enter Name,0,10000,1,White_Screen.jpg,14,8,Cheesegrater_Box.jpg,14
22420,14:31:36,37,37,5.0.14.0,2,38,trial1,naming,0,0,0,0,Enter Name,0,10000,1,White_Screen.jpg,14,20,Pickaxe.jpg,14
22420,14:31:36,37,37,5.0.14.0,2,39,trial1,naming,0,0,0,0,Enter Name,0,10000,1,White_Screen.jpg,14,94,Necklace_Black.jpg,14
22420,14:31:36,37,37,5.0.14.0,2,40,trial1,naming,0,0,0,0,Enter Name,0,10000,1,White_Screen.jpg,14,41,Spear.jpg,14
22420,14:31:36,37,37,5.0.14.0,2,41,trial1,naming,0,0,0,0,Enter Name,0,10000,1,White_Screen.jpg,14,112,Squid_Orange.jpg,14
22420,14:31:36,37,37,5.0.14.0,2,42,trial1,naming,0,0,0,0,Enter Name,0,10000,1,White_Screen.jpg,14,138,Amp.jpg,14
22420,14:31:36,37,37,5.0.14.0,2,43,trial1,naming,0,0,0,0,Enter Name,0,10000,1,White_Screen.jpg,14,80,Crayon_Green.jpg,14
22420,14:31:36,37,37,5.0.14.0,2,44,trial1,naming,0,0,0,0,Enter Name,0,10000,1,White_Screen.jpg,14,59,Sandwich_Ham.jpg,14
22420,14:31:36,37,37,5.0.14.0,2,45,trial1,naming,0,0,0,0,Enter Name,0,10000,1,White_Screen.jpg,14,5,GiftBow.jpg,14
22420,14:31:36,37,37,5.0.14.0,2,46,trial1,naming,0,0,0,0,Enter Name,0,10000,1,White_Screen.jpg,14,134,Bucket_WoodenDark.jpg,14
22420,14:31:36,37,37,5.0.14.0,2,47,trial1,naming,0,0,0,0,Enter Name,0,10000,1,White_Screen.jpg,14,115,Camel_Dromedary.jpg,14
22420,14:31:36,37,37,5.0.14.0,2,48,trial1,naming,0,0,0,0,Enter Name,0,10000,1,White_Screen.jpg,14,107,Briefcase_Leather.jpg,14
22420,14:31:36,37,37,5.0.14.0,2,49,trial1,naming,0,0,0,0,Enter Name,0,10000,1,White_Screen.jpg,14,11,JuicerCitrus.jpg,14
22420,14:31:36,37,37,5.0.14.0,2,50,trial1,naming,0,0,0,0,Enter Name,0,10000,1,White_Screen.jpg,14,97,Bathtub.jpg,14
22420,14:31:36,37,37,5.0.14.0,2,52,trial1,naming,0,0,0,0,Enter Name,0,10000,1,White_Screen.jpg,14,16,Toy_DogBall.jpg,14
22420,14:31:36,37,37,5.0.14.0,2,53,trial1,naming,0,0,0,0,Enter Name,0,10000,1,White_Screen.jpg,14,2,Dart.jpg,14
22420,14:31:36,37,37,5.0.14.0,2,54,trial1,naming,0,0,0,0,Enter Name,0,10000,1,White_Screen.jpg,15,56,Toy_TableSet.jpg,15
22420,14:31:36,37,37,5.0.14.0,2,55,trial1,naming,0,0,0,0,Enter Name,0,10000,1,White_Screen.jpg,14,103,Purse.jpg,14
22420,14:31:36,37,37,5.0.14.0,2,56,trial1,naming,0,0,0,0,Enter Name,0,10000,1,White_Screen.jpg,14,100,CoffeeGrinder.jpg,14
22420,14:31:36,37,37,5.0.14.0,2,57,trial1,naming,0,0,0,0,Enter Name,0,10000,1,White_Screen.jpg,14,123,Radish.jpg,14
22420,14:31:36,37,37,5.0.14.0,2,58,trial1,naming,0,0,0,0,Enter Name,0,10000,1,White_Screen.jpg,14,29,MortarPestle_WhiteMarble.jpg,14
22420,14:31:36,37,37,5.0.14.0,2,59,trial1,naming,0,0,0,0,Enter Name,0,10000,1,White_Screen.jpg,16,70,ComputerKeyboard_Backspace.jpg,16
22420,14:31:36,37,37,5.0.14.0,2,60,trial1,naming,0,0,0,0,Enter Name,0,10000,1,White_Screen.jpg,14,58,Microwave.jpg,14
22420,14:31:36,37,37,5.0.14.0,2,61,trial1,naming,0,0,0,0,Enter Name,0,10000,1,White_Screen.jpg,15,39,Candy_Chocolate.jpg,15
22420,14:31:36,37,37,5.0.14.0,2,62,trial1,naming,0,0,0,0,Enter Name,0,10000,1,White_Screen.jpg,14,57,JoustingSpear.jpg,14
22420,14:31:36,37,37,5.0.14.0,2,63,trial1,naming,0,0,0,0,Enter Name,0,10000,1,White_Screen.jpg,14,3,NailClipper.jpg,14
22420,14:31:36,37,37,5.0.14.0,2,64,trial1,naming,0,0,0,0,Enter Name,0,10000,1,White_Screen.jpg,14,145,Lettuce_GreenLeaf.jpg,14
22420,14:31:36,37,37,5.0.14.0,2,65,trial1,naming,0,0,0,0,Enter Name,0,10000,1,White_Screen.jpg,14,92,Bird_Budgie.jpg,14
22420,14:31:36,37,37,5.0.14.0,2,66,trial1,naming,0,0,0,0,Enter Name,0,10000,1,White_Screen.jpg,14,95,ShotGlassTray.jpg,14
22420,14:31:36,37,37,5.0.14.0,2,67,trial1,naming,0,0,0,0,Enter Name,0,10000,1,White_Screen.jpg,14,135,Calculator.jpg,14
22420,14:31:36,37,37,5.0.14.0,2,68,trial1,naming,0,0,0,0,Enter Name,0,10000,1,White_Screen.jpg,14,28,StockingChristmas.jpg,14
22420,14:31:36,37,37,5.0.14.0,2,69,trial1,naming,0,0,0,0,Enter Name,0,10000,1,White_Screen.jpg,14,43,DentalProbe.jpg,14
22420,14:31:36,37,37,5.0.14.0,2,70,trial1,naming,0,0,0,0,Enter Name,0,10000,1,White_Screen.jpg,14,78,Flower_Basket.jpg,14
22420,14:31:36,37,37,5.0.14.0,2,71,trial1,naming,0,0,0,0,Enter Name,0,10000,1,White_Screen.jpg,14,67,Clave.jpg,14
22420,14:31:36,37,37,5.0.14.0,2,72,trial1,naming,0,0,0,0,Enter Name,0,10000,1,White_Screen.jpg,14,22,Crown.jpg,14
22420,14:31:36,37,37,5.0.14.0,2,73,trial1,naming,0,0,0,0,Enter Name,0,10000,1,White_Screen.jpg,15,89,CarJack.jpg,15
22420,14:31:36,37,37,5.0.14.0,2,74,trial1,naming,0,0,0,0,Enter Name,0,10000,1,White_Screen.jpg,14,10,BicyclePedal.jpg,14
22420,14:31:36,37,37,5.0.14.0,2,75,trial1,naming,0,0,0,0,Enter Name,0,10000,1,White_Screen.jpg,14,15,Pen_Ballpoint.jpg,14
22420,14:31:36,37,37,5.0.14.0,2,76,trial1,naming,0,0,0,0,Enter Name,0,10000,1,White_Screen.jpg,18,150,Broccoli.jpg,18
22420,14:31:36,37,37,5.0.14.0,2,77,trial1,naming,0,0,0,0,Enter Name,0,10000,1,White_Screen.jpg,14,142,SlideViewer.jpg,14
22420,14:31:36,37,37,5.0.14.0,2,78,trial1,naming,0,0,0,0,Enter Name,0,10000,1,White_Screen.jpg,15,37,Pliers_SlipJoint.jpg,15
22420,14:31:36,37,37,5.0.14.0,2,79,trial1,naming,0,0,0,0,Enter Name,0,10000,1,White_Screen.jpg,14,85,Box_WoodenOpen.jpg,14
22420,14:31:36,37,37,5.0.14.0,2,80,trial1,naming,0,0,0,0,Enter Name,0,10000,1,White_Screen.jpg,15,65,Phone_Flip.jpg,15
22420,14:31:36,37,37,5.0.14.0,2,81,trial1,naming,0,0,0,0,Enter Name,0,10000,1,White_Screen.jpg,14,53,BusStop.jpg,14
22420,14:31:36,37,37,5.0.14.0,2,82,trial1,naming,0,0,0,0,Enter Name,0,10000,1,White_Screen.jpg,14,88,ClothesDryingRack.jpg,14
22420,14:31:36,37,37,5.0.14.0,2,83,trial1,naming,0,0,0,0,Enter Name,0,10000,1,White_Screen.jpg,14,47,Squash_Butternut.jpg,14
22420,14:31:36,37,37,5.0.14.0,2,84,trial1,naming,0,0,0,0,Enter Name,0,10000,1,White_Screen.jpg,14,9,Bamboo.jpg,14
22420,14:31:36,37,37,5.0.14.0,2,85,trial1,naming,0,0,0,0,Enter Name,0,10000,1,White_Screen.jpg,14,119,Car_Vintage.jpg,14
22420,14:31:36,37,37,5.0.14.0,2,86,trial1,naming,0,0,0,0,Enter Name,0,10000,1,White_Screen.jpg,16,24,Walker_Blue.jpg,16
22420,14:31:36,37,37,5.0.14.0,2,87,trial1,naming,0,0,0,0,Enter Name,0,10000,1,White_Screen.jpg,14,75,WindowBlinds.jpg,14
22420,14:31:36,37,37,5.0.14.0,2,88,trial1,naming,0,0,0,0,Enter Name,0,10000,1,White_Screen.jpg,14,19,Bird_Duck.jpg,14
22420,14:31:36,37,37,5.0.14.0,2,89,trial1,naming,0,0,0,0,Enter Name,0,10000,1,White_Screen.jpg,15,90,Decoration_ChristmasRed.jpg,15
22420,14:31:36,37,37,5.0.14.0,2,90,trial1,naming,0,0,0,0,Enter Name,0,10000,1,White_Screen.jpg,9,4,Shovel_Sandbox.jpg,9
22420,14:31:36,37,37,5.0.14.0,2,91,trial1,naming,0,0,0,0,Enter Name,0,10000,1,White_Screen.jpg,14,49,Flower_Tulip.jpg,14
22420,14:31:36,37,37,5.0.14.0,2,92,trial1,naming,0,0,0,0,Enter Name,0,10000,1,White_Screen.jpg,14,104,RadioactiveContainer.jpg,14
22420,14:31:36,37,37,5.0.14.0,2,93,trial1,naming,0,0,0,0,Enter Name,0,10000,1,White_Screen.jpg,14,68,Stingray.jpg,14
22420,14:31:36,37,37,5.0.14.0,2,94,trial1,naming,0,0,0,0,Enter Name,0,10000,1,White_Screen.jpg,14,72,Toy_RabbitPlushie.jpg,14
22420,14:31:36,37,37,5.0.14.0,2,95,trial1,naming,0,0,0,0,Enter Name,0,10000,1,White_Screen.jpg,14,69,Key_Car.jpg,14
22420,14:31:36,37,37,5.0.14.0,2,96,trial1,naming,0,0,0,0,Enter Name,0,10000,1,White_Screen.jpg,18,48,Cactus.jpg,18
22420,14:31:36,37,37,5.0.14.0,2,97,trial1,naming,0,0,0,0,Enter Name,0,10000,1,White_Screen.jpg,14,30,RecordPlayer.jpg,14
22420,14:31:36,37,37,5.0.14.0,2,98,trial1,naming,0,0,0,0,Enter Name,0,10000,1,White_Screen.jpg,14,45,Lynx.jpg,14
22420,14:31:36,37,37,5.0.14.0,2,99,trial1,naming,0,0,0,0,Enter Name,0,10000,1,White_Screen.jpg,17,110,Pillar.jpg,17
22420,14:31:36,37,37,5.0.14.0,2,100,trial1,naming,0,0,0,0,Enter Name,0,10000,1,White_Screen.jpg,14,87,Ball_8.jpg,14
22420,14:31:36,37,37,5.0.14.0,2,101,trial1,naming,0,0,0,0,Enter Name,0,10000,1,White_Screen.jpg,14,106,Microscope.jpg,14
22420,14:31:36,37,37,5.0.14.0,2,103,trial1,naming,0,0,0,0,Enter Name,0,10000,1,White_Screen.jpg,14,137,Bowl_Pasta.jpg,14
22420,14:31:36,37,37,5.0.14.0,2,104,trial1,naming,0,0,0,0,Enter Name,0,10000,1,White_Screen.jpg,14,114,CoolingFan_Engine.jpg,14
22420,14:31:36,37,37,5.0.14.0,2,105,trial1,naming,0,0,0,0,Enter Name,0,10000,1,White_Screen.jpg,14,132,Acorn.jpg,14
22420,14:31:36,37,37,5.0.14.0,2,106,trial1,naming,0,0,0,0,Enter Name,0,10000,1,White_Screen.jpg,14,66,Computer_CPU.jpg,14
22420,14:31:36,37,37,5.0.14.0,2,107,trial1,naming,0,0,0,0,Enter Name,0,10000,1,White_Screen.jpg,14,17,DrawingCompass.jpg,14
22420,14:31:36,37,37,5.0.14.0,2,108,trial1,naming,0,0,0,0,Enter Name,0,10000,1,White_Screen.jpg,14,21,ProcessorFood_Modern.jpg,14
22420,14:31:36,37,37,5.0.14.0,2,109,trial1,naming,0,0,0,0,Enter Name,0,10000,1,White_Screen.jpg,14,35,Exercise_Stretch.jpg,14
22420,14:31:36,37,37,5.0.14.0,2,110,trial1,naming,0,0,0,0,Enter Name,0,10000,1,White_Screen.jpg,14,55,Boot_Rain.jpg,14
22420,14:31:36,37,37,5.0.14.0,2,111,trial1,naming,0,0,0,0,Enter Name,0,10000,1,White_Screen.jpg,14,51,Chair_Barber.jpg,14
22420,14:31:36,37,37,5.0.14.0,2,112,trial1,naming,0,0,0,0,Enter Name,0,10000,1,White_Screen.jpg,16,76,Cinnamonroll.jpg,16
22420,14:31:36,37,37,5.0.14.0,2,113,trial1,naming,0,0,0,0,Enter Name,0,10000,1,White_Screen.jpg,14,98,Sign_OneWay.jpg,14
22420,14:31:36,37,37,5.0.14.0,2,114,trial1,naming,0,0,0,0,Enter Name,0,10000,1,White_Screen.jpg,17,102,HairCurler.jpg,17
22420,14:31:36,37,37,5.0.14.0,2,115,trial1,naming,0,0,0,0,Enter Name,0,10000,1,White_Screen.jpg,20,133,Toy_RobotTransformer.jpg,20
22420,14:31:36,37,37,5.0.14.0,2,116,trial1,naming,0,0,0,0,Enter Name,0,10000,1,White_Screen.jpg,9,23,Pasta_Penne.jpg,9
22420,14:31:36,37,37,5.0.14.0,2,117,trial1,naming,0,0,0,0,Enter Name,0,10000,1,White_Screen.jpg,14,27,Shed.jpg,14
22420,14:31:36,37,37,5.0.14.0,2,118,trial1,naming,0,0,0,0,Enter Name,0,10000,1,White_Screen.jpg,14,14,Carabiner_Orange.jpg,14
22420,14:31:36,37,37,5.0.14.0,2,119,trial1,naming,0,0,0,0,Enter Name,0,10000,1,White_Screen.jpg,14,54,Card_Deck.jpg,14
22420,14:31:36,37,37,5.0.14.0,2,120,trial1,naming,0,0,0,0,Enter Name,0,10000,1,White_Screen.jpg,15,140,Mailbox_Community.jpg,15
22420,14:31:36,37,37,5.0.14.0,2,121,trial1,naming,0,0,0,0,Enter Name,0,10000,1,White_Screen.jpg,14,124,Container_Tupperware.jpg,14
22420,14:31:36,37,37,5.0.14.0,2,122,trial1,naming,0,0,0,0,Enter Name,0,10000,1,White_Screen.jpg,14,143,Can_MilkAntique.jpg,14
22420,14:31:36,37,37,5.0.14.0,2,123,trial1,naming,0,0,0,0,Enter Name,0,10000,1,White_Screen.jpg,14,144,FloorTile.jpg,14
22420,14:31:36,37,37,5.0.14.0,2,124,trial1,naming,0,0,0,0,Enter Name,0,10000,1,White_Screen.jpg,14,32,CementFinisher.jpg,14
22420,14:31:36,37,37,5.0.14.0,2,125,trial1,naming,0,0,0,0,Enter Name,0,10000,1,White_Screen.jpg,14,84,Hook_Double.jpg,14
22420,14:31:36,37,37,5.0.14.0,2,126,trial1,naming,0,0,0,0,Enter Name,0,10000,1,White_Screen.jpg,14,129,SkiPoles.jpg,14
22420,14:31:36,37,37,5.0.14.0,2,127,trial1,naming,0,0,0,0,Enter Name,0,10000,1,White_Screen.jpg,14,63,Bed_QueenSize.jpg,14
22420,14:31:36,37,37,5.0.14.0,2,128,trial1,naming,0,0,0,0,Enter Name,0,10000,1,White_Screen.jpg,14,118,Inukshuk.jpg,14
22420,14:31:36,37,37,5.0.14.0,2,129,trial1,naming,0,0,0,0,Enter Name,0,10000,1,White_Screen.jpg,14,147,Tractor_Orange.jpg,14
22420,14:31:36,37,37,5.0.14.0,2,130,trial1,naming,0,0,0,0,Enter Name,0,10000,1,White_Screen.jpg,15,81,Exercise_Machine.jpg,15
22420,14:31:36,37,37,5.0.14.0,2,131,trial1,naming,0,0,0,0,Enter Name,0,10000,1,White_Screen.jpg,14,116,IceScraper.jpg,14
22420,14:31:36,37,37,5.0.14.0,2,132,trial1,naming,0,0,0,0,Enter Name,0,10000,1,White_Screen.jpg,15,86,Glass_Wine.jpg,15
22420,14:31:36,37,37,5.0.14.0,2,133,trial1,naming,0,0,0,0,Enter Name,0,10000,1,White_Screen.jpg,14,60,MonaLisa.jpg,14
22420,14:31:36,37,37,5.0.14.0,2,134,trial1,naming,0,0,0,0,Enter Name,0,10000,1,White_Screen.jpg,14,71,Trophy.jpg,14
22420,14:31:36,37,37,5.0.14.0,2,135,trial1,naming,0,0,0,0,Enter Name,0,10000,1,White_Screen.jpg,14,79,Bird_Eagle.jpg,14
22420,14:31:36,37,37,5.0.14.0,2,136,trial1,naming,0,0,0,0,Enter Name,0,10000,1,White_Screen.jpg,14,61,Oars.jpg,14
22420,14:31:36,37,37,5.0.14.0,2,137,trial1,naming,0,0,0,0,Enter Name,0,10000,1,White_Screen.jpg,14,52,Tray_Muffin.jpg,14
22420,14:31:36,37,37,5.0.14.0,2,138,trial1,naming,0,0,0,0,Enter Name,0,10000,1,White_Screen.jpg,14,33,CookieCutter_Bell.jpg,14
22420,14:31:36,37,37,5.0.14.0,2,139,trial1,naming,0,0,0,0,Enter Name,0,10000,1,White_Screen.jpg,14,141,Scythe.jpg,14
22420,14:31:36,37,37,5.0.14.0,2,140,trial1,naming,0,0,0,0,Enter Name,0,10000,1,White_Screen.jpg,14,38,Box_Cutlery.jpg,14
22420,14:31:36,37,37,5.0.14.0,2,141,trial1,naming,0,0,0,0,Enter Name,0,10000,1,White_Screen.jpg,15,91,Tube_Paint.jpg,15
22420,14:31:36,37,37,5.0.14.0,2,142,trial1,naming,0,0,0,0,Enter Name,0,10000,1,White_Screen.jpg,14,1,Blanket.jpg,14
22420,14:31:36,37,37,5.0.14.0,2,143,trial1,naming,0,0,0,0,Enter Name,0,10000,1,White_Screen.jpg,14,99,PulleyWooden.jpg,14
22420,14:31:36,37,37,5.0.14.0,2,144,trial1,naming,0,0,0,0,Enter Name,0,10000,1,White_Screen.jpg,16,125,LightBulb_Blue.jpg,16
22420,14:31:36,37,37,5.0.14.0,2,145,trial1,naming,0,0,0,0,Enter Name,0,10000,1,White_Screen.jpg,14,105,Pricegun.jpg,14
22420,14:31:36,37,37,5.0.14.0,2,146,trial1,naming,0,0,0,0,Enter Name,0,10000,1,White_Screen.jpg,14,139,CoffeePot.jpg,14
22420,14:31:36,37,37,5.0.14.0,2,147,trial1,naming,0,0,0,0,Enter Name,0,10000,1,White_Screen.jpg,15,108,OvenElement.jpg,15
22420,14:31:36,37,37,5.0.14.0,2,148,trial1,naming,0,0,0,0,Enter Name,0,10000,1,White_Screen.jpg,14,82,Speaker_Single.jpg,14
22420,14:31:36,37,37,5.0.14.0,2,149,trial1,naming,0,0,0,0,Enter Name,0,10000,1,White_Screen.jpg,14,96,AngleGrinder.jpg,14
22420,14:31:36,37,37,5.0.14.0,2,150,trial1,naming,0,0,0,0,Enter Name,0,10000,1,White_Screen.jpg,14,136,Jar_Empty.jpg,14
22420,14:31:36,37,37,5.0.14.0,2,151,trial1,naming,0,0,0,0,Enter Name,0,10000,1,White_Screen.jpg,14,130,Nuts_Walnut.jpg,14
22420,14:31:36,37,37,5.0.14.0,2,152,trial1,naming,0,0,0,0,Enter Name,0,10000,1,White_Screen.jpg,14,113,TailLight.jpg,14
22420,14:31:36,37,37,5.0.14.0,2,154,trial1,naming,0,0,0,0,Enter Name,0,10000,1,White_Screen.jpg,14,44,Table_AntiqueWooden.jpg,14
22420,14:31:36,37,37,5.0.14.0,2,155,trial1,naming,0,0,0,0,Enter Name,0,10000,1,White_Screen.jpg,15,13,Ball_Disco.jpg,15
22420,14:31:36,37,37,5.0.14.0,2,156,trial1,naming,0,0,0,0,Enter Name,0,10000,1,White_Screen.jpg,14,135,Calculator.jpg,14
22420,14:31:36,37,37,5.0.14.0,2,157,trial1,naming,0,0,0,0,Enter Name,0,10000,1,White_Screen.jpg,14,63,Bed_QueenSize.jpg,14
22420,14:31:36,37,37,5.0.14.0,2,158,trial1,naming,0,0,0,0,Enter Name,0,10000,1,White_Screen.jpg,14,49,Flower_Tulip.jpg,14
22420,14:31:36,37,37,5.0.14.0,2,159,trial1,naming,0,0,0,0,Enter Name,0,10000,1,White_Screen.jpg,14,133,Toy_RobotTransformer.jpg,14
22420,14:31:36,37,37,5.0.14.0,2,160,trial1,naming,0,0,0,0,Enter Name,0,10000,1,White_Screen.jpg,14,12,Sand.jpg,14
22420,14:31:36,37,37,5.0.14.0,2,161,trial1,naming,0,0,0,0,Enter Name,0,10000,1,White_Screen.jpg,14,130,Nuts_Walnut.jpg,14
22420,14:31:36,37,37,5.0.14.0,2,162,trial1,naming,0,0,0,0,Enter Name,0,10000,1,White_Screen.jpg,14,41,Spear.jpg,14
22420,14:31:36,37,37,5.0.14.0,2,163,trial1,naming,0,0,0,0,Enter Name,0,10000,1,White_Screen.jpg,14,87,Ball_8.jpg,14
22420,14:31:36,37,37,5.0.14.0,2,164,trial1,naming,0,0,0,0,Enter Name,0,10000,1,White_Screen.jpg,14,60,MonaLisa.jpg,14
22420,14:31:36,37,37,5.0.14.0,2,165,trial1,naming,0,0,0,0,Enter Name,0,10000,1,White_Screen.jpg,14,127,Bowl_Flour.jpg,14
22420,14:31:36,37,37,5.0.14.0,2,166,trial1,naming,0,0,0,0,Enter Name,0,10000,1,White_Screen.jpg,16,95,ShotGlassTray.jpg,16
22420,14:31:36,37,37,5.0.14.0,2,167,trial1,naming,0,0,0,0,Enter Name,0,10000,1,White_Screen.jpg,16,64,SelfieStick.jpg,16
22420,14:31:36,37,37,5.0.14.0,2,168,trial1,naming,0,0,0,0,Enter Name,0,10000,1,White_Screen.jpg,14,40,Handbag.jpg,14
22420,14:31:36,37,37,5.0.14.0,2,169,trial1,naming,0,0,0,0,Enter Name,0,10000,1,White_Screen.jpg,14,101,Flags_CheckeredRacing.jpg,14
22420,14:31:36,37,37,5.0.14.0,2,170,trial1,naming,0,0,0,0,Enter Name,0,10000,1,White_Screen.jpg,14,34,Blackboard.jpg,14
22420,14:31:36,37,37,5.0.14.0,2,171,trial1,naming,0,0,0,0,Enter Name,0,10000,1,White_Screen.jpg,14,59,Sandwich_Ham.jpg,14
22420,14:31:36,37,37,5.0.14.0,2,172,trial1,naming,0,0,0,0,Enter Name,0,10000,1,White_Screen.jpg,14,39,Candy_Chocolate.jpg,14
22420,14:31:36,37,37,5.0.14.0,2,173,trial1,naming,0,0,0,0,Enter Name,0,10000,1,White_Screen.jpg,14,74,Mirror_Handheld.jpg,14
22420,14:31:36,37,37,5.0.14.0,2,174,trial1,naming,0,0,0,0,Enter Name,0,10000,1,White_Screen.jpg,14,138,Amp.jpg,14
22420,14:31:36,37,37,5.0.14.0,2,175,trial1,naming,0,0,0,0,Enter Name,0,10000,1,White_Screen.jpg,9,23,Pasta_Penne.jpg,9
22420,14:31:36,37,37,5.0.14.0,2,176,trial1,naming,0,0,0,0,Enter Name,0,10000,1,White_Screen.jpg,19,119,Car_Vintage.jpg,19
22420,14:31:36,37,37,5.0.14.0,2,177,trial1,naming,0,0,0,0,Enter Name,0,10000,1,White_Screen.jpg,14,19,Bird_Duck.jpg,14
22420,14:31:36,37,37,5.0.14.0,2,178,trial1,naming,0,0,0,0,Enter Name,0,10000,1,White_Screen.jpg,17,36,Comb.jpg,17
22420,14:31:36,37,37,5.0.14.0,2,179,trial1,naming,0,0,0,0,Enter Name,0,10000,1,White_Screen.jpg,14,77,Stick_Stirring.jpg,14
22420,14:31:36,37,37,5.0.14.0,2,180,trial1,naming,0,0,0,0,Enter Name,0,10000,1,White_Screen.jpg,14,25,CameoPortrait.jpg,14
22420,14:31:36,37,37,5.0.14.0,2,181,trial1,naming,0,0,0,0,Enter Name,0,10000,1,White_Screen.jpg,14,102,HairCurler.jpg,14
22420,14:31:36,37,37,5.0.14.0,2,182,trial1,naming,0,0,0,0,Enter Name,0,10000,1,White_Screen.jpg,14,21,ProcessorFood_Modern.jpg,14
22420,14:31:36,37,37,5.0.14.0,2,183,trial1,naming,0,0,0,0,Enter Name,0,10000,1,White_Screen.jpg,14,56,Toy_TableSet.jpg,14
22420,14:31:36,37,37,5.0.14.0,2,184,trial1,naming,0,0,0,0,Enter Name,0,10000,1,White_Screen.jpg,14,55,Boot_Rain.jpg,14
22420,14:31:36,37,37,5.0.14.0,2,185,trial1,naming,0,0,0,0,Enter Name,0,10000,1,White_Screen.jpg,14,118,Inukshuk.jpg,14
22420,14:31:36,37,37,5.0.14.0,2,186,trial1,naming,0,0,0,0,Enter Name,0,10000,1,White_Screen.jpg,14,62,Lollipop_Grape.jpg,14
22420,14:31:36,37,37,5.0.14.0,2,187,trial1,naming,0,0,0,0,Enter Name,0,10000,1,White_Screen.jpg,14,6,PortaPotty.jpg,14
22420,14:31:36,37,37,5.0.14.0,2,188,trial1,naming,0,0,0,0,Enter Name,0,10000,1,White_Screen.jpg,14,75,WindowBlinds.jpg,14
22420,14:31:36,37,37,5.0.14.0,2,189,trial1,naming,0,0,0,0,Enter Name,0,10000,1,White_Screen.jpg,14,132,Acorn.jpg,14
22420,14:31:36,37,37,5.0.14.0,2,190,trial1,naming,0,0,0,0,Enter Name,0,10000,1,White_Screen.jpg,14,61,Oars.jpg,14
22420,14:31:36,37,37,5.0.14.0,2,191,trial1,naming,0,0,0,0,Enter Name,0,10000,1,White_Screen.jpg,14,27,Shed.jpg,14
22420,14:31:36,37,37,5.0.14.0,2,192,trial1,naming,0,0,0,0,Enter Name,0,10000,1,White_Screen.jpg,14,113,TailLight.jpg,14
22420,14:31:36,37,37,5.0.14.0,2,193,trial1,naming,0,0,0,0,Enter Name,0,10000,1,White_Screen.jpg,14,103,Purse.jpg,14
