"date","time","group","subject","build","blocknum","trialnum","blockcode","trialcode","pretrialpause","posttrialpause","trialduration","trialtimeout","response","correct","latency","stimulusnumber1","stimulusitem1","stimulusonset1","stimulusnumber2","stimulusitem2","stimulusonset2"
"091219","12:56:47","24","24","5.0.14.0","2","1","trial1","naming","0","0","0","0","candy","0","2137","1","White_Screen.jpg","32","69","Candy_Cane.jpg","32"
"091219","12:56:47","24","24","5.0.14.0","2","2","trial1","naming","0","0","0","0","tab","0","3425","1","White_Screen.jpg","-1","73","Fuse.jpg","-1"
"091219","12:56:47","24","24","5.0.14.0","2","3","trial1","naming","0","0","0","0","plug","0","3754","1","White_Screen.jpg","27","142","Cable_AudioSplitter.jpg","27"
"091219","12:56:47","24","24","5.0.14.0","2","4","trial1","naming","0","0","0","0","swordfish","0","3216","1","White_Screen.jpg","0","23","Fish_Swordfish.jpg","0"
"091219","12:56:47","24","24","5.0.14.0","2","5","trial1","naming","0","0","0","0","icecream","0","3016","1","White_Screen.jpg","1","51","SundaeBanana.jpg","1"
"091219","12:56:47","24","24","5.0.14.0","2","6","trial1","naming","0","0","0","0","turtle","0","2337","1","White_Screen.jpg","1","79","Turtle.jpg","1"
"091219","12:56:47","24","24","5.0.14.0","2","7","trial1","naming","0","0","0","0","skeleton","0","2561","1","White_Screen.jpg","-3","45","HumanSkeleton.jpg","-3"
"091219","12:56:47","24","24","5.0.14.0","2","8","trial1","naming","0","0","0","0","sock","0","1797","1","White_Screen.jpg","-1","26","Cast.jpg","-1"
"091219","12:56:47","24","24","5.0.14.0","2","9","trial1","naming","0","0","0","0","pillar","0","2890","1","White_Screen.jpg","-3","15","Arch.jpg","-3"
"091219","12:56:47","24","24","5.0.14.0","2","10","trial1","naming","0","0","0","0","cupboard","0","4504","1","White_Screen.jpg","-1","7","Nightstand.jpg","-1"
"091219","12:56:47","24","24","5.0.14.0","2","11","trial1","naming","0","0","0","0","radio","0","3172","1","White_Screen.jpg","-2","91","Radio_Antique.jpg","-2"
"091219","12:56:47","24","24","5.0.14.0","2","12","trial1","naming","0","0","0","0","grill","0","2724","1","White_Screen.jpg","-3","78","Stovetop.jpg","-3"
"091219","12:56:47","24","24","5.0.14.0","2","13","trial1","naming","0","0","0","0","hosue","0","1397","1","White_Screen.jpg","-1","77","House_Wooden.jpg","-1"
"091219","12:56:47","24","24","5.0.14.0","2","14","trial1","naming","0","0","0","0","spade","0","3146","1","White_Screen.jpg","-3","22","Shovel_Garden.jpg","-3"
"091219","12:56:47","24","24","5.0.14.0","2","15","trial1","naming","0","0","0","0","magazine","0","3010","1","White_Screen.jpg","-1","55","MagazineRoll.jpg","-1"
"091219","12:56:47","24","24","5.0.14.0","2","16","trial1","naming","0","0","0","0","meter","0","6202","1","White_Screen.jpg","-3","114","Walkman.jpg","-3"
"091219","12:56:47","24","24","5.0.14.0","2","17","trial1","naming","0","0","0","0","shorts","0","2316","1","White_Screen.jpg","0","85","Pajamas.jpg","0"
"091219","12:56:47","24","24","5.0.14.0","2","18","trial1","naming","0","0","0","0","tomato","0","2528","1","White_Screen.jpg","0","169","Tomato.jpg","0"
"091219","12:56:47","24","24","5.0.14.0","2","19","trial1","naming","0","0","0","0","sign","0","2452","1","White_Screen.jpg","-1","175","Sign_NoParking.jpg","-1"
"091219","12:56:47","24","24","5.0.14.0","2","20","trial1","naming","0","0","0","0","money","0","2086","1","White_Screen.jpg","-3","195","Jar_Money.jpg","-3"
"091219","12:56:47","24","24","5.0.14.0","2","21","trial1","naming","0","0","0","0","scisor ","0","5385","1","White_Screen.jpg","-3","104","Fencing_HelmetSwords.jpg","-3"
"091219","12:56:47","24","24","5.0.14.0","2","22","trial1","naming","0","0","0","0","skeleton","0","2670","1","White_Screen.jpg","-1","113","SkullDeer.jpg","-1"
"091219","12:56:47","24","24","5.0.14.0","2","23","trial1","naming","0","0","0","0","truck","0","3110","1","White_Screen.jpg","41","84","Truck_Pickup.jpg","41"
"091219","12:56:47","24","24","5.0.14.0","2","24","trial1","naming","0","0","0","0","meter","0","2872","1","White_Screen.jpg","-1","127","MeterElectric.jpg","-1"
"091219","12:56:47","24","24","5.0.14.0","2","25","trial1","naming","0","0","0","0","tree","0","3542","1","White_Screen.jpg","-3","11","Toy_Christmastree.jpg","-3"
"091219","12:56:47","24","24","5.0.14.0","2","26","trial1","naming","0","0","0","0","ppocket knife","0","5234","1","White_Screen.jpg","-3","147","Knife_Camping.jpg","-3"
"091219","12:56:47","24","24","5.0.14.0","2","27","trial1","naming","0","0","0","0","donut","0","2165","1","White_Screen.jpg","-3","115","Bagel.jpg","-3"
"091219","12:56:47","24","24","5.0.14.0","2","28","trial1","naming","0","0","0","0","car","0","2701","1","White_Screen.jpg","-1","24","Car_Totalled.jpg","-1"
"091219","12:56:47","24","24","5.0.14.0","2","29","trial1","naming","0","0","0","0","ship","0","2065","1","White_Screen.jpg","-2","92","Ship_Battle.jpg","-2"
"091219","12:56:47","24","24","5.0.14.0","2","30","trial1","naming","0","0","0","0","neck rest","0","3557","1","White_Screen.jpg","32","8","Neckrest.jpg","32"
"091219","12:56:47","24","24","5.0.14.0","2","31","trial1","naming","0","0","0","0","snake","0","1980","1","White_Screen.jpg","39","58","Snake_Cobra.jpg","39"
"091219","12:56:47","24","24","5.0.14.0","2","32","trial1","naming","0","0","0","0","switch","0","2820","1","White_Screen.jpg","-3","67","Switch_Power.jpg","-3"
"091219","12:56:47","24","24","5.0.14.0","2","33","trial1","naming","0","0","0","0","candy","0","2618","1","White_Screen.jpg","-2","198","Lollipop_Rainbow.jpg","-2"
"091219","12:56:47","24","24","5.0.14.0","2","34","trial1","naming","0","0","0","0","toy","0","3727","1","White_Screen.jpg","-1","41","Toy_Dog.jpg","-1"
"091219","12:56:47","24","24","5.0.14.0","2","35","trial1","naming","0","0","0","0","drum","0","2113","1","White_Screen.jpg","0","102","Drum_Tall.jpg","0"
"091219","12:56:47","24","24","5.0.14.0","2","36","trial1","naming","0","0","0","0","player","0","2814","1","White_Screen.jpg","-1","136","PlayerFootball.jpg","-1"
"091219","12:56:47","24","24","5.0.14.0","2","37","trial1","naming","0","0","0","0","hedgehog","0","3017","1","White_Screen.jpg","-2","200","Hedgehog.jpg","-2"
"091219","12:56:47","24","24","5.0.14.0","2","38","trial1","naming","0","0","0","0","pants","0","2005","1","White_Screen.jpg","-2","106","Pants_Firefighter.jpg","-2"
"091219","12:56:47","24","24","5.0.14.0","2","39","trial1","naming","0","0","0","0","tool","0","2261","1","White_Screen.jpg","57","156","BottleOpener.jpg","57"
"091219","12:56:47","24","24","5.0.14.0","2","40","trial1","naming","0","0","0","0","pear","0","1986","1","White_Screen.jpg","-2","31","Pear_Green.jpg","-2"
"091219","12:56:47","24","24","5.0.14.0","2","41","trial1","naming","0","0","0","0","stamp","0","2206","1","White_Screen.jpg","-2","181","StampAndSeal.jpg","-2"
"091219","12:56:47","24","24","5.0.14.0","2","42","trial1","naming","0","0","0","0","hut","0","1631","1","White_Screen.jpg","33","66","Gazebo.jpg","33"
"091219","12:56:47","24","24","5.0.14.0","2","43","trial1","naming","0","0","0","0","crab","0","1737","1","White_Screen.jpg","-2","5","Crab.jpg","-2"
"091219","12:56:47","24","24","5.0.14.0","2","44","trial1","naming","0","0","0","0","plan","0","3107","1","White_Screen.jpg","-3","108","Blueprints.jpg","-3"
"091219","12:56:47","24","24","5.0.14.0","2","45","trial1","naming","0","0","0","0","case","0","2094","1","White_Screen.jpg","1","111","PhoneCase.jpg","1"
"091219","12:56:47","24","24","5.0.14.0","2","46","trial1","naming","0","0","0","0","Enter Name","0","73","1","White_Screen.jpg","0","190","Bottle_Specimen.jpg","0"
"091219","12:56:47","24","24","5.0.14.0","2","47","trial1","naming","0","0","0","0","fan","0","2199","1","White_Screen.jpg","-1","166","Fan_Ceiling.jpg","-1"
"091219","12:56:47","24","24","5.0.14.0","2","48","trial1","naming","0","0","0","0","playground","0","2922","1","White_Screen.jpg","-3","83","Playground.jpg","-3"
"091219","12:56:47","24","24","5.0.14.0","2","49","trial1","naming","0","0","0","0","spoon","0","1917","1","White_Screen.jpg","-3","118","Spoon_Sugar.jpg","-3"
"091219","12:56:47","24","24","5.0.14.0","2","50","trial1","naming","0","0","0","0","toilet","0","1907","1","White_Screen.jpg","-1","139","Toilet.jpg","-1"
"091219","12:56:47","24","24","5.0.14.0","2","52","trial1","naming","0","0","0","0","mask","0","1597","1","White_Screen.jpg","-2","52","Mask_African.jpg","-2"
"091219","12:56:47","24","24","5.0.14.0","2","53","trial1","naming","0","0","0","0","cube","0","2212","1","White_Screen.jpg","-4","161","Toy_BlocksWoodenPlain.jpg","-4"
"091219","12:56:47","24","24","5.0.14.0","2","54","trial1","naming","0","0","0","0","lock","0","1523","1","White_Screen.jpg","0","93","DoorBolt.jpg","0"
"091219","12:56:47","24","24","5.0.14.0","2","55","trial1","naming","0","0","0","0","cheese","0","3038","1","White_Screen.jpg","0","12","Tofu.jpg","0"
"091219","12:56:47","24","24","5.0.14.0","2","56","trial1","naming","0","0","0","0","lock","0","2194","1","White_Screen.jpg","0","196","Lock_Door.jpg","0"
"091219","12:56:47","24","24","5.0.14.0","2","57","trial1","naming","0","0","0","0","matchstick","0","3120","1","White_Screen.jpg","-1","185","Match.jpg","-1"
"091219","12:56:47","24","24","5.0.14.0","2","58","trial1","naming","0","0","0","0","house","0","1472","1","White_Screen.jpg","0","165","House_Doll.jpg","0"
"091219","12:56:47","24","24","5.0.14.0","2","59","trial1","naming","0","0","0","0","plier","0","4746","1","White_Screen.jpg","-1","20","Pliers_ViceGrip.jpg","-1"
"091219","12:56:47","24","24","5.0.14.0","2","60","trial1","naming","0","0","0","0","golf club","0","4111","1","White_Screen.jpg","-1","180","Golf_Club.jpg","-1"
"091219","12:56:47","24","24","5.0.14.0","2","61","trial1","naming","0","0","0","0","garden tool","0","5645","1","White_Screen.jpg","-1","2","ShearsGarden.jpg","-1"
"091219","12:56:47","24","24","5.0.14.0","2","62","trial1","naming","0","0","0","0","masher","0","3543","1","White_Screen.jpg","-2","60","Scoop_IceCream.jpg","-2"
"091219","12:56:47","24","24","5.0.14.0","2","63","trial1","naming","0","0","0","0","plane","0","1904","1","White_Screen.jpg","-1","53","Airplane_Small.jpg","-1"
"091219","12:56:47","24","24","5.0.14.0","2","64","trial1","naming","0","0","0","0","drain","0","2201","1","White_Screen.jpg","-1","101","DrainPlug.jpg","-1"
"091219","12:56:47","24","24","5.0.14.0","2","65","trial1","naming","0","0","0","0","wine","0","1957","1","White_Screen.jpg","-4","38","Bottle_Champagne.jpg","-4"
"091219","12:56:47","24","24","5.0.14.0","2","66","trial1","naming","0","0","0","0","bottle","0","4426","1","White_Screen.jpg","-1","110","WindshieldWasherFluid.jpg","-1"
"091219","12:56:47","24","24","5.0.14.0","2","67","trial1","naming","0","0","0","0","hammer","0","2052","1","White_Screen.jpg","-3","1","Icepick.jpg","-3"
"091219","12:56:47","24","24","5.0.14.0","2","68","trial1","naming","0","0","0","0","sea lion","0","4898","1","White_Screen.jpg","-3","186","Seal_Toy.jpg","-3"
"091219","12:56:47","24","24","5.0.14.0","2","69","trial1","naming","0","0","0","0","injection","0","3422","1","White_Screen.jpg","-2","150","Syringe_Needle.jpg","-2"
"091219","12:56:47","24","24","5.0.14.0","2","70","trial1","naming","0","0","0","0","case","0","2084","1","White_Screen.jpg","-2","9","Case_DVD.jpg","-2"
"091219","12:56:47","24","24","5.0.14.0","2","71","trial1","naming","0","0","0","0","hoodie","0","1701","1","White_Screen.jpg","-2","173","Hoodie.jpg","-2"
"091219","12:56:47","24","24","5.0.14.0","2","72","trial1","naming","0","0","0","0","box","0","3534","1","White_Screen.jpg","-3","154","Box_JeweleryWooden.jpg","-3"
"091219","12:56:47","24","24","5.0.14.0","2","73","trial1","naming","0","0","0","0","snowman","0","2576","1","White_Screen.jpg","2","194","SnowmanDecor.jpg","2"
"091219","12:56:47","24","24","5.0.14.0","2","74","trial1","naming","0","0","0","0","green bean","0","3031","1","White_Screen.jpg","27","159","StringBean.jpg","27"
"091219","12:56:47","24","24","5.0.14.0","2","75","trial1","naming","0","0","0","0","sunglasses","0","2769","1","White_Screen.jpg","-1","98","Glasses_Sun.jpg","-1"
"091219","12:56:47","24","24","5.0.14.0","2","76","trial1","naming","0","0","0","0","claw","0","3104","1","White_Screen.jpg","-3","145","HandRake.jpg","-3"
"091219","12:56:47","24","24","5.0.14.0","2","77","trial1","naming","0","0","0","0","lollipop","0","4435","1","White_Screen.jpg","-3","176","Apple_Candy.jpg","-3"
"091219","12:56:47","24","24","5.0.14.0","2","78","trial1","naming","0","0","0","0","ball","0","1588","1","White_Screen.jpg","2","187","Ball_Squashball.jpg","2"
"091219","12:56:47","24","24","5.0.14.0","2","79","trial1","naming","0","0","0","0","dime","0","1917","1","White_Screen.jpg","-2","137","PokerChips.jpg","-2"
"091219","12:56:47","24","24","5.0.14.0","2","80","trial1","naming","0","0","0","0","well","0","1897","1","White_Screen.jpg","-1","112","WaterWell.jpg","-1"
"091219","12:56:47","24","24","5.0.14.0","2","81","trial1","naming","0","0","0","0","house","0","1533","1","White_Screen.jpg","-1","99","PagodaModel.jpg","-1"
"091219","12:56:47","24","24","5.0.14.0","2","82","trial1","naming","0","0","0","0","hockeystick","0","3173","1","White_Screen.jpg","0","14","Toy_HockeyStick.jpg","0"
"091219","12:56:47","24","24","5.0.14.0","2","83","trial1","naming","0","0","0","0","keyboard","0","3314","1","White_Screen.jpg","-2","170","ComputerKeyboard.jpg","-2"
"091219","12:56:47","24","24","5.0.14.0","2","84","trial1","naming","0","0","0","0","weighing machine","0","4741","1","White_Screen.jpg","-1","144","ScaleWeighing.jpg","-1"
"091219","12:56:47","24","24","5.0.14.0","2","85","trial1","naming","0","0","0","0","fridge","0","2457","1","White_Screen.jpg","-1","63","Fridge.jpg","-1"
"091219","12:56:47","24","24","5.0.14.0","2","86","trial1","naming","0","0","0","0","hourglas","0","2955","1","White_Screen.jpg","-2","146","Hourglass.jpg","-2"
"091219","12:56:47","24","24","5.0.14.0","2","87","trial1","naming","0","0","0","0","lion","0","1802","1","White_Screen.jpg","-1","134","Lion.jpg","-1"
"091219","12:56:47","24","24","5.0.14.0","2","88","trial1","naming","0","0","0","0","hat","0","1287","1","White_Screen.jpg","-3","19","Hat_Sheriff.jpg","-3"
"091219","12:56:47","24","24","5.0.14.0","2","89","trial1","naming","0","0","0","0","handle","0","2776","1","White_Screen.jpg","-2","126","TowelRack_Brown.jpg","-2"
"091219","12:56:47","24","24","5.0.14.0","2","90","trial1","naming","0","0","0","0","first aid kit","0","4132","1","White_Screen.jpg","-3","193","Box_FirstAid.jpg","-3"
"091219","12:56:47","24","24","5.0.14.0","2","91","trial1","naming","0","0","0","0","bag","0","2907","1","White_Screen.jpg","-1","124","HotWaterBottle.jpg","-1"
"091219","12:56:47","24","24","5.0.14.0","2","92","trial1","naming","0","0","0","0","paper clip","0","3986","1","White_Screen.jpg","34","157","Clip_Paper.jpg","34"
"091219","12:56:47","24","24","5.0.14.0","2","93","trial1","naming","0","0","0","0","board","0","1909","1","White_Screen.jpg","38","3","Corkboard.jpg","38"
"091219","12:56:47","24","24","5.0.14.0","2","94","trial1","naming","0","0","0","0","masher","0","2441","1","White_Screen.jpg","-3","158","MortarPestle_BlackStone.jpg","-3"
"091219","12:56:47","24","24","5.0.14.0","2","95","trial1","naming","0","0","0","0","seay buckle","0","5434","1","White_Screen.jpg","-1","143","SeatBuckle.jpg","-1"
"091219","12:56:47","24","24","5.0.14.0","2","96","trial1","naming","0","0","0","0","harmonic ","0","5548","1","White_Screen.jpg","1","121","Chime.jpg","1"
"091219","12:56:47","24","24","5.0.14.0","2","97","trial1","naming","0","0","0","0","chair","0","2065","1","White_Screen.jpg","41","184","Chair_Folding.jpg","41"
"091219","12:56:47","24","24","5.0.14.0","2","98","trial1","naming","0","0","0","0","vacuum","0","2871","1","White_Screen.jpg","-3","65","Steam_Cleaner.jpg","-3"
"091219","12:56:47","24","24","5.0.14.0","2","99","trial1","naming","0","0","0","0","booth","0","2764","1","White_Screen.jpg","-3","37","Telephone_Booth.jpg","-3"
"091219","12:56:47","24","24","5.0.14.0","2","100","trial1","naming","0","0","0","0","hat","0","4493","1","White_Screen.jpg","3","88","Fan_Straw.jpg","3"
"091219","12:56:47","24","24","5.0.14.0","2","101","trial1","naming","0","0","0","0","flour","0","4811","1","White_Screen.jpg","-1","172","CoinRolls.jpg","-1"
"091219","12:56:47","24","24","5.0.14.0","2","103","trial1","naming","0","0","0","0","tissue box","0","3460","1","White_Screen.jpg","-3","128","TissueBox.jpg","-3"
"091219","12:56:47","24","24","5.0.14.0","2","104","trial1","naming","0","0","0","0","book","0","1515","1","White_Screen.jpg","1","6","Folder_Plastic.jpg","1"
"091219","12:56:47","24","24","5.0.14.0","2","105","trial1","naming","0","0","0","0","cotton","0","2601","1","White_Screen.jpg","-3","76","Jar_Cotton.jpg","-3"
"091219","12:56:47","24","24","5.0.14.0","2","106","trial1","naming","0","0","0","0","film","0","2197","1","White_Screen.jpg","25","151","Film_Single.jpg","25"
"091219","12:56:47","24","24","5.0.14.0","2","107","trial1","naming","0","0","0","0","win bottle opener","0","7249","1","White_Screen.jpg","16","135","Corkscrew.jpg","16"
"091219","12:56:47","24","24","5.0.14.0","2","108","trial1","naming","0","0","0","0","tool","0","6016","1","White_Screen.jpg","-2","116","DustPan.jpg","-2"
"091219","12:56:47","24","24","5.0.14.0","2","109","trial1","naming","0","0","0","0","beenie ","0","2776","1","White_Screen.jpg","31","133","Hat_Beanie.jpg","31"
"091219","12:56:47","24","24","5.0.14.0","2","110","trial1","naming","0","0","0","0","motor","0","2463","1","White_Screen.jpg","-1","70","Seeder.jpg","-1"
"091219","12:56:47","24","24","5.0.14.0","2","111","trial1","naming","0","0","0","0","doll","0","2217","1","White_Screen.jpg","-3","47","Scarecrow.jpg","-3"
"091219","12:56:47","24","24","5.0.14.0","2","112","trial1","naming","0","0","0","0","cabbage","0","2025","1","White_Screen.jpg","30","49","Artichoke.jpg","30"
"091219","12:56:47","24","24","5.0.14.0","2","113","trial1","naming","0","0","0","0","stone","0","2144","1","White_Screen.jpg","19","21","PumiceStone.jpg","19"
"091219","12:56:47","24","24","5.0.14.0","2","114","trial1","naming","0","0","0","0","starfish","0","3321","1","White_Screen.jpg","9","48","Starfish.jpg","9"
"091219","12:56:47","24","24","5.0.14.0","2","115","trial1","naming","0","0","0","0","disk","0","3621","1","White_Screen.jpg","-1","34","VinylRecord.jpg","-1"
"091219","12:56:47","24","24","5.0.14.0","2","116","trial1","naming","0","0","0","0","cloud","0","1524","1","White_Screen.jpg","0","149","Cloud.jpg","0"
"091219","12:56:47","24","24","5.0.14.0","2","117","trial1","naming","0","0","0","0","car seat","0","7725","1","White_Screen.jpg","-3","89","CarSeat.jpg","-3"
"091219","12:56:47","24","24","5.0.14.0","2","118","trial1","naming","0","0","0","0","candy","0","4628","1","White_Screen.jpg","10","43","Candy_Toffee.jpg","10"
"091219","12:56:47","24","24","5.0.14.0","2","119","trial1","naming","0","0","0","0","strawberry","0","2522","1","White_Screen.jpg","-1","100","TartStrawberry.jpg","-1"
"091219","12:56:47","24","24","5.0.14.0","2","120","trial1","naming","0","0","0","0","wheel barrow","0","4469","1","White_Screen.jpg","-3","123","Cart_Wooden.jpg","-3"
"091219","12:56:47","24","24","5.0.14.0","2","121","trial1","naming","0","0","0","0","sponge","0","1735","1","White_Screen.jpg","23","29","SpongeScrubbing.jpg","23"
"091219","12:56:47","24","24","5.0.14.0","2","122","trial1","naming","0","0","0","0","canvas","0","3046","1","White_Screen.jpg","33","188","Tray_Cafeteria.jpg","33"
"091219","12:56:47","24","24","5.0.14.0","2","123","trial1","naming","0","0","0","0","tripod","0","2467","1","White_Screen.jpg","20","36","Tripod.jpg","20"
"091219","12:56:47","24","24","5.0.14.0","2","124","trial1","naming","0","0","0","0","pills","0","2256","1","White_Screen.jpg","10","46","PillBottle_Spilled.jpg","10"
"091219","12:56:47","24","24","5.0.14.0","2","125","trial1","naming","0","0","0","0","shark","0","3514","1","White_Screen.jpg","22","140","Shark_Hammerhead.jpg","22"
"091219","12:56:47","24","24","5.0.14.0","2","126","trial1","naming","0","0","0","0","pot","0","1632","1","White_Screen.jpg","16","141","Jug_ClayAncient.jpg","16"
"091219","12:56:47","24","24","5.0.14.0","2","127","trial1","naming","0","0","0","0","pen","0","1623","1","White_Screen.jpg","-2","27","Pen_Calligraphy.jpg","-2"
"091219","12:56:47","24","24","5.0.14.0","2","128","trial1","naming","0","0","0","0","desk","0","2302","1","White_Screen.jpg","25","64","Desk_School.jpg","25"
"091219","12:56:47","24","24","5.0.14.0","2","129","trial1","naming","0","0","0","0","cart","0","2310","1","White_Screen.jpg","53","56","Cart_Groceries.jpg","53"
"091219","12:56:47","24","24","5.0.14.0","2","130","trial1","naming","0","0","0","0","telephone","0","3410","1","White_Screen.jpg","10","132","Telephone_Dial.jpg","10"
"091219","12:56:47","24","24","5.0.14.0","2","131","trial1","naming","0","0","0","0","hay","0","2336","1","White_Screen.jpg","14","197","Bag_Grains.jpg","14"
"091219","12:56:47","24","24","5.0.14.0","2","132","trial1","naming","0","0","0","0","hatch","0","1729","1","White_Screen.jpg","18","30","Crib_Basket.jpg","18"
"091219","12:56:47","24","24","5.0.14.0","2","133","trial1","naming","0","0","0","0","pan","0","3533","1","White_Screen.jpg","24","68","BakingDish.jpg","24"
"091219","12:56:47","24","24","5.0.14.0","2","134","trial1","naming","0","0","0","0","teeth","0","1775","1","White_Screen.jpg","9","10","TeethModel.jpg","9"
"091219","12:56:47","24","24","5.0.14.0","2","135","trial1","naming","0","0","0","0","trampoline","0","5196","1","White_Screen.jpg","21","57","Hammock.jpg","21"
"091219","12:56:47","24","24","5.0.14.0","2","136","trial1","naming","0","0","0","0","lips","0","3255","1","White_Screen.jpg","9","138","Lips_Wax.jpg","9"
"091219","12:56:47","24","24","5.0.14.0","2","137","trial1","naming","0","0","0","0","hippo","0","3006","1","White_Screen.jpg","25","179","Hippopotamus.jpg","25"
"091219","12:56:47","24","24","5.0.14.0","2","138","trial1","naming","0","0","0","0","bat","0","1583","1","White_Screen.jpg","17","97","Toy_Bat.jpg","17"
"091219","12:56:47","24","24","5.0.14.0","2","139","trial1","naming","0","0","0","0","cup","0","3647","1","White_Screen.jpg","12","160","Thimble.jpg","12"
"091219","12:56:47","24","24","5.0.14.0","2","140","trial1","naming","0","0","0","0","lamp post","0","2485","1","White_Screen.jpg","18","119","LampPost_OneBulb.jpg","18"
"091219","12:56:47","24","24","5.0.14.0","2","141","trial1","naming","0","0","0","0","chop stick","0","6945","1","White_Screen.jpg","10","125","Bowl_Chopsticks.jpg","10"
"091219","12:56:47","24","24","5.0.14.0","2","142","trial1","naming","0","0","0","0","box","0","1336","1","White_Screen.jpg","22","182","Box_Package.jpg","22"
"091219","12:56:47","24","24","5.0.14.0","2","143","trial1","naming","0","0","0","0","radio","0","2045","1","White_Screen.jpg","10","18","WalkieTalkie_Red.jpg","10"
"091219","12:56:47","24","24","5.0.14.0","2","144","trial1","naming","0","0","0","0","container","0","7598","1","White_Screen.jpg","22","189","Ashtray_Empty.jpg","22"
"091219","12:56:47","24","24","5.0.14.0","2","145","trial1","naming","0","0","0","0","vacuum","0","2213","1","White_Screen.jpg","12","167","VacuumHose.jpg","12"
"091219","12:56:47","24","24","5.0.14.0","2","146","trial1","naming","0","0","0","0","paper ship","0","3778","1","White_Screen.jpg","23","171","Origami_Boat.jpg","23"
"091219","12:56:47","24","24","5.0.14.0","2","147","trial1","naming","0","0","0","0","sharpener","0","5532","1","White_Screen.jpg","18","199","PencilSharpener.jpg","18"
"091219","12:56:47","24","24","5.0.14.0","2","148","trial1","naming","0","0","0","0","dinosaur","0","3956","1","White_Screen.jpg","16","44","Toy_DinosaurTRex.jpg","16"
"091219","12:56:47","24","24","5.0.14.0","2","149","trial1","naming","0","0","0","0","hat","0","2106","1","White_Screen.jpg","10","109","CapGraduation.jpg","10"
"091219","12:56:47","24","24","5.0.14.0","2","150","trial1","naming","0","0","0","0","barrel","0","2504","1","White_Screen.jpg","35","178","Barrel_Wine.jpg","35"
"091219","12:56:47","24","24","5.0.14.0","2","151","trial1","naming","0","0","0","0","toys","0","2032","1","White_Screen.jpg","18","122","DogSled.jpg","18"
"091219","12:56:47","24","24","5.0.14.0","2","152","trial1","naming","0","0","0","0","skirt","0","2825","1","White_Screen.jpg","10","148","Skirt_Stripes.jpg","10"
"091219","12:56:47","24","24","5.0.14.0","2","154","trial1","naming","0","0","0","0","dog treat","0","4838","1","White_Screen.jpg","11","4","DogTreat.jpg","11"
"091219","12:56:47","24","24","5.0.14.0","2","155","trial1","naming","0","0","0","0","necklace","0","3324","1","White_Screen.jpg","10","107","Earrings_Dangling.jpg","10"
"091219","12:56:47","24","24","5.0.14.0","2","156","trial1","naming","0","0","0","0","weighing pad","0","4441","1","White_Screen.jpg","25","25","CrepeMaker.jpg","25"
"091219","12:56:47","24","24","5.0.14.0","2","157","trial1","naming","0","0","0","0","fries","0","3016","1","White_Screen.jpg","10","120","fries.jpg","10"
"091219","12:56:47","24","24","5.0.14.0","2","158","trial1","naming","0","0","0","0","protector","0","3752","1","White_Screen.jpg","10","164","ShoulderPads.jpg","10"
"091219","12:56:47","24","24","5.0.14.0","2","159","trial1","naming","0","0","0","0","radio","0","1741","1","White_Screen.jpg","14","71","WalkieTalkie_Yellow.jpg","14"
"091219","12:56:47","24","24","5.0.14.0","2","160","trial1","naming","0","0","0","0","cup","0","2419","1","White_Screen.jpg","16","131","MixingGlass.jpg","16"
"091219","12:56:47","24","24","5.0.14.0","2","161","trial1","naming","0","0","0","0","cards","0","1818","1","White_Screen.jpg","9","191","Card_QueenSpade.jpg","9"
"091219","12:56:47","24","24","5.0.14.0","2","162","trial1","naming","0","0","0","0","ticket","0","1856","1","White_Screen.jpg","42","155","Tickets_PrintWords.jpg","42"
"091219","12:56:47","24","24","5.0.14.0","2","163","trial1","naming","0","0","0","0","shoes","0","3084","1","White_Screen.jpg","12","40","Shoes_DutchClogs.jpg","12"
"091219","12:56:47","24","24","5.0.14.0","2","164","trial1","naming","0","0","0","0","statue","0","2316","1","White_Screen.jpg","15","163","Statue_ManHorse.jpg","15"
"091219","12:56:47","24","24","5.0.14.0","2","165","trial1","naming","0","0","0","0","candy","0","2182","1","White_Screen.jpg","9","75","Candy_Caramel.jpg","9"
"091219","12:56:47","24","24","5.0.14.0","2","166","trial1","naming","0","0","0","0","disk","0","1777","1","White_Screen.jpg","22","82","FloppyDisk.jpg","22"
"091219","12:56:47","24","24","5.0.14.0","2","167","trial1","naming","0","0","0","0","shell","0","2996","1","White_Screen.jpg","31","177","Snail.jpg","31"
"091219","12:56:47","24","24","5.0.14.0","2","168","trial1","naming","0","0","0","0","rice","0","1629","1","White_Screen.jpg","19","153","RiceRaw.jpg","19"
"091219","12:56:47","24","24","5.0.14.0","2","169","trial1","naming","0","0","0","0","hat","0","1182","1","White_Screen.jpg","10","103","Hat_Explorer.jpg","10"
"091219","12:56:47","24","24","5.0.14.0","2","170","trial1","naming","0","0","0","0","belt","0","2501","1","White_Screen.jpg","12","174","Brace_Back.jpg","12"
"091219","12:56:47","24","24","5.0.14.0","2","171","trial1","naming","0","0","0","0","pepper","0","3629","1","White_Screen.jpg","41","81","Pepper_Chili.jpg","41"
"091219","12:56:47","24","24","5.0.14.0","2","172","trial1","naming","0","0","0","0","chair","0","1935","1","White_Screen.jpg","22","117","Chair_Deck.jpg","22"
"091219","12:56:47","24","24","5.0.14.0","2","173","trial1","naming","0","0","0","0","candy machine","0","3303","1","White_Screen.jpg","11","90","CandyDispenser.jpg","11"
"091219","12:56:47","24","24","5.0.14.0","2","174","trial1","naming","0","0","0","0","lcok","0","1499","1","White_Screen.jpg","16","87","DoorHandle.jpg","16"
"091219","12:56:47","24","24","5.0.14.0","2","175","trial1","naming","0","0","0","0","staple","0","5813","1","White_Screen.jpg","25","162","Box_Staples.jpg","25"
"091219","12:56:47","24","24","5.0.14.0","2","176","trial1","naming","0","0","0","0","kids toy","0","4763","1","White_Screen.jpg","9","94","Toy_Slide.jpg","9"
"091219","12:56:47","24","24","5.0.14.0","2","177","trial1","naming","0","0","0","0","desk","0","2915","1","White_Screen.jpg","34","54","DryRack_Clothes.jpg","34"
"091219","12:56:47","24","24","5.0.14.0","2","178","trial1","naming","0","0","0","0","box","0","1825","1","White_Screen.jpg","10","32","Parcel.jpg","10"
"091219","12:56:47","24","24","5.0.14.0","2","179","trial1","naming","0","0","0","0","trumpet","0","3886","1","White_Screen.jpg","26","62","Horn_French.jpg","26"
"091219","12:56:47","24","24","5.0.14.0","2","180","trial1","naming","0","0","0","0","pig","0","1918","1","White_Screen.jpg","28","95","Pig.jpg","28"
"091219","12:56:47","24","24","5.0.14.0","2","181","trial1","naming","0","0","0","0","bag","0","1712","1","White_Screen.jpg","21","129","Pouch_Red.jpg","21"
"091219","12:56:47","24","24","5.0.14.0","2","182","trial1","naming","0","0","0","0","tape","0","3001","1","White_Screen.jpg","42","33","RugRoled.jpg","42"
"091219","12:56:47","24","24","5.0.14.0","2","183","trial1","naming","0","0","0","0","spoon","0","4606","1","White_Screen.jpg","13","39","Spoon_Wooden.jpg","13"
"091219","12:56:47","24","24","5.0.14.0","2","184","trial1","naming","0","0","0","0","gun","0","2058","1","White_Screen.jpg","9","86","Gun_Revolver.jpg","9"
"091219","12:56:47","24","24","5.0.14.0","2","185","trial1","naming","0","0","0","0","guitar","0","3346","1","White_Screen.jpg","36","152","Guitar_Electric.jpg","36"
"091219","12:56:47","24","24","5.0.14.0","2","186","trial1","naming","0","0","0","0","lizard","0","3598","1","White_Screen.jpg","20","28","Toy_Lizard.jpg","20"
"091219","12:56:47","24","24","5.0.14.0","2","187","trial1","naming","0","0","0","0","necklace","0","4309","1","White_Screen.jpg","10","50","Lei.jpg","10"
"091219","12:56:47","24","24","5.0.14.0","2","188","trial1","naming","0","0","0","0","wallet","0","2907","1","White_Screen.jpg","17","61","Wallet_ClosedBlack.jpg","17"
"091219","12:56:47","24","24","5.0.14.0","2","189","trial1","naming","0","0","0","0","water fountain","0","6133","1","White_Screen.jpg","12","96","WaterCooler.jpg","12"
"091219","12:56:47","24","24","5.0.14.0","2","190","trial1","naming","0","0","0","0","sign","0","1981","1","White_Screen.jpg","19","72","Sign_Washroom.jpg","19"
"091219","12:56:47","24","24","5.0.14.0","2","191","trial1","naming","0","0","0","0","nipple","0","3228","1","White_Screen.jpg","40","168","Dropper.jpg","40"
"091219","12:56:47","24","24","5.0.14.0","2","192","trial1","naming","0","0","0","0","cable","0","2303","1","White_Screen.jpg","21","13","HDMIConnector.jpg","21"
"091219","12:56:47","24","24","5.0.14.0","2","193","trial1","naming","0","0","0","0","guitar","0","1944","1","White_Screen.jpg","21","35","Guitar_Acoustic.jpg","21"
"091219","12:56:47","24","24","5.0.14.0","2","194","trial1","naming","0","0","0","0","chair","0","1831","1","White_Screen.jpg","13","192","Chair_Bamboo.jpg","13"
"091219","12:56:47","24","24","5.0.14.0","2","195","trial1","naming","0","0","0","0","toy","0","3364","1","White_Screen.jpg","10","80","Toy_BeadMaze.jpg","10"
"091219","12:56:47","24","24","5.0.14.0","2","196","trial1","naming","0","0","0","0","box","0","1226","1","White_Screen.jpg","22","130","Box_Wine.jpg","22"
"091219","12:56:47","24","24","5.0.14.0","2","197","trial1","naming","0","0","0","0","loudspeaker","0","6103","1","White_Screen.jpg","11","17","Megaphone.jpg","11"
"091219","12:56:47","24","24","5.0.14.0","2","198","trial1","naming","0","0","0","0","radiator","0","3624","1","White_Screen.jpg","25","59","Heater_ElectricUpright.jpg","25"
"091219","12:56:47","24","24","5.0.14.0","2","199","trial1","naming","0","0","0","0","glas","0","2162","1","White_Screen.jpg","25","42","Glass_Cup.jpg","25"
"091219","12:56:47","24","24","5.0.14.0","2","200","trial1","naming","0","0","0","0","trumpet","0","3205","1","White_Screen.jpg","31","105","SaxophoneSoprano.jpg","31"
"091219","12:56:47","24","24","5.0.14.0","2","201","trial1","naming","0","0","0","0","alpabet","0","3569","1","White_Screen.jpg","11","74","Scrabble.jpg","11"
"091219","12:56:47","24","24","5.0.14.0","2","202","trial1","naming","0","0","0","0","soda machine","0","4793","1","White_Screen.jpg","21","16","SlushieMachine.jpg","21"
"091219","12:56:47","24","24","5.0.14.0","2","203","trial1","naming","0","0","0","0","toy","0","1822","1","White_Screen.jpg","11","183","Toy_Truck.jpg","11"
"091219","12:56:47","24","24","5.0.14.0","3","1","demographics_block","gender","0","0","0","0","male","1","10633","0","0","0","0","0","0"
"091219","12:56:47","24","24","5.0.14.0","3","1","demographics_block","age","0","0","0","0","23","1","10633","0","0","0","0","0","0"
"091219","12:56:47","24","24","5.0.14.0","3","1","demographics_block","education","0","0","0","0","16","1","10633","0","0","0","0","0","0"
"091219","12:56:47","24","24","5.0.14.0","3","2","demographics_block","left_right_handed","0","0","0","0","Right","1","5367","0","0","0","0","0","0"
"091219","12:56:47","24","24","5.0.14.0","3","2","demographics_block","raceoption1","0","0","0","0","","1","5367","0","0","0","0","0","0"
"091219","12:56:47","24","24","5.0.14.0","3","2","demographics_block","raceoption2","0","0","0","0","","1","5367","0","0","0","0","0","0"
"091219","12:56:47","24","24","5.0.14.0","3","2","demographics_block","raceoption3","0","0","0","0","","1","5367","0","0","0","0","0","0"
"091219","12:56:47","24","24","5.0.14.0","3","2","demographics_block","raceoption4","0","0","0","0","","1","5367","0","0","0","0","0","0"
"091219","12:56:47","24","24","5.0.14.0","3","2","demographics_block","raceoption5","0","0","0","0","","1","5367","0","0","0","0","0","0"
"091219","12:56:47","24","24","5.0.14.0","3","2","demographics_block","raceoption6","0","0","0","0","5","1","5367","0","0","0","0","0","0"
"091219","12:56:47","24","24","5.0.14.0","3","2","demographics_block","raceoption7","0","0","0","0","","1","5367","0","0","0","0","0","0"
"091219","12:56:47","24","24","5.0.14.0","3","2","demographics_block","raceoption8","0","0","0","0","","1","5367","0","0","0","0","0","0"
"091219","12:56:47","24","24","5.0.14.0","3","2","demographics_block","raceoption9","0","0","0","0","","1","5367","0","0","0","0","0","0"
"091219","12:56:47","24","24","5.0.14.0","3","2","demographics_block","raceother","0","0","0","0","","1","5367","0","0","0","0","0","0"
"091219","12:56:47","24","24","5.0.14.0","3","2","demographics_block","raceother","0","0","0","0","","1","5367","0","0","0","0","0","0"
"091219","12:56:47","24","24","5.0.14.0","3","2","demographics_block","english_language","0","0","0","0","Yes","1","5367","0","0","0","0","0","0"
"091219","12:56:47","24","24","5.0.14.0","3","2","demographics_block","english_languageother","0","0","0","0","","1","5367","0","0","0","0","0","0"
"091219","12:56:47","24","24","5.0.14.0","3","3","demographics_block","eyesight","0","0","0","0","Yes","1","3315","0","0","0","0","0","0"
"091219","12:56:47","24","24","5.0.14.0","3","3","demographics_block","colorblind","0","0","0","0","No","1","3315","0","0","0","0","0","0"
"091219","12:56:47","24","24","5.0.14.0","4","1","worker_id_block","worker_id_textbox","0","0","0","0","A2RVDEU138ZF9P","1","26358","0","0","0","0","0","0"
"091219","13:06:10","25","25","5.0.14.0","2","1","trial1","naming","0","0","0","0","Enterg Name","0","10000","1","White_Screen.jpg","1112","42","Glass_Cup.jpg","1112"
"091219","13:06:10","25","25","5.0.14.0","2","2","trial1","naming","0","0","0","0","heater","0","5951","1","White_Screen.jpg","6","59","Heater_ElectricUpright.jpg","6"
"091219","13:06:10","25","25","5.0.14.0","2","3","trial1","naming","0","0","0","0","scarecrowEnter Name","0","5440","1","White_Screen.jpg","8","47","Scarecrow.jpg","8"
"091219","13:06:10","25","25","5.0.14.0","2","4","trial1","naming","0","0","0","0","hatEnter Name","0","2511","1","White_Screen.jpg","9","103","Hat_Explorer.jpg","9"
"091219","13:06:10","25","25","5.0.14.0","2","5","trial1","naming","0","0","0","0","staplesEnter Name","0","3479","1","White_Screen.jpg","9","162","Box_Staples.jpg","9"
"091219","13:06:10","25","25","5.0.14.0","2","6","trial1","naming","0","0","0","0","truckEnter Name","0","2584","1","White_Screen.jpg","9","84","Truck_Pickup.jpg","9"
"091219","13:06:10","25","25","5.0.14.0","2","7","trial1","naming","0","0","0","0","pepperEnter Name","0","2017","1","White_Screen.jpg","8","81","Pepper_Chili.jpg","8"
"091219","13:06:10","25","25","5.0.14.0","2","8","trial1","naming","0","0","0","0","filmEnter Name","0","3352","1","White_Screen.jpg","7","151","Film_Single.jpg","7"
"091219","13:06:10","25","25","5.0.14.0","2","9","trial1","naming","0","0","0","0","boneEnter Name","0","1717","1","White_Screen.jpg","9","4","DogTreat.jpg","9"
"091219","13:06:10","25","25","5.0.14.0","2","10","trial1","naming","0","0","0","0","stampEnter Name","0","2507","1","White_Screen.jpg","8","181","StampAndSeal.jpg","8"
"091219","13:06:10","25","25","5.0.14.0","2","11","trial1","naming","0","0","0","0","drumEnter Name","0","2175","1","White_Screen.jpg","11","102","Drum_Tall.jpg","11"
"091219","13:06:10","25","25","5.0.14.0","2","12","trial1","naming","0","0","0","0","kegEnter Name","0","4236","1","White_Screen.jpg","8","178","Barrel_Wine.jpg","8"
"091219","13:06:10","25","25","5.0.14.0","2","13","trial1","naming","0","0","0","0","shipEnter Name","0","2165","1","White_Screen.jpg","8","92","Ship_Battle.jpg","8"
"091219","13:06:10","25","25","5.0.14.0","2","14","trial1","naming","0","0","0","0","fanEnter Name","0","1722","1","White_Screen.jpg","7","166","Fan_Ceiling.jpg","7"
"091219","13:06:10","25","25","5.0.14.0","2","15","trial1","naming","0","0","0","0","clippersEnter Name","0","3677","1","White_Screen.jpg","9","2","ShearsGarden.jpg","9"
"091219","13:06:10","25","25","5.0.14.0","2","16","trial1","naming","0","0","0","0","shoulderpadEnter Name","0","5102","1","White_Screen.jpg","8","164","ShoulderPads.jpg","8"
"091219","13:06:10","25","25","5.0.14.0","2","17","trial1","naming","0","0","0","0","rockEnter Name","0","2320","1","White_Screen.jpg","7","21","PumiceStone.jpg","7"
"091219","13:06:10","25","25","5.0.14.0","2","18","trial1","naming","0","0","0","0","hoeEnter Name","0","2393","1","White_Screen.jpg","7","145","HandRake.jpg","7"
"091219","13:06:10","25","25","5.0.14.0","2","19","trial1","naming","0","0","0","0","ashtrayEnter Name","0","3009","1","White_Screen.jpg","7","189","Ashtray_Empty.jpg","7"
"091219","13:06:10","25","25","5.0.14.0","2","20","trial1","naming","0","0","0","0","hippoEnter Name","0","2267","1","White_Screen.jpg","9","179","Hippopotamus.jpg","9"
"091219","13:06:10","25","25","5.0.14.0","2","21","trial1","naming","0","0","0","0","capEnter Name","0","2094","1","White_Screen.jpg","8","109","CapGraduation.jpg","8"
"091219","13:06:10","25","25","5.0.14.0","2","22","trial1","naming","0","0","0","0","carseatEnter Name","0","3181","1","White_Screen.jpg","9","89","CarSeat.jpg","9"
"091219","13:06:10","25","25","5.0.14.0","2","23","trial1","naming","0","0","0","0","tiki bedEnter Name","0","6629","1","White_Screen.jpg","7","66","Gazebo.jpg","7"
"091219","13:06:10","25","25","5.0.14.0","2","24","trial1","naming","0","0","0","0","shellEnter Name","0","2032","1","White_Screen.jpg","7","177","Snail.jpg","7"
"091219","13:06:10","25","25","5.0.14.0","2","25","trial1","naming","0","0","0","0","treeEnter Name","0","1598","1","White_Screen.jpg","7","11","Toy_Christmastree.jpg","7"
"091219","13:06:10","25","25","5.0.14.0","2","26","trial1","naming","0","0","0","0","chopsticksEnter Name","0","5338","1","White_Screen.jpg","7","125","Bowl_Chopsticks.jpg","7"
"091219","13:06:10","25","25","5.0.14.0","2","27","trial1","naming","0","0","0","0","porcupEnter Name","0","10000","1","White_Screen.jpg","8","200","Hedgehog.jpg","8"
"091219","13:06:10","25","25","5.0.14.0","2","28","trial1","naming","0","0","0","0","walletEnter Name","0","2871","1","White_Screen.jpg","6","61","Wallet_ClosedBlack.jpg","6"
"091219","13:06:10","25","25","5.0.14.0","2","29","trial1","naming","0","0","0","0","sundaeEnter Name","0","5083","1","White_Screen.jpg","7","51","SundaeBanana.jpg","7"
"091219","13:06:10","25","25","5.0.14.0","2","30","trial1","naming","0","0","0","0","archwayEnter Name","0","2784","1","White_Screen.jpg","8","15","Arch.jpg","8"
"091219","13:06:10","25","25","5.0.14.0","2","31","trial1","naming","0","0","0","0","pigEnter Name","0","1444","1","White_Screen.jpg","8","95","Pig.jpg","8"
"091219","13:06:10","25","25","5.0.14.0","2","32","trial1","naming","0","0","0","0","jewelry boxEnter Name","0","5384","1","White_Screen.jpg","9","154","Box_JeweleryWooden.jpg","9"
"091219","13:06:10","25","25","5.0.14.0","2","33","trial1","naming","0","0","0","0","dinosaurEnter Name","0","2373","1","White_Screen.jpg","8","44","Toy_DinosaurTRex.jpg","8"
"091219","13:06:10","25","25","5.0.14.0","2","34","trial1","naming","0","0","0","0","hoodieEnter Name","0","1759","1","White_Screen.jpg","7","173","Hoodie.jpg","7"
"091219","13:06:10","25","25","5.0.14.0","2","35","trial1","naming","0","0","0","0","maskEnter Name","0","3009","1","White_Screen.jpg","9","52","Mask_African.jpg","9"
"091219","13:06:10","25","25","5.0.14.0","2","36","trial1","naming","0","0","0","0","scrabble boEnter Name","0","5567","1","White_Screen.jpg","9","74","Scrabble.jpg","9"
"091219","13:06:10","25","25","5.0.14.0","2","37","trial1","naming","0","0","0","0","wireEnter Name","0","2598","1","White_Screen.jpg","7","142","Cable_AudioSplitter.jpg","7"
"091219","13:06:10","25","25","5.0.14.0","2","38","trial1","naming","0","0","0","0","artichokeEnter Name","0","5638","1","White_Screen.jpg","7","49","Artichoke.jpg","7"
"091219","13:06:10","25","25","5.0.14.0","2","39","trial1","naming","0","0","0","0","guitarEnter Name","0","2276","1","White_Screen.jpg","8","35","Guitar_Acoustic.jpg","8"
"091219","13:06:10","25","25","5.0.14.0","2","40","trial1","naming","0","0","0","0","gum machinEnter Name","0","3373","1","White_Screen.jpg","9","90","CandyDispenser.jpg","9"
"091219","13:06:10","25","25","5.0.14.0","2","41","trial1","naming","0","0","0","0","lockEnter Name","0","1765","1","White_Screen.jpg","7","196","Lock_Door.jpg","7"
"091219","13:06:10","25","25","5.0.14.0","2","42","trial1","naming","0","0","0","0","overallsEnter Name","0","2582","1","White_Screen.jpg","7","106","Pants_Firefighter.jpg","7"
"091219","13:06:10","25","25","5.0.14.0","2","43","trial1","naming","0","0","0","0","gunEnter Name","0","1496","1","White_Screen.jpg","8","86","Gun_Revolver.jpg","8"
"091219","13:06:10","25","25","5.0.14.0","2","44","trial1","naming","0","0","0","0","appleEnter Name","0","2120","1","White_Screen.jpg","9","176","Apple_Candy.jpg","9"
"091219","13:06:10","25","25","5.0.14.0","2","45","trial1","naming","0","0","0","0","no parking sEnter Name","0","4625","1","White_Screen.jpg","9","175","Sign_NoParking.jpg","9"
"091219","13:06:10","25","25","5.0.14.0","2","46","trial1","naming","0","0","0","0","skelatonEnter Name","0","2808","1","White_Screen.jpg","8","45","HumanSkeleton.jpg","8"
"091219","13:06:10","25","25","5.0.14.0","2","47","trial1","naming","0","0","0","0","glassesEnter Name","0","2184","1","White_Screen.jpg","6","98","Glasses_Sun.jpg","6"
"091219","13:06:10","25","25","5.0.14.0","2","48","trial1","naming","0","0","0","0","basketEnter Name","0","2287","1","White_Screen.jpg","8","30","Crib_Basket.jpg","8"
"091219","13:06:10","25","25","5.0.14.0","2","49","trial1","naming","0","0","0","0","snowmanEnter Name","0","2725","1","White_Screen.jpg","8","194","SnowmanDecor.jpg","8"
"091219","13:06:10","25","25","5.0.14.0","2","50","trial1","naming","0","0","0","0","batEnter Name","0","1361","1","White_Screen.jpg","9","97","Toy_Bat.jpg","9"
"091219","13:06:10","25","25","5.0.14.0","2","52","trial1","naming","0","0","0","0","tissuesEnter Name","0","2153","1","White_Screen.jpg","7","128","TissueBox.jpg","7"
"091219","13:06:10","25","25","5.0.14.0","2","53","trial1","naming","0","0","0","0","pearEnter Name","0","1449","1","White_Screen.jpg","8","31","Pear_Green.jpg","8"
"091219","13:06:10","25","25","5.0.14.0","2","54","trial1","naming","0","0","0","0","berriesEnter Name","0","2512","1","White_Screen.jpg","8","100","TartStrawberry.jpg","8"
"091219","13:06:10","25","25","5.0.14.0","2","55","trial1","naming","0","0","0","0","wehatEnter Name","0","2363","1","White_Screen.jpg","8","197","Bag_Grains.jpg","8"
"091219","13:06:10","25","25","5.0.14.0","2","56","trial1","naming","0","0","0","0","fridgeEnter Name","0","2888","1","White_Screen.jpg","7","63","Fridge.jpg","7"
"091219","13:06:10","25","25","5.0.14.0","2","57","trial1","naming","0","0","0","0","spoonEnter Name","0","2631","1","White_Screen.jpg","8","118","Spoon_Sugar.jpg","8"
"091219","13:06:10","25","25","5.0.14.0","2","58","trial1","naming","0","0","0","0","radioEnter Name","0","3129","1","White_Screen.jpg","6","71","WalkieTalkie_Yellow.jpg","6"
"091219","13:06:10","25","25","5.0.14.0","2","59","trial1","naming","0","0","0","0","laiEnter Name","0","2385","1","White_Screen.jpg","10","50","Lei.jpg","10"
"091219","13:06:10","25","25","5.0.14.0","2","60","trial1","naming","0","0","0","0","teethEnter Name","0","2498","1","White_Screen.jpg","8","10","TeethModel.jpg","8"
"091219","13:06:10","25","25","5.0.14.0","2","61","trial1","naming","0","0","0","0","clubEnter Name","0","4951","1","White_Screen.jpg","10","180","Golf_Club.jpg","10"
"091219","13:06:10","25","25","5.0.14.0","2","62","trial1","naming","0","0","0","0","pillsEnter Name","0","2954","1","White_Screen.jpg","7","46","PillBottle_Spilled.jpg","7"
"091219","13:06:10","25","25","5.0.14.0","2","63","trial1","naming","0","0","0","0","thimbleEnter Name","0","3455","1","White_Screen.jpg","7","160","Thimble.jpg","7"
"091219","13:06:10","25","25","5.0.14.0","2","64","trial1","naming","0","0","0","0","needleEnter Name","0","2457","1","White_Screen.jpg","7","150","Syringe_Needle.jpg","7"
"091219","13:06:10","25","25","5.0.14.0","2","65","trial1","naming","0","0","0","0","phoneEnter Name","0","2795","1","White_Screen.jpg","9","132","Telephone_Dial.jpg","9"
"091219","13:06:10","25","25","5.0.14.0","2","66","trial1","naming","0","0","0","0","hammockEnter Name","0","2407","1","White_Screen.jpg","8","57","Hammock.jpg","8"
"091219","13:06:10","25","25","5.0.14.0","2","67","trial1","naming","0","0","0","0","toyEnter Name","0","2201","1","White_Screen.jpg","8","80","Toy_BeadMaze.jpg","8"
"091219","13:06:10","25","25","5.0.14.0","2","68","trial1","naming","0","0","0","0","dogEnter Name","0","3455","1","White_Screen.jpg","6","41","Toy_Dog.jpg","6"
"091219","13:06:10","25","25","5.0.14.0","2","69","trial1","naming","0","0","0","0","corkscrewEnter Name","0","3632","1","White_Screen.jpg","11","135","Corkscrew.jpg","11"
"091219","13:06:10","25","25","5.0.14.0","2","70","trial1","naming","0","0","0","0","magazineEnter Name","0","2816","1","White_Screen.jpg","9","55","MagazineRoll.jpg","9"
"091219","13:06:10","25","25","5.0.14.0","2","71","trial1","naming","0","0","0","0","thingieEnter Name","0","4243","1","White_Screen.jpg","7","13","HDMIConnector.jpg","7"
"091219","13:06:10","25","25","5.0.14.0","2","72","trial1","naming","0","0","0","0","chairEnter Name","0","1931","1","White_Screen.jpg","9","184","Chair_Folding.jpg","9"
"091219","13:06:10","25","25","5.0.14.0","2","73","trial1","naming","0","0","0","0","lizardEnter Name","0","3955","1","White_Screen.jpg","7","28","Toy_Lizard.jpg","7"
"091219","13:06:10","25","25","5.0.14.0","2","74","trial1","naming","0","0","0","0","baEnter Name","0","2371","1","White_Screen.jpg","7","129","Pouch_Red.jpg","7"
"091219","13:06:10","25","25","5.0.14.0","2","75","trial1","naming","0","0","0","0","knobEnter Name","0","3720","1","White_Screen.jpg","9","73","Fuse.jpg","9"
"091219","13:06:10","25","25","5.0.14.0","2","76","trial1","naming","0","0","0","0","slurpee Enter Name","0","6392","1","White_Screen.jpg","7","16","SlushieMachine.jpg","7"
"091219","13:06:10","25","25","5.0.14.0","2","77","trial1","naming","0","0","0","0","paper clipEnter Name","0","3180","1","White_Screen.jpg","8","157","Clip_Paper.jpg","8"
"091219","13:06:10","25","25","5.0.14.0","2","78","trial1","naming","0","0","0","0","log houseEnter Name","0","2781","1","White_Screen.jpg","9","77","House_Wooden.jpg","9"
"091219","13:06:10","25","25","5.0.14.0","2","79","trial1","naming","0","0","0","0","coin wrappeEnter Name","0","4614","1","White_Screen.jpg","8","172","CoinRolls.jpg","8"
"091219","13:06:10","25","25","5.0.14.0","2","80","trial1","naming","0","0","0","0","rugEnter Name","0","1600","1","White_Screen.jpg","9","33","RugRoled.jpg","9"
"091219","13:06:10","25","25","5.0.14.0","2","81","trial1","naming","0","0","0","0","boardEnter Name","0","2661","1","White_Screen.jpg","7","3","Corkboard.jpg","7"
"091219","13:06:10","25","25","5.0.14.0","2","82","trial1","naming","0","0","0","0","keyboardEnter Name","0","2693","1","White_Screen.jpg","11","170","ComputerKeyboard.jpg","11"
"091219","13:06:10","25","25","5.0.14.0","2","83","trial1","naming","0","0","0","0","starfishEnter Name","0","2684","1","White_Screen.jpg","9","48","Starfish.jpg","9"
"091219","13:06:10","25","25","5.0.14.0","2","84","trial1","naming","0","0","0","0","radioEnter Name","0","2082","1","White_Screen.jpg","8","91","Radio_Antique.jpg","8"
"091219","13:06:10","25","25","5.0.14.0","2","85","trial1","naming","0","0","0","0","lipsEnter Name","0","1632","1","White_Screen.jpg","7","138","Lips_Wax.jpg","7"
"091219","13:06:10","25","25","5.0.14.0","2","86","trial1","naming","0","0","0","0","diaperEnter Name","0","2234","1","White_Screen.jpg","8","26","Cast.jpg","8"
"091219","13:06:10","25","25","5.0.14.0","2","87","trial1","naming","0","0","0","0","tableEnter Name","0","3510","1","White_Screen.jpg","8","54","DryRack_Clothes.jpg","8"
"091219","13:06:10","25","25","5.0.14.0","2","88","trial1","naming","0","0","0","0","stickEnter Name","0","4161","1","White_Screen.jpg","10","14","Toy_HockeyStick.jpg","10"
"091219","13:06:10","25","25","5.0.14.0","2","89","trial1","naming","0","0","0","0","engineEnter Name","0","1993","1","White_Screen.jpg","7","70","Seeder.jpg","7"
"091219","13:06:10","25","25","5.0.14.0","2","90","trial1","naming","0","0","0","0","friesEnter Name","0","1815","1","White_Screen.jpg","10","120","fries.jpg","10"
"091219","13:06:10","25","25","5.0.14.0","2","91","trial1","naming","0","0","0","0","hourglassEnter Name","0","3145","1","White_Screen.jpg","8","146","Hourglass.jpg","8"
"091219","13:06:10","25","25","5.0.14.0","2","92","trial1","naming","0","0","0","0","panEnter Name","0","1800","1","White_Screen.jpg","8","68","BakingDish.jpg","8"
"091219","13:06:10","25","25","5.0.14.0","2","93","trial1","naming","0","0","0","0","trayEnter Name","0","2191","1","White_Screen.jpg","7","188","Tray_Cafeteria.jpg","7"
"091219","13:06:10","25","25","5.0.14.0","2","94","trial1","naming","0","0","0","0","hornEnter Name","0","1871","1","White_Screen.jpg","8","105","SaxophoneSoprano.jpg","8"
"091219","13:06:10","25","25","5.0.14.0","2","95","trial1","naming","0","0","0","0","radioEnter Name","0","2031","1","White_Screen.jpg","7","18","WalkieTalkie_Red.jpg","7"
"091219","13:06:10","25","25","5.0.14.0","2","96","trial1","naming","0","0","0","0","tableEnter Name","0","2429","1","White_Screen.jpg","7","7","Nightstand.jpg","7"
"091219","13:06:10","25","25","5.0.14.0","2","97","trial1","naming","0","0","0","0","hoseEnter Name","0","1820","1","White_Screen.jpg","8","167","VacuumHose.jpg","8"
"091219","13:06:10","25","25","5.0.14.0","2","98","trial1","naming","0","0","0","0","snakeEnter Name","0","2302","1","White_Screen.jpg","11","58","Snake_Cobra.jpg","11"
"091219","13:06:10","25","25","5.0.14.0","2","99","trial1","naming","0","0","0","0","phoneEnter Name","0","3047","1","White_Screen.jpg","9","111","PhoneCase.jpg","9"
"091219","13:06:10","25","25","5.0.14.0","2","100","trial1","naming","0","0","0","0","statueEnter Name","0","5453","1","White_Screen.jpg","8","163","Statue_ManHorse.jpg","8"
"091219","13:06:10","25","25","5.0.14.0","2","101","trial1","naming","0","0","0","0","soapEnter Name","0","3577","1","White_Screen.jpg","7","12","Tofu.jpg","7"
"091219","13:06:10","25","25","5.0.14.0","2","103","trial1","naming","0","0","0","0","kitEnter Name","0","1793","1","White_Screen.jpg","7","193","Box_FirstAid.jpg","7"
"091219","13:06:10","25","25","5.0.14.0","2","104","trial1","naming","0","0","0","0","scaleEnter Name","0","1731","1","White_Screen.jpg","8","144","ScaleWeighing.jpg","8"
"091219","13:06:10","25","25","5.0.14.0","2","105","trial1","naming","0","0","0","0","hatEnter Name","0","1406","1","White_Screen.jpg","6","19","Hat_Sheriff.jpg","6"
"091219","13:06:10","25","25","5.0.14.0","2","106","trial1","naming","0","0","0","0","boxEnter Name","0","1533","1","White_Screen.jpg","6","182","Box_Package.jpg","6"
"091219","13:06:10","25","25","5.0.14.0","2","107","trial1","naming","0","0","0","0","penEnter Name","0","2054","1","White_Screen.jpg","7","27","Pen_Calligraphy.jpg","7"
"091219","13:06:10","25","25","5.0.14.0","2","108","trial1","naming","0","0","0","0","spoonEnter Name","0","2286","1","White_Screen.jpg","7","39","Spoon_Wooden.jpg","7"
"091219","13:06:10","25","25","5.0.14.0","2","109","trial1","naming","0","0","0","0","steamerEnter Name","0","3254","1","White_Screen.jpg","8","65","Steam_Cleaner.jpg","8"
"091219","13:06:10","25","25","5.0.14.0","2","110","trial1","naming","0","0","0","0","candyEnter Name","0","2504","1","White_Screen.jpg","8","198","Lollipop_Rainbow.jpg","8"
"091219","13:06:10","25","25","5.0.14.0","2","111","trial1","naming","0","0","0","0","toiletEnter Name","0","1995","1","White_Screen.jpg","8","139","Toilet.jpg","8"
"091219","13:06:10","25","25","5.0.14.0","2","112","trial1","naming","0","0","0","0","corkscrewEnter Name","0","4636","1","White_Screen.jpg","9","60","Scoop_IceCream.jpg","9"
"091219","13:06:10","25","25","5.0.14.0","2","113","trial1","naming","0","0","0","0","windchimeEnter Name","0","2752","1","White_Screen.jpg","9","121","Chime.jpg","9"
"091219","13:06:10","25","25","5.0.14.0","2","114","trial1","naming","0","0","0","0","candycaneEnter Name","0","2485","1","White_Screen.jpg","9","69","Candy_Cane.jpg","9"
"091219","13:06:10","25","25","5.0.14.0","2","115","trial1","naming","0","0","0","0","guitarEnter Name","0","1994","1","White_Screen.jpg","9","152","Guitar_Electric.jpg","9"
"091219","13:06:10","25","25","5.0.14.0","2","116","trial1","naming","0","0","0","0","sharkEnter Name","0","2557","1","White_Screen.jpg","7","140","Shark_Hammerhead.jpg","7"
"091219","13:06:10","25","25","5.0.14.0","2","117","trial1","naming","0","0","0","0","bobsledEnter Name","0","4219","1","White_Screen.jpg","8","122","DogSled.jpg","8"
"091219","13:06:10","25","25","5.0.14.0","2","118","trial1","naming","0","0","0","0","cardsEnter Name","0","2225","1","White_Screen.jpg","7","191","Card_QueenSpade.jpg","7"
"091219","13:06:10","25","25","5.0.14.0","2","119","trial1","naming","0","0","0","0","waterEnter Name","0","2021","1","White_Screen.jpg","8","96","WaterCooler.jpg","8"
"091219","13:06:10","25","25","5.0.14.0","2","120","trial1","naming","0","0","0","0","strapEnter Name","0","3403","1","White_Screen.jpg","8","174","Brace_Back.jpg","8"
"091219","13:06:10","25","25","5.0.14.0","2","121","trial1","naming","0","0","0","0","wagonEnter Name","0","2628","1","White_Screen.jpg","8","123","Cart_Wooden.jpg","8"
"091219","13:06:10","25","25","5.0.14.0","2","122","trial1","naming","0","0","0","0","wellEnter Name","0","1684","1","White_Screen.jpg","7","112","WaterWell.jpg","7"
"091219","13:06:10","25","25","5.0.14.0","2","123","trial1","naming","0","0","0","0","boxEnter Name","0","1458","1","White_Screen.jpg","7","32","Parcel.jpg","7"
"091219","13:06:10","25","25","5.0.14.0","2","124","trial1","naming","0","0","0","0","armorEnter Name","0","3742","1","White_Screen.jpg","7","104","Fencing_HelmetSwords.jpg","7"
"091219","13:06:10","25","25","5.0.14.0","2","125","trial1","naming","0","0","0","0","fanEnter Name","0","1982","1","White_Screen.jpg","7","88","Fan_Straw.jpg","7"
"091219","13:06:10","25","25","5.0.14.0","2","126","trial1","naming","0","0","0","0","truckEnter Name","0","1826","1","White_Screen.jpg","8","183","Toy_Truck.jpg","8"
"091219","13:06:10","25","25","5.0.14.0","2","127","trial1","naming","0","0","0","0","blocksEnter Name","0","2272","1","White_Screen.jpg","11","161","Toy_BlocksWoodenPlain.jpg","11"
"091219","13:06:10","25","25","5.0.14.0","2","128","trial1","naming","0","0","0","0","sledEnter Name","0","2377","1","White_Screen.jpg","7","94","Toy_Slide.jpg","7"
"091219","13:06:10","25","25","5.0.14.0","2","129","trial1","naming","0","0","0","0","hatEnter Name","0","2348","1","White_Screen.jpg","8","133","Hat_Beanie.jpg","8"
"091219","13:06:10","25","25","5.0.14.0","2","130","trial1","naming","0","0","0","0","burnerEnter Name","0","1925","1","White_Screen.jpg","7","78","Stovetop.jpg","7"
"091219","13:06:10","25","25","5.0.14.0","2","131","trial1","naming","0","0","0","0","ballEnter Name","0","1548","1","White_Screen.jpg","7","187","Ball_Squashball.jpg","7"
"091219","13:06:10","25","25","5.0.14.0","2","132","trial1","naming","0","0","0","0","tomatoEnter Name","0","1939","1","White_Screen.jpg","7","169","Tomato.jpg","7"
"091219","13:06:10","25","25","5.0.14.0","2","133","trial1","naming","0","0","0","0","lockEnter Name","0","3308","1","White_Screen.jpg","6","93","DoorBolt.jpg","6"
"091219","13:06:10","25","25","5.0.14.0","2","134","trial1","naming","0","0","0","0","riceEnter Name","0","3883","1","White_Screen.jpg","6","153","RiceRaw.jpg","6"
"091219","13:06:10","25","25","5.0.14.0","2","135","trial1","naming","0","0","0","0","bottleEnter Name","0","2050","1","White_Screen.jpg","8","124","HotWaterBottle.jpg","8"
"091219","13:06:10","25","25","5.0.14.0","2","136","trial1","naming","0","0","0","0","matchEnter Name","0","2218","1","White_Screen.jpg","9","185","Match.jpg","9"
"091219","13:06:10","25","25","5.0.14.0","2","137","trial1","naming","0","0","0","0","knifeEnter Name","0","3924","1","White_Screen.jpg","7","147","Knife_Camping.jpg","7"
"091219","13:06:10","25","25","5.0.14.0","2","138","trial1","naming","0","0","0","0","chariEnter Name","0","2136","1","White_Screen.jpg","7","117","Chair_Deck.jpg","7"
"091219","13:06:10","25","25","5.0.14.0","2","139","trial1","naming","0","0","0","0","bagelEnter Name","0","2990","1","White_Screen.jpg","7","115","Bagel.jpg","7"
"091219","13:06:10","25","25","5.0.14.0","2","140","trial1","naming","0","0","0","0","handleEnter Name","0","3175","1","White_Screen.jpg","10","87","DoorHandle.jpg","10"
"091219","13:06:10","25","25","5.0.14.0","2","141","trial1","naming","0","0","0","0","crabEnter Name","0","2297","1","White_Screen.jpg","9","5","Crab.jpg","9"
"091219","13:06:10","25","25","5.0.14.0","2","142","trial1","naming","0","0","0","0","shovelEnter Name","0","2721","1","White_Screen.jpg","8","22","Shovel_Garden.jpg","8"
"091219","13:06:10","25","25","5.0.14.0","2","143","trial1","naming","0","0","0","0","moneyEnter Name","0","3397","1","White_Screen.jpg","7","195","Jar_Money.jpg","7"
"091219","13:06:10","25","25","5.0.14.0","2","144","trial1","naming","0","0","0","0","cloudEnter Name","0","1619","1","White_Screen.jpg","8","149","Cloud.jpg","8"
"091219","13:06:10","25","25","5.0.14.0","2","145","trial1","naming","0","0","0","0","houseEnter Name","0","3805","1","White_Screen.jpg","7","165","House_Doll.jpg","7"
"091219","13:06:10","25","25","5.0.14.0","2","146","trial1","naming","0","0","0","0","signEnter Name","0","1817","1","White_Screen.jpg","5","72","Sign_Washroom.jpg","5"
"091219","13:06:10","25","25","5.0.14.0","2","147","trial1","naming","0","0","0","0","bibleEnter Name","0","2306","1","White_Screen.jpg","6","6","Folder_Plastic.jpg","6"
"091219","13:06:10","25","25","5.0.14.0","2","148","trial1","naming","0","0","0","0","skirtEnter Name","0","2216","1","White_Screen.jpg","11","148","Skirt_Stripes.jpg","11"
"091219","13:06:10","25","25","5.0.14.0","2","149","trial1","naming","0","0","0","0","hornsEnter Name","0","2742","1","White_Screen.jpg","9","113","SkullDeer.jpg","9"
"091219","13:06:10","25","25","5.0.14.0","2","150","trial1","naming","0","0","0","0","drainerEnter Name","0","4154","1","White_Screen.jpg","8","101","DrainPlug.jpg","8"
"091219","13:06:10","25","25","5.0.14.0","2","151","trial1","naming","0","0","0","0","airplaneEnter Name","0","2821","1","White_Screen.jpg","8","53","Airplane_Small.jpg","8"
"091219","13:06:10","25","25","5.0.14.0","2","152","trial1","naming","0","0","0","0","shortsEnter Name","0","2201","1","White_Screen.jpg","10","85","Pajamas.jpg","10"
"091219","13:06:10","25","25","5.0.14.0","2","154","trial1","naming","0","0","0","0","switchEnter Name","0","3113","1","White_Screen.jpg","8","67","Switch_Power.jpg","8"
"091219","13:06:10","25","25","5.0.14.0","2","155","trial1","naming","0","0","0","0","meterEnter Name","0","2736","1","White_Screen.jpg","6","127","MeterElectric.jpg","6"
"091219","13:06:10","25","25","5.0.14.0","2","156","trial1","naming","0","0","0","0","posteEnter Name","0","2562","1","White_Screen.jpg","8","108","Blueprints.jpg","8"
"091219","13:06:10","25","25","5.0.14.0","2","157","trial1","naming","0","0","0","0","candyEnter Name","0","2948","1","White_Screen.jpg","9","75","Candy_Caramel.jpg","9"
"091219","13:06:10","25","25","5.0.14.0","2","158","trial1","naming","0","0","0","0","liquidEnter Name","0","2883","1","White_Screen.jpg","8","110","WindshieldWasherFluid.jpg","8"
"091219","13:06:10","25","25","5.0.14.0","2","159","trial1","naming","0","0","0","0","barEnter Name","0","1664","1","White_Screen.jpg","6","126","TowelRack_Brown.jpg","6"
"091219","13:06:10","25","25","5.0.14.0","2","160","trial1","naming","0","0","0","0","earringsEnter Name","0","2391","1","White_Screen.jpg","7","107","Earrings_Dangling.jpg","7"
"091219","13:06:10","25","25","5.0.14.0","2","161","trial1","naming","0","0","0","0","sealEnter Name","0","2445","1","White_Screen.jpg","11","186","Seal_Toy.jpg","11"
"091219","13:06:10","25","25","5.0.14.0","2","162","trial1","naming","0","0","0","0","shotglassEnter Name","0","3956","1","White_Screen.jpg","7","131","MixingGlass.jpg","7"
"091219","13:06:10","25","25","5.0.14.0","2","163","trial1","naming","0","0","0","0","ticketsEnter Name","0","2205","1","White_Screen.jpg","9","155","Tickets_PrintWords.jpg","9"
"091219","13:06:10","25","25","5.0.14.0","2","164","trial1","naming","0","0","0","0","cartEnter Name","0","5527","1","White_Screen.jpg","7","56","Cart_Groceries.jpg","7"
"091219","13:06:10","25","25","5.0.14.0","2","165","trial1","naming","0","0","0","0","panEnter Name","0","3689","1","White_Screen.jpg","8","171","Origami_Boat.jpg","8"
"091219","13:06:10","25","25","5.0.14.0","2","166","trial1","naming","0","0","0","0","houseEnter Name","0","2119","1","White_Screen.jpg","10","99","PagodaModel.jpg","10"
"091219","13:06:10","25","25","5.0.14.0","2","167","trial1","naming","0","0","0","0","bottle openeEnter Name","0","3819","1","White_Screen.jpg","10","156","BottleOpener.jpg","10"
"091219","13:06:10","25","25","5.0.14.0","2","168","trial1","naming","0","0","0","0","tripodEnter Name","0","2914","1","White_Screen.jpg","9","36","Tripod.jpg","9"
"091219","13:06:10","25","25","5.0.14.0","2","169","trial1","naming","0","0","0","0","radioEnter Name","0","6449","1","White_Screen.jpg","8","114","Walkman.jpg","8"
"091219","13:06:10","25","25","5.0.14.0","2","170","trial1","naming","0","0","0","0","deskEnter Name","0","2951","1","White_Screen.jpg","8","64","Desk_School.jpg","8"
"091219","13:06:10","25","25","5.0.14.0","2","171","trial1","naming","0","0","0","0","playgroundEnter Name","0","5771","1","White_Screen.jpg","7","83","Playground.jpg","7"
"091219","13:06:10","25","25","5.0.14.0","2","172","trial1","naming","0","0","0","0","dustpanEnter Name","0","2990","1","White_Screen.jpg","7","116","DustPan.jpg","7"
"091219","13:06:10","25","25","5.0.14.0","2","173","trial1","naming","0","0","0","0","chipsEnter Name","0","2758","1","White_Screen.jpg","7","137","PokerChips.jpg","7"
"091219","13:06:10","25","25","5.0.14.0","2","174","trial1","naming","0","0","0","0","cutterEnter Name","0","3447","1","White_Screen.jpg","7","20","Pliers_ViceGrip.jpg","7"
"091219","13:06:10","25","25","5.0.14.0","2","175","trial1","naming","0","0","0","0","seatbeltEnter Name","0","3548","1","White_Screen.jpg","9","143","SeatBuckle.jpg","9"
"091219","13:06:10","25","25","5.0.14.0","2","176","trial1","naming","0","0","0","0","playerEnter Name","0","2449","1","White_Screen.jpg","7","136","PlayerFootball.jpg","7"
"091219","13:06:10","25","25","5.0.14.0","2","177","trial1","naming","0","0","0","0","lionEnter Name","0","1815","1","White_Screen.jpg","7","134","Lion.jpg","7"
"091219","13:06:10","25","25","5.0.14.0","2","178","trial1","naming","0","0","0","0","candyEnter Name","0","1935","1","White_Screen.jpg","6","43","Candy_Toffee.jpg","6"
"091219","13:06:10","25","25","5.0.14.0","2","179","trial1","naming","0","0","0","0","beanEnter Name","0","1744","1","White_Screen.jpg","7","159","StringBean.jpg","7"
"091219","13:06:10","25","25","5.0.14.0","2","180","trial1","naming","0","0","0","0","spongesEnter Name","0","2668","1","White_Screen.jpg","10","29","SpongeScrubbing.jpg","10"
"091219","13:06:10","25","25","5.0.14.0","2","181","trial1","naming","0","0","0","0","morterEnter Name","0","4497","1","White_Screen.jpg","9","158","MortarPestle_BlackStone.jpg","9"
"091219","13:06:10","25","25","5.0.14.0","2","182","trial1","naming","0","0","0","0","phone boothEnter Name","0","2667","1","White_Screen.jpg","7","37","Telephone_Booth.jpg","7"
"091219","13:06:10","25","25","5.0.14.0","2","183","trial1","naming","0","0","0","0","pitcherEnter Name","0","2843","1","White_Screen.jpg","7","141","Jug_ClayAncient.jpg","7"
"091219","13:06:10","25","25","5.0.14.0","2","184","trial1","naming","0","0","0","0","pillowEnter Name","0","2547","1","White_Screen.jpg","7","8","Neckrest.jpg","7"
"091219","13:06:10","25","25","5.0.14.0","2","185","trial1","naming","0","0","0","0","sharkEnter Name","0","2950","1","White_Screen.jpg","7","23","Fish_Swordfish.jpg","7"
"091219","13:06:10","25","25","5.0.14.0","2","186","trial1","naming","0","0","0","0","wineEnter Name","0","2547","1","White_Screen.jpg","7","38","Bottle_Champagne.jpg","7"
"091219","13:06:10","25","25","5.0.14.0","2","187","trial1","naming","0","0","0","0","cdEnter Name","0","1723","1","White_Screen.jpg","8","9","Case_DVD.jpg","8"
"091219","13:06:10","25","25","5.0.14.0","2","188","trial1","naming","0","0","0","0","cotton ballsEnter Name","0","3449","1","White_Screen.jpg","6","76","Jar_Cotton.jpg","6"
"091219","13:06:10","25","25","5.0.14.0","2","189","trial1","naming","0","0","0","0","drumEnter Name","0","2529","1","White_Screen.jpg","7","25","CrepeMaker.jpg","7"
"091219","13:06:10","25","25","5.0.14.0","2","190","trial1","naming","0","0","0","0","recordEnter Name","0","2734","1","White_Screen.jpg","9","34","VinylRecord.jpg","9"
"091219","13:06:10","25","25","5.0.14.0","2","191","trial1","naming","0","0","0","0","chairEnter Name","0","1934","1","White_Screen.jpg","9","192","Chair_Bamboo.jpg","9"
"091219","13:06:10","25","25","5.0.14.0","2","192","trial1","naming","0","0","0","0","penEnter Name","0","2988","1","White_Screen.jpg","7","1","Icepick.jpg","7"
"091219","13:06:10","25","25","5.0.14.0","2","193","trial1","naming","0","0","0","0","sharpenerEnter Name","0","2951","1","White_Screen.jpg","7","199","PencilSharpener.jpg","7"
"091219","13:06:10","25","25","5.0.14.0","2","194","trial1","naming","0","0","0","0","bottleEnter Name","0","2341","1","White_Screen.jpg","8","190","Bottle_Specimen.jpg","8"
"091219","13:06:10","25","25","5.0.14.0","2","195","trial1","naming","0","0","0","0","turtleEnter Name","0","3562","1","White_Screen.jpg","8","79","Turtle.jpg","8"
"091219","13:06:10","25","25","5.0.14.0","2","196","trial1","naming","0","0","0","0","hornEnter Name","0","2437","1","White_Screen.jpg","8","17","Megaphone.jpg","8"
"091219","13:06:10","25","25","5.0.14.0","2","197","trial1","naming","0","0","0","0","hornEnter Name","0","1913","1","White_Screen.jpg","9","62","Horn_French.jpg","9"
"091219","13:06:10","25","25","5.0.14.0","2","198","trial1","naming","0","0","0","0","diskEnter Name","0","1718","1","White_Screen.jpg","8","82","FloppyDisk.jpg","8"
"091219","13:06:10","25","25","5.0.14.0","2","199","trial1","naming","0","0","0","0","carEnter Name","0","2425","1","White_Screen.jpg","7","24","Car_Totalled.jpg","7"
"091219","13:06:10","25","25","5.0.14.0","2","200","trial1","naming","0","0","0","0","boxEnter Name","0","1730","1","White_Screen.jpg","7","130","Box_Wine.jpg","7"
"091219","13:06:10","25","25","5.0.14.0","2","201","trial1","naming","0","0","0","0","dropperEnter Name","0","2629","1","White_Screen.jpg","9","168","Dropper.jpg","9"
"091219","13:06:10","25","25","5.0.14.0","2","202","trial1","naming","0","0","0","0","shoesEnter Name","0","1784","1","White_Screen.jpg","8","40","Shoes_DutchClogs.jpg","8"
"091219","13:06:10","25","25","5.0.14.0","2","203","trial1","naming","0","0","0","0","lampEnter Name","0","2686","1","White_Screen.jpg","8","119","LampPost_OneBulb.jpg","8"
"091219","13:06:10","25","25","5.0.14.0","3","1","demographics_block","gender","0","0","0","0","female","1","11273","0","0","0","0","0","0"
"091219","13:06:10","25","25","5.0.14.0","3","1","demographics_block","age","0","0","0","0","46","1","11273","0","0","0","0","0","0"
"091219","13:06:10","25","25","5.0.14.0","3","1","demographics_block","education","0","0","0","0","14","1","11273","0","0","0","0","0","0"
"091219","13:06:10","25","25","5.0.14.0","3","2","demographics_block","left_right_handed","0","0","0","0","Left","1","11489","0","0","0","0","0","0"
"091219","13:06:10","25","25","5.0.14.0","3","2","demographics_block","raceoption1","0","0","0","0","0","1","11489","0","0","0","0","0","0"
"091219","13:06:10","25","25","5.0.14.0","3","2","demographics_block","raceoption2","0","0","0","0","","1","11489","0","0","0","0","0","0"
"091219","13:06:10","25","25","5.0.14.0","3","2","demographics_block","raceoption3","0","0","0","0","","1","11489","0","0","0","0","0","0"
"091219","13:06:10","25","25","5.0.14.0","3","2","demographics_block","raceoption4","0","0","0","0","","1","11489","0","0","0","0","0","0"
"091219","13:06:10","25","25","5.0.14.0","3","2","demographics_block","raceoption5","0","0","0","0","","1","11489","0","0","0","0","0","0"
"091219","13:06:10","25","25","5.0.14.0","3","2","demographics_block","raceoption6","0","0","0","0","","1","11489","0","0","0","0","0","0"
"091219","13:06:10","25","25","5.0.14.0","3","2","demographics_block","raceoption7","0","0","0","0","","1","11489","0","0","0","0","0","0"
"091219","13:06:10","25","25","5.0.14.0","3","2","demographics_block","raceoption8","0","0","0","0","","1","11489","0","0","0","0","0","0"
"091219","13:06:10","25","25","5.0.14.0","3","2","demographics_block","raceoption9","0","0","0","0","","1","11489","0","0","0","0","0","0"
"091219","13:06:10","25","25","5.0.14.0","3","2","demographics_block","raceother","0","0","0","0","","1","11489","0","0","0","0","0","0"
"091219","13:06:10","25","25","5.0.14.0","3","2","demographics_block","raceother","0","0","0","0","","1","11489","0","0","0","0","0","0"
"091219","13:06:10","25","25","5.0.14.0","3","2","demographics_block","english_language","0","0","0","0","Yes","1","11489","0","0","0","0","0","0"
"091219","13:06:10","25","25","5.0.14.0","3","2","demographics_block","english_languageother","0","0","0","0","","1","11489","0","0","0","0","0","0"
"091219","13:06:10","25","25","5.0.14.0","3","3","demographics_block","eyesight","0","0","0","0","Yes","1","10219","0","0","0","0","0","0"
"091219","13:06:10","25","25","5.0.14.0","3","3","demographics_block","colorblind","0","0","0","0","No","1","10219","0","0","0","0","0","0"
"091219","13:06:10","25","25","5.0.14.0","4","1","worker_id_block","worker_id_textbox","0","0","0","0","A2OVX9UW5WANQE","1","4895","0","0","0","0","0","0"
"091219","10:56:03","23","23","5.0.14.0","2","1","trial1","naming","0","0","0","0","Enter Name","0","10000","1","White_Screen.jpg","313","9","Case_DVD.jpg","313"
"091219","10:56:03","23","23","5.0.14.0","2","2","trial1","naming","0","0","0","0","fan","0","9205","1","White_Screen.jpg","12","166","Fan_Ceiling.jpg","12"
"091219","10:56:03","23","23","5.0.14.0","2","3","trial1","naming","0","0","0","0","HOT PLATE","0","10000","1","White_Screen.jpg","8","78","Stovetop.jpg","8"
"091219","10:56:03","23","23","5.0.14.0","2","4","trial1","naming","0","0","0","0","C","0","10000","1","White_Screen.jpg","8","113","SkullDeer.jpg","8"
"091219","10:56:03","23","23","5.0.14.0","2","5","trial1","naming","0","0","0","0","wagon","0","10000","1","White_Screen.jpg","13","122","DogSled.jpg","13"
"091219","10:56:03","23","23","5.0.14.0","2","6","trial1","naming","0","0","0","0","House","0","7373","1","White_Screen.jpg","4","165","House_Doll.jpg","4"
"091219","10:56:03","23","23","5.0.14.0","2","7","trial1","naming","0","0","0","0","bALL","0","6016","1","White_Screen.jpg","6","187","Ball_Squashball.jpg","6"
"091219","10:56:03","23","23","5.0.14.0","2","8","trial1","naming","0","0","0","0","bat","0","5360","1","White_Screen.jpg","7","97","Toy_Bat.jpg","7"
"091219","10:56:03","23","23","5.0.14.0","2","9","trial1","naming","0","0","0","0","Enter Name","0","10000","1","White_Screen.jpg","7","200","Hedgehog.jpg","7"
"091219","10:56:03","23","23","5.0.14.0","2","10","trial1","naming","0","0","0","0","baby carrier","0","10000","1","White_Screen.jpg","4","89","CarSeat.jpg","4"
"091219","10:56:03","23","23","5.0.14.0","2","11","trial1","naming","0","0","0","0","Enter Name","0","61","1","White_Screen.jpg","8","22","Shovel_Garden.jpg","8"
"091219","10:56:03","23","23","5.0.14.0","2","12","trial1","naming","0","0","0","0","Chinese house","0","10000","1","White_Screen.jpg","8","99","PagodaModel.jpg","8"
"091219","10:56:03","23","23","5.0.14.0","2","13","trial1","naming","0","0","0","0","box","0","3489","1","White_Screen.jpg","7","182","Box_Package.jpg","7"
"091219","10:56:03","23","23","5.0.14.0","2","14","trial1","naming","0","0","0","0","book","0","5723","1","White_Screen.jpg","10","6","Folder_Plastic.jpg","10"
"091219","10:56:03","23","23","5.0.14.0","2","15","trial1","naming","0","0","0","0","water dispenser","0","7758","1","White_Screen.jpg","11","96","WaterCooler.jpg","11"
"091219","10:56:03","23","23","5.0.14.0","2","16","trial1","naming","0","0","0","0","car","0","6791","1","White_Screen.jpg","8","84","Truck_Pickup.jpg","8"
"091219","10:56:03","23","23","5.0.14.0","2","17","trial1","naming","0","0","0","0","box","0","4950","1","White_Screen.jpg","7","128","TissueBox.jpg","7"
"091219","10:56:03","23","23","5.0.14.0","2","18","trial1","naming","0","0","0","0","keg","0","6402","1","White_Screen.jpg","8","110","WindshieldWasherFluid.jpg","8"
"091219","10:56:03","23","23","5.0.14.0","2","19","trial1","naming","0","0","0","0","dull","0","6238","1","White_Screen.jpg","8","47","Scarecrow.jpg","8"
"091219","10:56:03","23","23","5.0.14.0","2","20","trial1","naming","0","0","0","0","skirt","0","7790","1","White_Screen.jpg","6","148","Skirt_Stripes.jpg","6"
"091219","10:56:03","23","23","5.0.14.0","2","21","trial1","naming","0","0","0","0","trumpet","0","5495","1","White_Screen.jpg","11","105","SaxophoneSoprano.jpg","11"
"091219","10:56:03","23","23","5.0.14.0","2","22","trial1","naming","0","0","0","0","celul","0","10000","1","White_Screen.jpg","6","71","WalkieTalkie_Yellow.jpg","6"
"091219","10:56:03","23","23","5.0.14.0","2","23","trial1","naming","0","0","0","0","drum","0","6598","1","White_Screen.jpg","7","25","CrepeMaker.jpg","7"
"091219","10:56:03","23","23","5.0.14.0","2","24","trial1","naming","0","0","0","0","telephone","0","10000","1","White_Screen.jpg","8","132","Telephone_Dial.jpg","8"
"091219","10:56:03","23","23","5.0.14.0","2","25","trial1","naming","0","0","0","0","barell","0","6207","1","White_Screen.jpg","8","178","Barrel_Wine.jpg","8"
"091219","10:56:03","23","23","5.0.14.0","2","26","trial1","naming","0","0","0","0","film","0","10000","1","White_Screen.jpg","8","151","Film_Single.jpg","8"
"091219","10:56:03","23","23","5.0.14.0","2","27","trial1","naming","0","0","0","0","cuboar","0","10000","1","White_Screen.jpg","4","7","Nightstand.jpg","4"
"091219","10:56:03","23","23","5.0.14.0","2","28","trial1","naming","0","0","0","0","fish","0","8389","1","White_Screen.jpg","4","23","Fish_Swordfish.jpg","4"
"091219","10:56:03","23","23","5.0.14.0","2","29","trial1","naming","0","0","0","0","cloud","0","10000","1","White_Screen.jpg","9","149","Cloud.jpg","9"
"091219","10:56:03","23","23","5.0.14.0","2","30","trial1","naming","0","0","0","0","parker","0","6858","1","White_Screen.jpg","5","116","DustPan.jpg","5"
"091219","10:56:03","23","23","5.0.14.0","2","31","trial1","naming","0","0","0","0","key holder","0","7303","1","White_Screen.jpg","4","147","Knife_Camping.jpg","4"
"091219","10:56:03","23","23","5.0.14.0","2","32","trial1","naming","0","0","0","0","plier","0","8703","1","White_Screen.jpg","4","20","Pliers_ViceGrip.jpg","4"
"091219","10:56:03","23","23","5.0.14.0","2","33","trial1","naming","0","0","0","0","golf ","0","10000","1","White_Screen.jpg","5","180","Golf_Club.jpg","5"
"091219","10:56:03","23","23","5.0.14.0","2","34","trial1","naming","0","0","0","0","lip","0","5084","1","White_Screen.jpg","8","138","Lips_Wax.jpg","8"
"091219","10:56:03","23","23","5.0.14.0","2","35","trial1","naming","0","0","0","0","jean","0","4888","1","White_Screen.jpg","8","106","Pants_Firefighter.jpg","8"
"091219","10:56:03","23","23","5.0.14.0","2","36","trial1","naming","0","0","0","0","student cha","0","10000","1","White_Screen.jpg","5","64","Desk_School.jpg","5"
"091219","10:56:03","23","23","5.0.14.0","2","37","trial1","naming","0","0","0","0","bowl","0","5051","1","White_Screen.jpg","8","68","BakingDish.jpg","8"
"091219","10:56:03","23","23","5.0.14.0","2","38","trial1","naming","0","0","0","0","candy","0","5686","1","White_Screen.jpg","5","69","Candy_Cane.jpg","5"
"091219","10:56:03","23","23","5.0.14.0","2","39","trial1","naming","0","0","0","0","jar","0","5037","1","White_Screen.jpg","7","76","Jar_Cotton.jpg","7"
"091219","10:56:03","23","23","5.0.14.0","2","40","trial1","naming","0","0","0","0","biscuit","0","6188","1","White_Screen.jpg","8","4","DogTreat.jpg","8"
"091219","10:56:03","23","23","5.0.14.0","2","41","trial1","naming","0","0","0","0","chops","0","10000","1","White_Screen.jpg","5","125","Bowl_Chopsticks.jpg","5"
"091219","10:56:03","23","23","5.0.14.0","2","42","trial1","naming","0","0","0","0","teeth","0","10000","1","White_Screen.jpg","4","10","TeethModel.jpg","4"
"091219","10:56:03","23","23","5.0.14.0","2","43","trial1","naming","0","0","0","0","h","0","10000","1","White_Screen.jpg","8","179","Hippopotamus.jpg","8"
"091219","10:56:03","23","23","5.0.14.0","2","44","trial1","naming","0","0","0","0","house","0","4340","1","White_Screen.jpg","4","77","House_Wooden.jpg","4"
"091219","10:56:03","23","23","5.0.14.0","2","45","trial1","naming","0","0","0","0","Enter Name","0","10000","1","White_Screen.jpg","11","168","Dropper.jpg","11"
"091219","10:56:03","23","23","5.0.14.0","2","46","trial1","naming","0","0","0","0","ticket","0","6122","1","White_Screen.jpg","6","155","Tickets_PrintWords.jpg","6"
"091219","10:56:03","23","23","5.0.14.0","2","47","trial1","naming","0","0","0","0","tomatoe","0","6332","1","White_Screen.jpg","9","169","Tomato.jpg","9"
"091219","10:56:03","23","23","5.0.14.0","2","48","trial1","naming","0","0","0","0","wine","0","4160","1","White_Screen.jpg","7","38","Bottle_Champagne.jpg","7"
"091219","10:56:03","23","23","5.0.14.0","2","49","trial1","naming","0","0","0","0","resting ch","0","10000","1","White_Screen.jpg","5","192","Chair_Bamboo.jpg","5"
"091219","10:56:03","23","23","5.0.14.0","2","50","trial1","naming","0","0","0","0","street l","0","10000","1","White_Screen.jpg","6","119","LampPost_OneBulb.jpg","6"
"091219","10:56:03","23","23","5.0.14.0","2","52","trial1","naming","0","0","0","0","paper boat","0","9145","1","White_Screen.jpg","13","171","Origami_Boat.jpg","13"
"091219","10:56:03","23","23","5.0.14.0","2","53","trial1","naming","0","0","0","0","turn","0","10000","1","White_Screen.jpg","6","39","Spoon_Wooden.jpg","6"
"091219","10:56:03","23","23","5.0.14.0","2","54","trial1","naming","0","0","0","0","pipe","0","6050","1","White_Screen.jpg","10","167","VacuumHose.jpg","10"
"091219","10:56:03","23","23","5.0.14.0","2","55","trial1","naming","0","0","0","0","sponge","0","6932","1","White_Screen.jpg","8","29","SpongeScrubbing.jpg","8"
"091219","10:56:03","23","23","5.0.14.0","2","56","trial1","naming","0","0","0","0","spread","0","6851","1","White_Screen.jpg","11","54","DryRack_Clothes.jpg","11"
"091219","10:56:03","23","23","5.0.14.0","2","57","trial1","naming","0","0","0","0","rice","0","6850","1","White_Screen.jpg","8","153","RiceRaw.jpg","8"
"091219","10:56:03","23","23","5.0.14.0","2","58","trial1","naming","0","0","0","0","skelleton","0","10000","1","White_Screen.jpg","8","45","HumanSkeleton.jpg","8"
"091219","10:56:03","23","23","5.0.14.0","2","59","trial1","naming","0","0","0","0","gun","0","4786","1","White_Screen.jpg","4","86","Gun_Revolver.jpg","4"
"091219","10:56:03","23","23","5.0.14.0","2","60","trial1","naming","0","0","0","0","pot","0","3667","1","White_Screen.jpg","4","141","Jug_ClayAncient.jpg","4"
"091219","10:56:03","23","23","5.0.14.0","2","61","trial1","naming","0","0","0","0","trumpet","0","7318","1","White_Screen.jpg","8","62","Horn_French.jpg","8"
"091219","10:56:03","23","23","5.0.14.0","2","62","trial1","naming","0","0","0","0","mortal","0","5672","1","White_Screen.jpg","7","158","MortarPestle_BlackStone.jpg","7"
"091219","10:56:03","23","23","5.0.14.0","2","63","trial1","naming","0","0","0","0","wwell","0","6579","1","White_Screen.jpg","7","112","WaterWell.jpg","7"
"091219","10:56:03","23","23","5.0.14.0","2","64","trial1","naming","0","0","0","0","broken car","0","10000","1","White_Screen.jpg","7","24","Car_Totalled.jpg","7"
"091219","10:56:03","23","23","5.0.14.0","2","65","trial1","naming","0","0","0","0","Enter Name","0","166","1","White_Screen.jpg","3","123","Cart_Wooden.jpg","3"
"091219","10:56:03","23","23","5.0.14.0","2","66","trial1","naming","0","0","0","0","doos","0","5636","1","White_Screen.jpg","8","91","Radio_Antique.jpg","8"
"091219","10:56:03","23","23","5.0.14.0","2","67","trial1","naming","0","0","0","0","fries","0","7173","1","White_Screen.jpg","5","120","fries.jpg","5"
"091219","10:56:03","23","23","5.0.14.0","2","68","trial1","naming","0","0","0","0","joker","0","9716","1","White_Screen.jpg","5","191","Card_QueenSpade.jpg","5"
"091219","10:56:03","23","23","5.0.14.0","2","69","trial1","naming","0","0","0","0","Enter Name","0","10000","1","White_Screen.jpg","4","28","Toy_Lizard.jpg","4"
"091219","10:56:03","23","23","5.0.14.0","2","70","trial1","naming","0","0","0","0","key","0","4948","1","White_Screen.jpg","7","87","DoorHandle.jpg","7"
"091219","10:56:03","23","23","5.0.14.0","2","71","trial1","naming","0","0","0","0","bread","0","5791","1","White_Screen.jpg","8","12","Tofu.jpg","8"
"091219","10:56:03","23","23","5.0.14.0","2","72","trial1","naming","0","0","0","0","magazine","0","10000","1","White_Screen.jpg","5","55","MagazineRoll.jpg","5"
"091219","10:56:03","23","23","5.0.14.0","2","73","trial1","naming","0","0","0","0","tiger","0","10000","1","White_Screen.jpg","7","186","Seal_Toy.jpg","7"
"091219","10:56:03","23","23","5.0.14.0","2","74","trial1","naming","0","0","0","0","elebox","0","10000","1","White_Screen.jpg","7","114","Walkman.jpg","7"
"091219","10:56:03","23","23","5.0.14.0","2","75","trial1","naming","0","0","0","0","mat","0","5875","1","White_Screen.jpg","8","33","RugRoled.jpg","8"
"091219","10:56:03","23","23","5.0.14.0","2","76","trial1","naming","0","0","0","0","scissor","0","10000","1","White_Screen.jpg","8","2","ShearsGarden.jpg","8"
"091219","10:56:03","23","23","5.0.14.0","2","77","trial1","naming","0","0","0","0","pre","0","10000","1","White_Screen.jpg","10","172","CoinRolls.jpg","10"
"091219","10:56:03","23","23","5.0.14.0","2","78","trial1","naming","0","0","0","0","footballe","0","10000","1","White_Screen.jpg","4","136","PlayerFootball.jpg","4"
"091219","10:56:03","23","23","5.0.14.0","2","79","trial1","naming","0","0","0","0","aircraft","0","7924","1","White_Screen.jpg","8","53","Airplane_Small.jpg","8"
"091219","10:56:03","23","23","5.0.14.0","2","80","trial1","naming","0","0","0","0","graduation cap","0","8861","1","White_Screen.jpg","10","109","CapGraduation.jpg","10"
"091219","10:56:03","23","23","5.0.14.0","2","81","trial1","naming","0","0","0","0","piano","0","10000","1","White_Screen.jpg","7","121","Chime.jpg","7"
"091219","10:56:03","23","23","5.0.14.0","2","82","trial1","naming","0","0","0","0","strawbe","0","10000","1","White_Screen.jpg","7","100","TartStrawberry.jpg","7"
"091219","10:56:03","23","23","5.0.14.0","2","83","trial1","naming","0","0","0","0","toy","0","6395","1","White_Screen.jpg","7","183","Toy_Truck.jpg","7"
"091219","10:56:03","23","23","5.0.14.0","2","84","trial1","naming","0","0","0","0","tripo","0","10000","1","White_Screen.jpg","7","36","Tripod.jpg","7"
"091219","10:56:03","23","23","5.0.14.0","2","85","trial1","naming","0","0","0","0","lens","0","5462","1","White_Screen.jpg","4","73","Fuse.jpg","4"
"091219","10:56:03","23","23","5.0.14.0","2","86","trial1","naming","0","0","0","0","pillow","0","5280","1","White_Screen.jpg","7","8","Neckrest.jpg","7"
"091219","10:56:03","23","23","5.0.14.0","2","87","trial1","naming","0","0","0","0","fork","0","4899","1","White_Screen.jpg","9","145","HandRake.jpg","9"
"091219","10:56:03","23","23","5.0.14.0","2","88","trial1","naming","0","0","0","0","ninjf","0","10000","1","White_Screen.jpg","4","104","Fencing_HelmetSwords.jpg","4"
"091219","10:56:03","23","23","5.0.14.0","2","89","trial1","naming","0","0","0","0","cardigan","0","7413","1","White_Screen.jpg","4","173","Hoodie.jpg","4"
"091219","10:56:03","23","23","5.0.14.0","2","90","trial1","naming","0","0","0","0","Enter Name","0","10000","1","White_Screen.jpg","8","60","Scoop_IceCream.jpg","8"
"091219","10:56:03","23","23","5.0.14.0","2","91","trial1","naming","0","0","0","0","handle","0","4699","1","White_Screen.jpg","9","126","TowelRack_Brown.jpg","9"
"091219","10:56:03","23","23","5.0.14.0","2","92","trial1","naming","0","0","0","0","snake","0","4385","1","White_Screen.jpg","8","58","Snake_Cobra.jpg","8"
"091219","10:56:03","23","23","5.0.14.0","2","93","trial1","naming","0","0","0","0","chair","0","6013","1","White_Screen.jpg","5","184","Chair_Folding.jpg","5"
"091219","10:56:03","23","23","5.0.14.0","2","94","trial1","naming","0","0","0","0","board","0","5766","1","White_Screen.jpg","8","3","Corkboard.jpg","8"
"091219","10:56:03","23","23","5.0.14.0","2","95","trial1","naming","0","0","0","0","celebra","0","10000","1","White_Screen.jpg","7","50","Lei.jpg","7"
"091219","10:56:03","23","23","5.0.14.0","2","96","trial1","naming","0","0","0","0","sa","0","10000","1","White_Screen.jpg","9","17","Megaphone.jpg","9"
"091219","10:56:03","23","23","5.0.14.0","2","97","trial1","naming","0","0","0","0","adapter","0","7131","1","White_Screen.jpg","4","13","HDMIConnector.jpg","4"
"091219","10:56:03","23","23","5.0.14.0","2","98","trial1","naming","0","0","0","0","Enter Namechocolate","0","10000","1","White_Screen.jpg","7","75","Candy_Caramel.jpg","7"
"091219","10:56:03","23","23","5.0.14.0","2","99","trial1","naming","0","0","0","0","hand fan","0","7231","1","White_Screen.jpg","11","88","Fan_Straw.jpg","11"
"091219","10:56:03","23","23","5.0.14.0","2","100","trial1","naming","0","0","0","0","switch","0","7039","1","White_Screen.jpg","11","67","Switch_Power.jpg","11"
"091219","10:56:03","23","23","5.0.14.0","2","101","trial1","naming","0","0","0","0","plate","0","8518","1","White_Screen.jpg","5","188","Tray_Cafeteria.jpg","5"
"091219","10:56:03","23","23","5.0.14.0","2","103","trial1","naming","0","0","0","0","desert","0","8476","1","White_Screen.jpg","6","51","SundaeBanana.jpg","6"
"091219","10:56:03","23","23","5.0.14.0","2","104","trial1","naming","0","0","0","0","snail","0","7164","1","White_Screen.jpg","10","177","Snail.jpg","10"
"091219","10:56:03","23","23","5.0.14.0","2","105","trial1","naming","0","0","0","0","shark","0","5223","1","White_Screen.jpg","10","140","Shark_Hammerhead.jpg","10"
"091219","10:56:03","23","23","5.0.14.0","2","106","trial1","naming","0","0","0","0","sack","0","6398","1","White_Screen.jpg","6","129","Pouch_Red.jpg","6"
"091219","10:56:03","23","23","5.0.14.0","2","107","trial1","naming","0","0","0","0","lock","0","5228","1","White_Screen.jpg","8","196","Lock_Door.jpg","8"
"091219","10:56:03","23","23","5.0.14.0","2","108","trial1","naming","0","0","0","0","fryi","0","10000","1","White_Screen.jpg","4","101","DrainPlug.jpg","4"
"091219","10:56:03","23","23","5.0.14.0","2","109","trial1","naming","0","0","0","0","bos","0","10000","1","White_Screen.jpg","3","85","Pajamas.jpg","3"
"091219","10:56:03","23","23","5.0.14.0","2","110","trial1","naming","0","0","0","0","dinasure","0","10000","1","White_Screen.jpg","7","44","Toy_DinosaurTRex.jpg","7"
"091219","10:56:03","23","23","5.0.14.0","2","111","trial1","naming","0","0","0","0","box","0","5319","1","White_Screen.jpg","7","130","Box_Wine.jpg","7"
"091219","10:56:03","23","23","5.0.14.0","2","112","trial1","naming","0","0","0","0","do","0","10000","1","White_Screen.jpg","7","115","Bagel.jpg","7"
"091219","10:56:03","23","23","5.0.14.0","2","113","trial1","naming","0","0","0","0","christmas tree","0","10000","1","White_Screen.jpg","4","11","Toy_Christmastree.jpg","4"
"091219","10:56:03","23","23","5.0.14.0","2","114","trial1","naming","0","0","0","0","s","0","10000","1","White_Screen.jpg","8","199","PencilSharpener.jpg","8"
"091219","10:56:03","23","23","5.0.14.0","2","115","trial1","naming","0","0","0","0","slide","0","6142","1","White_Screen.jpg","7","94","Toy_Slide.jpg","7"
"091219","10:56:03","23","23","5.0.14.0","2","116","trial1","naming","0","0","0","0","vacu","0","10000","1","White_Screen.jpg","5","65","Steam_Cleaner.jpg","5"
"091219","10:56:03","23","23","5.0.14.0","2","117","trial1","naming","0","0","0","0","clip","0","8211","1","White_Screen.jpg","10","157","Clip_Paper.jpg","10"
"091219","10:56:03","23","23","5.0.14.0","2","118","trial1","naming","0","0","0","0","keyboard","0","10000","1","White_Screen.jpg","11","170","ComputerKeyboard.jpg","11"
"091219","10:56:03","23","23","5.0.14.0","2","119","trial1","naming","0","0","0","0","Enter Name","0","2","1","White_Screen.jpg","9","134","Lion.jpg","9"
"091219","10:56:03","23","23","5.0.14.0","2","120","trial1","naming","0","0","0","0","shoe","0","4799","1","White_Screen.jpg","9","40","Shoes_DutchClogs.jpg","9"
"091219","10:56:03","23","23","5.0.14.0","2","121","trial1","naming","0","0","0","0","meter","0","5633","1","White_Screen.jpg","6","127","MeterElectric.jpg","6"
"091219","10:56:03","23","23","5.0.14.0","2","122","trial1","naming","0","0","0","0","syri","0","10000","1","White_Screen.jpg","7","150","Syringe_Needle.jpg","7"
"091219","10:56:03","23","23","5.0.14.0","2","123","trial1","naming","0","0","0","0","plant","0","5954","1","White_Screen.jpg","4","49","Artichoke.jpg","4"
"091219","10:56:03","23","23","5.0.14.0","2","124","trial1","naming","0","0","0","0","pen","0","8883","1","White_Screen.jpg","4","27","Pen_Calligraphy.jpg","4"
"091219","10:56:03","23","23","5.0.14.0","2","125","trial1","naming","0","0","0","0","wood","0","5663","1","White_Screen.jpg","4","161","Toy_BlocksWoodenPlain.jpg","4"
"091219","10:56:03","23","23","5.0.14.0","2","126","trial1","naming","0","0","0","0","strap","0","6847","1","White_Screen.jpg","9","174","Brace_Back.jpg","9"
"091219","10:56:03","23","23","5.0.14.0","2","127","trial1","naming","0","0","0","0","hoo","0","10000","1","White_Screen.jpg","4","143","SeatBuckle.jpg","4"
"091219","10:56:03","23","23","5.0.14.0","2","128","trial1","naming","0","0","0","0","opener","0","6779","1","White_Screen.jpg","6","156","BottleOpener.jpg","6"
"091219","10:56:03","23","23","5.0.14.0","2","129","trial1","naming","0","0","0","0","c","0","10000","1","White_Screen.jpg","6","56","Cart_Groceries.jpg","6"
"091219","10:56:03","23","23","5.0.14.0","2","130","trial1","naming","0","0","0","0","amord cloth","0","10000","1","White_Screen.jpg","6","164","ShoulderPads.jpg","6"
"091219","10:56:03","23","23","5.0.14.0","2","131","trial1","naming","0","0","0","0","cord","0","5073","1","White_Screen.jpg","4","142","Cable_AudioSplitter.jpg","4"
"091219","10:56:03","23","23","5.0.14.0","2","132","trial1","naming","0","0","0","0","case","0","3828","1","White_Screen.jpg","5","111","PhoneCase.jpg","5"
"091219","10:56:03","23","23","5.0.14.0","2","133","trial1","naming","0","0","0","0","pear","0","8319","1","White_Screen.jpg","11","31","Pear_Green.jpg","11"
"091219","10:56:03","23","23","5.0.14.0","2","134","trial1","naming","0","0","0","0","stamp","0","5064","1","White_Screen.jpg","7","181","StampAndSeal.jpg","7"
"091219","10:56:03","23","23","5.0.14.0","2","135","trial1","naming","0","0","0","0","id card holder\","0","9639","1","White_Screen.jpg","11","82","FloppyDisk.jpg","11"
"091219","10:56:03","23","23","5.0.14.0","2","136","trial1","naming","0","0","0","0","glass cup","0","6706","1","White_Screen.jpg","7","42","Glass_Cup.jpg","7"
"091219","10:56:03","23","23","5.0.14.0","2","137","trial1","naming","0","0","0","0","cap","0","4655","1","White_Screen.jpg","4","133","Hat_Beanie.jpg","4"
"091219","10:56:03","23","23","5.0.14.0","2","138","trial1","naming","0","0","0","0","refridgirator","0","10000","1","White_Screen.jpg","7","63","Fridge.jpg","7"
"091219","10:56:03","23","23","5.0.14.0","2","139","trial1","naming","0","0","0","0","drum","0","5140","1","White_Screen.jpg","7","102","Drum_Tall.jpg","7"
"091219","10:56:03","23","23","5.0.14.0","2","140","trial1","naming","0","0","0","0","wallet","0","5142","1","White_Screen.jpg","7","61","Wallet_ClosedBlack.jpg","7"
"091219","10:56:03","23","23","5.0.14.0","2","141","trial1","naming","0","0","0","0","juice m","0","10000","1","White_Screen.jpg","4","16","SlushieMachine.jpg","4"
"091219","10:56:03","23","23","5.0.14.0","2","142","trial1","naming","0","0","0","0","toilet","0","6730","1","White_Screen.jpg","8","139","Toilet.jpg","8"
"091219","10:56:03","23","23","5.0.14.0","2","143","trial1","naming","0","0","0","0","call ","0","10000","1","White_Screen.jpg","10","37","Telephone_Booth.jpg","10"
"091219","10:56:03","23","23","5.0.14.0","2","144","trial1","naming","0","0","0","0","stick","0","10000","1","White_Screen.jpg","7","185","Match.jpg","7"
"091219","10:56:03","23","23","5.0.14.0","2","145","trial1","naming","0","0","0","0","Enter Name","0","307","1","White_Screen.jpg","8","66","Gazebo.jpg","8"
"091219","10:56:03","23","23","5.0.14.0","2","146","trial1","naming","0","0","0","0","jwelry","0","10000","1","White_Screen.jpg","7","154","Box_JeweleryWooden.jpg","7"
"091219","10:56:03","23","23","5.0.14.0","2","147","trial1","naming","0","0","0","0","pen","0","7870","1","White_Screen.jpg","9","1","Icepick.jpg","9"
"091219","10:56:03","23","23","5.0.14.0","2","148","trial1","naming","0","0","0","0","Enter Name","0","10000","1","White_Screen.jpg","6","124","HotWaterBottle.jpg","6"
"091219","10:56:03","23","23","5.0.14.0","2","149","trial1","naming","0","0","0","0","sign","0","5923","1","White_Screen.jpg","8","72","Sign_Washroom.jpg","8"
"091219","10:56:03","23","23","5.0.14.0","2","150","trial1","naming","0","0","0","0","stapler pin","0","9317","1","White_Screen.jpg","8","162","Box_Staples.jpg","8"
"091219","10:56:03","23","23","5.0.14.0","2","151","trial1","naming","0","0","0","0","tortoise","0","8980","1","White_Screen.jpg","8","79","Turtle.jpg","8"
"091219","10:56:03","23","23","5.0.14.0","2","152","trial1","naming","0","0","0","0","earings","0","8899","1","White_Screen.jpg","8","107","Earrings_Dangling.jpg","8"
"091219","10:56:03","23","23","5.0.14.0","2","154","trial1","naming","0","0","0","0","christmas","0","10000","1","White_Screen.jpg","4","194","SnowmanDecor.jpg","4"
"091219","10:56:03","23","23","5.0.14.0","2","155","trial1","naming","0","0","0","0","Enter Name","0","10000","1","White_Screen.jpg","7","137","PokerChips.jpg","7"
"091219","10:56:03","23","23","5.0.14.0","2","156","trial1","naming","0","0","0","0","cap","0","6131","1","White_Screen.jpg","4","103","Hat_Explorer.jpg","4"
"091219","10:56:03","23","23","5.0.14.0","2","157","trial1","naming","0","0","0","0","Enter Name","0","10000","1","White_Screen.jpg","8","14","Toy_HockeyStick.jpg","8"
"091219","10:56:03","23","23","5.0.14.0","2","158","trial1","naming","0","0","0","0","statue","0","5964","1","White_Screen.jpg","7","163","Statue_ManHorse.jpg","7"
"091219","10:56:03","23","23","5.0.14.0","2","159","trial1","naming","0","0","0","0","rock","0","6321","1","White_Screen.jpg","7","21","PumiceStone.jpg","7"
"091219","10:56:03","23","23","5.0.14.0","2","160","trial1","naming","0","0","0","0","resting chair","0","7813","1","White_Screen.jpg","7","117","Chair_Deck.jpg","7"
"091219","10:56:03","23","23","5.0.14.0","2","161","trial1","naming","0","0","0","0","toy","0","6731","1","White_Screen.jpg","8","80","Toy_BeadMaze.jpg","8"
"091219","10:56:03","23","23","5.0.14.0","2","162","trial1","naming","0","0","0","0","beans","0","7568","1","White_Screen.jpg","9","159","StringBean.jpg","9"
"091219","10:56:03","23","23","5.0.14.0","2","163","trial1","naming","0","0","0","0","sack","0","6700","1","White_Screen.jpg","8","197","Bag_Grains.jpg","8"
"091219","10:56:03","23","23","5.0.14.0","2","164","trial1","naming","0","0","0","0","bucket","0","5529","1","White_Screen.jpg","8","160","Thimble.jpg","8"
"091219","10:56:03","23","23","5.0.14.0","2","165","trial1","naming","0","0","0","0","ship","0","6041","1","White_Screen.jpg","8","92","Ship_Battle.jpg","8"
"091219","10:56:03","23","23","5.0.14.0","2","166","trial1","naming","0","0","0","0","swing","0","6183","1","White_Screen.jpg","7","57","Hammock.jpg","7"
"091219","10:56:03","23","23","5.0.14.0","2","167","trial1","naming","0","0","0","0","engine","0","7089","1","White_Screen.jpg","8","70","Seeder.jpg","8"
"091219","10:56:03","23","23","5.0.14.0","2","168","trial1","naming","0","0","0","0","disc","0","8602","1","White_Screen.jpg","7","34","VinylRecord.jpg","7"
"091219","10:56:03","23","23","5.0.14.0","2","169","trial1","naming","0","0","0","0","hat","0","8010","1","White_Screen.jpg","7","19","Hat_Sheriff.jpg","7"
"091219","10:56:03","23","23","5.0.14.0","2","170","trial1","naming","0","0","0","0","carvi","0","10000","1","White_Screen.jpg","7","52","Mask_African.jpg","7"
"091219","10:56:03","23","23","5.0.14.0","2","171","trial1","naming","0","0","0","0","jar","0","6580","1","White_Screen.jpg","8","195","Jar_Money.jpg","8"
"091219","10:56:03","23","23","5.0.14.0","2","172","trial1","naming","0","0","0","0","pepper","0","8603","1","White_Screen.jpg","8","81","Pepper_Chili.jpg","8"
"091219","10:56:03","23","23","5.0.14.0","2","173","trial1","naming","0","0","0","0","h","0","10000","1","White_Screen.jpg","11","176","Apple_Candy.jpg","11"
"091219","10:56:03","23","23","5.0.14.0","2","174","trial1","naming","0","0","0","0","sEnter Name","0","10000","1","White_Screen.jpg","4","135","Corkscrew.jpg","4"
"091219","10:56:03","23","23","5.0.14.0","2","175","trial1","naming","0","0","0","0","mach","0","10000","1","White_Screen.jpg","8","59","Heater_ElectricUpright.jpg","8"
