"date","time","group","subject","build","blocknum","trialnum","blockcode","trialcode","pretrialpause","posttrialpause","trialduration","trialtimeout","response","correct","latency","stimulusnumber1","stimulusitem1","stimulusonset1","stimulusnumber2","stimulusitem2","stimulusonset2"
"080819","14:41:39","4","4","5.0.14.0","2","1","trial1","naming","0","0","0","0","knife","0","2424","1","White_Screen.jpg","52","154","Knife_Butter.jpg","52"
"080819","14:41:39","4","4","5.0.14.0","2","2","trial1","naming","0","0","0","0","baby doll","0","4501","1","White_Screen.jpg","17","132","Toy_Babydoll.jpg","17"
"080819","14:41:39","4","4","5.0.14.0","2","3","trial1","naming","0","0","0","0","fork","0","2437","1","White_Screen.jpg","18","37","Fork_Regular.jpg","18"
"080819","14:41:39","4","4","5.0.14.0","2","4","trial1","naming","0","0","0","0","Ctrl+'Q'","1","1825","1","White_Screen.jpg","19","14","Case_WoodenOrnate.jpg","19"
"080819","14:44:43","5","5","5.0.14.0","2","1","trial1","naming","0","0","0","0","bomb","0","3093","1","White_Screen.jpg","52","1","Bomb.jpg","52"
"080819","14:44:43","5","5","5.0.14.0","2","2","trial1","naming","0","0","0","0","Ctrl+'Q'","1","2807","1","White_Screen.jpg","19","188","Sign_Caution.jpg","19"
"080819","14:50:47","8","8","5.0.14.0","2","1","trial1","naming","0","0","0","0","ambulance","0","9902","1","White_Screen.jpg","55","65","Ambulance.jpg","55"
"080819","14:50:47","8","8","5.0.14.0","2","2","trial1","naming","0","0","0","0","blocks","0","7811","1","White_Screen.jpg","3","77","Toy_StackingRing.jpg","3"
"080819","14:50:47","8","8","5.0.14.0","2","3","trial1","naming","0","0","0","0","seashell","0","8332","1","White_Screen.jpg","4","2","Fossil.jpg","4"
"080819","14:50:47","8","8","5.0.14.0","2","4","trial1","naming","0","0","0","0","whist","0","10000","1","White_Screen.jpg","3","149","RecorderInstrument.jpg","3"
"080819","14:50:47","8","8","5.0.14.0","2","5","trial1","naming","0","0","0","0","mask","0","5545","1","White_Screen.jpg","3","173","Mask_Masquerade.jpg","3"
"080819","14:50:47","8","8","5.0.14.0","2","6","trial1","naming","0","0","0","0","boots","0","4788","1","White_Screen.jpg","3","143","Shoes_Snowboarding.jpg","3"
"080819","14:50:47","8","8","5.0.14.0","2","7","trial1","naming","0","0","0","0","leaf blower","0","4580","1","White_Screen.jpg","4","12","LeafBlower.jpg","4"
"080819","14:50:47","8","8","5.0.14.0","2","8","trial1","naming","0","0","0","0","cup","0","3373","1","White_Screen.jpg","3","34","Cup_Styrofoam.jpg","3"
"080819","14:50:47","8","8","5.0.14.0","2","9","trial1","naming","0","0","0","0","salsa","0","5105","1","White_Screen.jpg","4","110","Jar_Strawberry.jpg","4"
"080819","14:50:47","8","8","5.0.14.0","2","10","trial1","naming","0","0","0","0","hawk","0","4235","1","White_Screen.jpg","4","72","Bird_Falcon.jpg","4"
"080819","14:50:47","8","8","5.0.14.0","2","11","trial1","naming","0","0","0","0","sneaker","0","4015","1","White_Screen.jpg","3","197","Shoe_Sneaker.jpg","3"
"080819","14:50:47","8","8","5.0.14.0","2","12","trial1","naming","0","0","0","0","coffee grinder","0","5728","1","White_Screen.jpg","3","38","ProcessorFood_Old.jpg","3"
"080819","14:50:47","8","8","5.0.14.0","2","13","trial1","naming","0","0","0","0","coffee cup","0","4465","1","White_Screen.jpg","3","33","Mug_Travel.jpg","3"
"080819","14:50:47","8","8","5.0.14.0","2","14","trial1","naming","0","0","0","0","water fountain","0","3827","1","White_Screen.jpg","3","127","WaterFountain.jpg","3"
"080819","14:50:47","8","8","5.0.14.0","2","15","trial1","naming","0","0","0","0","boom box","0","3494","1","White_Screen.jpg","3","158","Boombox.jpg","3"
"080819","14:50:47","8","8","5.0.14.0","2","16","trial1","naming","0","0","0","0","blocks","0","5421","1","White_Screen.jpg","4","35","Toy_BlocksLetter.jpg","4"
"080819","14:50:47","8","8","5.0.14.0","2","17","trial1","naming","0","0","0","0","ladle","0","4370","1","White_Screen.jpg","3","159","Ladle.jpg","3"
"080819","14:50:47","8","8","5.0.14.0","2","18","trial1","naming","0","0","0","0","bread","0","3102","1","White_Screen.jpg","3","138","Bread_Carrot.jpg","3"
"080819","14:50:47","8","8","5.0.14.0","2","19","trial1","naming","0","0","0","0","sign","0","3340","1","White_Screen.jpg","2","188","Sign_Caution.jpg","2"
"080819","14:50:47","8","8","5.0.14.0","2","20","trial1","naming","0","0","0","0","racetrack","0","4683","1","White_Screen.jpg","3","129","Toy_RaceTrack.jpg","3"
"080819","14:50:47","8","8","5.0.14.0","2","21","trial1","naming","0","0","0","0","chocolates","0","3947","1","White_Screen.jpg","3","58","Box_Chocolate.jpg","3"
"080819","14:50:47","8","8","5.0.14.0","2","22","trial1","naming","0","0","0","0","knife","0","4235","1","White_Screen.jpg","3","81","Knife_Kitchen.jpg","3"
"080819","14:50:47","8","8","5.0.14.0","2","23","trial1","naming","0","0","0","0","register","0","3804","1","White_Screen.jpg","5","103","AirVent.jpg","5"
"080819","14:50:47","8","8","5.0.14.0","2","24","trial1","naming","0","0","0","0","lawnmower","0","7174","1","White_Screen.jpg","3","41","LawnMower.jpg","3"
"080819","14:50:47","8","8","5.0.14.0","2","25","trial1","naming","0","0","0","0","flower","0","5224","1","White_Screen.jpg","3","144","Flower_Crane.jpg","3"
"080819","14:50:47","8","8","5.0.14.0","2","26","trial1","naming","0","0","0","0","furniture","0","8475","1","White_Screen.jpg","3","20","Altar.jpg","3"
"080819","14:50:47","8","8","5.0.14.0","2","27","trial1","naming","0","0","0","0","dish drainer","0","5295","1","White_Screen.jpg","3","5","DryRack_Dishes.jpg","3"
"080819","14:50:47","8","8","5.0.14.0","2","28","trial1","naming","0","0","0","0","helicopter","0","5633","1","White_Screen.jpg","3","109","Toy_Helicopter.jpg","3"
"080819","14:50:47","8","8","5.0.14.0","2","29","trial1","naming","0","0","0","0","horse","0","6435","1","White_Screen.jpg","3","53","Toy_RockingHorseBlack.jpg","3"
"080819","14:50:47","8","8","5.0.14.0","2","30","trial1","naming","0","0","0","0","rug","0","3721","1","White_Screen.jpg","4","22","Mat_Door.jpg","4"
"080819","14:50:47","8","8","5.0.14.0","2","31","trial1","naming","0","0","0","0","keyring","0","6515","1","White_Screen.jpg","3","36","KeyHook_Empty.jpg","3"
"080819","14:50:47","8","8","5.0.14.0","2","32","trial1","naming","0","0","0","0","truck","0","5285","1","White_Screen.jpg","3","17","PickupTruck.jpg","3"
"080819","14:50:47","8","8","5.0.14.0","2","33","trial1","naming","0","0","0","0","Enter Name","0","960","1","White_Screen.jpg","4","132","Toy_Babydoll.jpg","4"
"080819","14:50:47","8","8","5.0.14.0","2","34","trial1","naming","0","0","0","0","boot","0","3413","1","White_Screen.jpg","3","29","Shoes_WomenBoots.jpg","3"
"080819","14:50:47","8","8","5.0.14.0","2","35","trial1","naming","0","0","0","0","squash","0","3775","1","White_Screen.jpg","4","71","Squash_Pumpkin.jpg","4"
"080819","14:50:47","8","8","5.0.14.0","2","36","trial1","naming","0","0","0","0","tape","0","3083","1","White_Screen.jpg","4","146","Tape_Scotch.jpg","4"
"080819","14:50:47","8","8","5.0.14.0","2","37","trial1","naming","0","0","0","0","sculpture","0","5564","1","White_Screen.jpg","3","121","SculptureMetalFish.jpg","3"
"080819","14:50:47","8","8","5.0.14.0","2","38","trial1","naming","0","0","0","0","bottle","0","3505","1","White_Screen.jpg","3","30","Bottle_Plastic.jpg","3"
"080819","14:50:47","8","8","5.0.14.0","2","39","trial1","naming","0","0","0","0","gift","0","4707","1","White_Screen.jpg","3","79","Box_GiftTopView.jpg","3"
"080819","14:50:47","8","8","5.0.14.0","2","40","trial1","naming","0","0","0","0","perfume","0","6655","1","White_Screen.jpg","3","155","Cologne.jpg","3"
"080819","14:50:47","8","8","5.0.14.0","2","41","trial1","naming","0","0","0","0","timer","0","3688","1","White_Screen.jpg","3","15","TimerKitchen.jpg","3"
"080819","14:50:47","8","8","5.0.14.0","2","42","trial1","naming","0","0","0","0","fork","0","2775","1","White_Screen.jpg","3","37","Fork_Regular.jpg","3"
"080819","14:50:47","8","8","5.0.14.0","2","43","trial1","naming","0","0","0","0","watch gears","0","4848","1","White_Screen.jpg","3","172","Clock_Interior.jpg","3"
"080819","14:50:47","8","8","5.0.14.0","2","44","trial1","naming","0","0","0","0","head lamp","0","5121","1","White_Screen.jpg","4","90","FlashlightHeadBand.jpg","4"
"080819","14:50:47","8","8","5.0.14.0","2","45","trial1","naming","0","0","0","0","street light","0","5745","1","White_Screen.jpg","2","13","LampPost_WhiteOrnate.jpg","2"
"080819","14:50:47","8","8","5.0.14.0","2","46","trial1","naming","0","0","0","0","socks","0","3079","1","White_Screen.jpg","3","162","Socks_Winter.jpg","3"
"080819","14:50:47","8","8","5.0.14.0","2","47","trial1","naming","0","0","0","0","gloves","0","3456","1","White_Screen.jpg","3","63","Gloves_Winter.jpg","3"
"080819","14:50:47","8","8","5.0.14.0","2","48","trial1","naming","0","0","0","0","bolt","0","3568","1","White_Screen.jpg","3","48","Bolt_WithNut.jpg","3"
"080819","14:50:47","8","8","5.0.14.0","2","49","trial1","naming","0","0","0","0","conference table","0","4333","1","White_Screen.jpg","3","27","Table_Conference.jpg","3"
"080819","14:50:47","8","8","5.0.14.0","2","50","trial1","naming","0","0","0","0","caliper","0","4393","1","White_Screen.jpg","3","55","Ruler_Digital.jpg","3"
"080819","14:50:47","8","8","5.0.14.0","2","52","trial1","naming","0","0","0","0","ruler","0","4917","1","White_Screen.jpg","3","126","Ruler_Wooden.jpg","3"
"080819","14:50:47","8","8","5.0.14.0","2","53","trial1","naming","0","0","0","0","carrot","0","4319","1","White_Screen.jpg","3","95","Carrot.jpg","3"
"080819","14:50:47","8","8","5.0.14.0","2","54","trial1","naming","0","0","0","0","hairband","0","3725","1","White_Screen.jpg","2","24","HairBand.jpg","2"
"080819","14:50:47","8","8","5.0.14.0","2","55","trial1","naming","0","0","0","0","strainer","0","4654","1","White_Screen.jpg","3","116","Sieve_SideView.jpg","3"
"080819","14:50:47","8","8","5.0.14.0","2","56","trial1","naming","0","0","0","0","kangaroo","0","6907","1","White_Screen.jpg","3","44","Kangaroo.jpg","3"
"080819","14:50:47","8","8","5.0.14.0","2","57","trial1","naming","0","0","0","0","oyster","0","3638","1","White_Screen.jpg","4","108","Oyster.jpg","4"
"080819","14:50:47","8","8","5.0.14.0","2","58","trial1","naming","0","0","0","0","beanie","0","3881","1","White_Screen.jpg","4","190","Hat_Tuque.jpg","4"
"080819","14:50:47","8","8","5.0.14.0","2","59","trial1","naming","0","0","0","0","bus","0","5745","1","White_Screen.jpg","3","122","Bus_DoubleDecker.jpg","3"
"080819","14:50:47","8","8","5.0.14.0","2","60","trial1","naming","0","0","0","0","jet","0","4078","1","White_Screen.jpg","2","161","Jet.jpg","2"
"080819","14:50:47","8","8","5.0.14.0","2","61","trial1","naming","0","0","0","0","speaker","0","4087","1","White_Screen.jpg","3","176","Speakers_Theatre.jpg","3"
"080819","14:50:47","8","8","5.0.14.0","2","62","trial1","naming","0","0","0","0","slinky","0","4517","1","White_Screen.jpg","3","96","Toy_Slinky.jpg","3"
"080819","14:50:47","8","8","5.0.14.0","2","63","trial1","naming","0","0","0","0","mouthguard","0","6458","1","White_Screen.jpg","3","171","TeethMould.jpg","3"
"080819","14:50:47","8","8","5.0.14.0","2","64","trial1","naming","0","0","0","0","toy","0","7256","1","White_Screen.jpg","3","47","Toy_Shapesorter.jpg","3"
"080819","14:50:47","8","8","5.0.14.0","2","65","trial1","naming","0","0","0","0","goat","0","4097","1","White_Screen.jpg","3","26","RamAnimal.jpg","3"
"080819","14:50:47","8","8","5.0.14.0","2","66","trial1","naming","0","0","0","0","beer","0","2897","1","White_Screen.jpg","3","184","Glass_Beer.jpg","3"
"080819","14:50:47","8","8","5.0.14.0","2","67","trial1","naming","0","0","0","0","cantalope","0","5313","1","White_Screen.jpg","3","142","Cantaloupe.jpg","3"
"080819","14:50:47","8","8","5.0.14.0","2","68","trial1","naming","0","0","0","0","sledgehammer","0","8924","1","White_Screen.jpg","3","74","SledgeHammer.jpg","3"
"080819","14:50:47","8","8","5.0.14.0","2","69","trial1","naming","0","0","0","0","washi tape","0","4513","1","White_Screen.jpg","3","135","Tape_Washi.jpg","3"
"080819","14:50:47","8","8","5.0.14.0","2","70","trial1","naming","0","0","0","0","callbox","0","6990","1","White_Screen.jpg","10","62","ControlPanel.jpg","10"
"080819","14:50:47","8","8","5.0.14.0","2","71","trial1","naming","0","0","0","0","net","0","3336","1","White_Screen.jpg","3","43","NetButterfly.jpg","3"
"080819","14:50:47","8","8","5.0.14.0","2","72","trial1","naming","0","0","0","0","nail","0","3764","1","White_Screen.jpg","3","75","Nail.jpg","3"
"080819","14:50:47","8","8","5.0.14.0","2","73","trial1","naming","0","0","0","0","lychee","0","5261","1","White_Screen.jpg","3","42","Lychee.jpg","3"
"080819","14:50:47","8","8","5.0.14.0","2","74","trial1","naming","0","0","0","0","electrical box","0","8269","1","White_Screen.jpg","3","19","ElectricSwitchboard.jpg","3"
"080819","14:50:47","8","8","5.0.14.0","2","75","trial1","naming","0","0","0","0","temple","0","4257","1","White_Screen.jpg","3","124","BuildingChinese.jpg","3"
"080819","14:50:47","8","8","5.0.14.0","2","76","trial1","naming","0","0","0","0","coliseum","0","6101","1","White_Screen.jpg","3","181","Colosseum.jpg","3"
"080819","14:50:47","8","8","5.0.14.0","2","77","trial1","naming","0","0","0","0","pumpkin","0","10000","1","White_Screen.jpg","9","167","Pumpkin.jpg","9"
"080819","14:50:47","8","8","5.0.14.0","2","78","trial1","naming","0","0","0","0","Enter Name","0","137","1","White_Screen.jpg","3","130","Clock_Wall.jpg","3"
"080819","14:50:47","8","8","5.0.14.0","2","79","trial1","naming","0","0","0","0","comb","0","4695","1","White_Screen.jpg","5","98","Comb_1.jpg","5"
"080819","14:50:47","8","8","5.0.14.0","2","80","trial1","naming","0","0","0","0","harmonica","0","4282","1","White_Screen.jpg","3","46","Harmonica.jpg","3"
"080819","14:50:47","8","8","5.0.14.0","2","81","trial1","naming","0","0","0","0","metal detector","0","5360","1","White_Screen.jpg","5","165","MetalDetector.jpg","5"
"080819","14:50:47","8","8","5.0.14.0","2","82","trial1","naming","0","0","0","0","wire","0","3743","1","White_Screen.jpg","3","100","Wire_Soldering.jpg","3"
"080819","14:50:47","8","8","5.0.14.0","2","83","trial1","naming","0","0","0","0","donald duck","0","4774","1","White_Screen.jpg","3","134","DonaldDuck_Toy.jpg","3"
"080819","14:50:47","8","8","5.0.14.0","2","84","trial1","naming","0","0","0","0","headphones","0","4533","1","White_Screen.jpg","3","150","Headphones.jpg","3"
"080819","14:50:47","8","8","5.0.14.0","2","85","trial1","naming","0","0","0","0","cannon","0","3697","1","White_Screen.jpg","3","199","Cannon.jpg","3"
"080819","14:50:47","8","8","5.0.14.0","2","86","trial1","naming","0","0","0","0","bread","0","3412","1","White_Screen.jpg","4","39","Basket_Bread.jpg","4"
"080819","14:50:47","8","8","5.0.14.0","2","87","trial1","naming","0","0","0","0","speaker","0","5529","1","White_Screen.jpg","3","92","Hockey_Puck.jpg","3"
"080819","14:50:47","8","8","5.0.14.0","2","88","trial1","naming","0","0","0","0","camera","0","3740","1","White_Screen.jpg","3","114","Camera_Digital.jpg","3"
"080819","14:50:47","8","8","5.0.14.0","2","89","trial1","naming","0","0","0","0","licorice","0","4618","1","White_Screen.jpg","3","18","Licorice.jpg","3"
"080819","14:50:47","8","8","5.0.14.0","2","90","trial1","naming","0","0","0","0","juicebox","0","5432","1","White_Screen.jpg","3","186","JuiceBox.jpg","3"
"080819","14:50:47","8","8","5.0.14.0","2","91","trial1","naming","0","0","0","0","cassette tape","0","6864","1","White_Screen.jpg","4","152","Cassette_Audio.jpg","4"
"080819","14:50:47","8","8","5.0.14.0","2","92","trial1","naming","0","0","0","0","paper holder","0","4932","1","White_Screen.jpg","10","105","MemoPaperSpike.jpg","10"
"080819","14:50:47","8","8","5.0.14.0","2","93","trial1","naming","0","0","0","0","airplane","0","4342","1","White_Screen.jpg","3","133","Airplane_Commercial.jpg","3"
"080819","14:50:47","8","8","5.0.14.0","2","94","trial1","naming","0","0","0","0","camera","0","4621","1","White_Screen.jpg","3","123","Camera_Antique.jpg","3"
"080819","14:50:47","8","8","5.0.14.0","2","95","trial1","naming","0","0","0","0","envelope","0","5028","1","White_Screen.jpg","10","151","Envelope_Manila.jpg","10"
"080819","14:50:47","8","8","5.0.14.0","2","96","trial1","naming","0","0","0","0","yoga mat","0","6889","1","White_Screen.jpg","3","187","InflatableSleepingBag.jpg","3"
"080819","14:50:47","8","8","5.0.14.0","2","97","trial1","naming","0","0","0","0","pot","0","3472","1","White_Screen.jpg","4","140","Pot_BlackOld.jpg","4"
"080819","14:50:47","8","8","5.0.14.0","2","98","trial1","naming","0","0","0","0","apple","0","3310","1","White_Screen.jpg","3","89","Plum.jpg","3"
"080819","14:50:47","8","8","5.0.14.0","2","99","trial1","naming","0","0","0","0","pineapple","0","6829","1","White_Screen.jpg","5","84","Pineapple.jpg","5"
"080819","14:50:47","8","8","5.0.14.0","2","100","trial1","naming","0","0","0","0","siren","0","4825","1","White_Screen.jpg","3","117","Light_PostIsolated.jpg","3"
"080819","14:50:47","8","8","5.0.14.0","2","101","trial1","naming","0","0","0","0","brooch","0","4518","1","White_Screen.jpg","4","170","Brooch_Fish.jpg","4"
"080819","14:50:47","8","8","5.0.14.0","2","103","trial1","naming","0","0","0","0","b","0","10000","1","White_Screen.jpg","7","145","Toy_BlocksPlastic Colourful.jpg","7"
"080819","14:50:47","8","8","5.0.14.0","2","104","trial1","naming","0","0","0","0","hat","0","4085","1","White_Screen.jpg","11","87","Hat_Cowboy.jpg","11"
"080819","14:50:47","8","8","5.0.14.0","2","105","trial1","naming","0","0","0","0","bike","0","7872","1","White_Screen.jpg","7","91","Bicycle_Adult.jpg","7"
"080819","14:50:47","8","8","5.0.14.0","2","106","trial1","naming","0","0","0","0","","0","10000","1","White_Screen.jpg","8","189","Pot_TurkishCoffee.jpg","8"
"080819","14:50:47","8","8","5.0.14.0","2","107","trial1","naming","0","0","0","0","keyring","0","9055","1","White_Screen.jpg","8","193","Keychain_Metal.jpg","8"
"080819","14:50:47","8","8","5.0.14.0","2","108","trial1","naming","0","0","0","0","lightbulb","0","5152","1","White_Screen.jpg","9","73","LightBulb_White.jpg","9"
"080819","14:50:47","8","8","5.0.14.0","2","109","trial1","naming","0","0","0","0","tape","0","4611","1","White_Screen.jpg","10","183","Tape_Clear.jpg","10"
"080819","14:50:47","8","8","5.0.14.0","2","110","trial1","naming","0","0","0","0","herb","0","3722","1","White_Screen.jpg","7","3","HerbsInBag.jpg","7"
"080819","14:50:47","8","8","5.0.14.0","2","111","trial1","naming","0","0","0","0","matches","0","3627","1","White_Screen.jpg","9","86","MatchBook.jpg","9"
"080819","14:50:47","8","8","5.0.14.0","2","112","trial1","naming","0","0","0","0","cement mixer","0","5361","1","White_Screen.jpg","8","32","Mixer_Cement.jpg","8"
"080819","14:50:47","8","8","5.0.14.0","2","113","trial1","naming","0","0","0","0","bust","0","3863","1","White_Screen.jpg","8","78","Statue_Head.jpg","8"
"080819","14:50:47","8","8","5.0.14.0","2","114","trial1","naming","0","0","0","0","drum","0","4619","1","White_Screen.jpg","9","94","Drum_Conga.jpg","9"
"080819","14:50:47","8","8","5.0.14.0","2","115","trial1","naming","0","0","0","0","fireplace","0","4870","1","White_Screen.jpg","7","69","Fireplace_Outdoor.jpg","7"
"080819","14:50:47","8","8","5.0.14.0","2","116","trial1","naming","0","0","0","0","goose","0","5158","1","White_Screen.jpg","8","10","Bird_CanadianGoose.jpg","8"
"080819","14:50:47","8","8","5.0.14.0","2","117","trial1","naming","0","0","0","0","plunger","0","3954","1","White_Screen.jpg","9","194","Plunger.jpg","9"
"080819","14:50:47","8","8","5.0.14.0","2","118","trial1","naming","0","0","0","0","octopus","0","6836","1","White_Screen.jpg","12","97","Toy_Octopus.jpg","12"
"080819","14:50:47","8","8","5.0.14.0","2","119","trial1","naming","0","0","0","0","wheelbarrow","0","4038","1","White_Screen.jpg","9","148","Wheelbarrow_Green.jpg","9"
"080819","14:50:47","8","8","5.0.14.0","2","120","trial1","naming","0","0","0","0","shell","0","7138","1","White_Screen.jpg","9","31","Seashell_RoseMurex.jpg","9"
"080819","14:50:47","8","8","5.0.14.0","2","121","trial1","naming","0","0","0","0","metal detector","0","5644","1","White_Screen.jpg","9","16","ScannerShoplifting.jpg","9"
"080819","14:50:47","8","8","5.0.14.0","2","122","trial1","naming","0","0","0","0","bomb","0","4608","1","White_Screen.jpg","8","1","Bomb.jpg","8"
"080819","14:50:47","8","8","5.0.14.0","2","123","trial1","naming","0","0","0","0","candle","0","6928","1","White_Screen.jpg","8","70","Candle_ChristmasDecor.jpg","8"
"080819","14:50:47","8","8","5.0.14.0","2","124","trial1","naming","0","0","0","0","kite","0","5082","1","White_Screen.jpg","10","66","Kite_Rainbow.jpg","10"
"080819","14:50:47","8","8","5.0.14.0","2","125","trial1","naming","0","0","0","0","hammer","0","3405","1","White_Screen.jpg","7","76","Mallet.jpg","7"
"080819","14:50:47","8","8","5.0.14.0","2","126","trial1","naming","0","0","0","0","bread","0","3208","1","White_Screen.jpg","9","156","Bread_Roll.jpg","9"
"080819","14:50:47","8","8","5.0.14.0","2","127","trial1","naming","0","0","0","0","bird","0","4102","1","White_Screen.jpg","9","113","Puffin.jpg","9"
"080819","14:50:47","8","8","5.0.14.0","2","128","trial1","naming","0","0","0","0","sauce","0","3147","1","White_Screen.jpg","9","61","TomatoSauce.jpg","9"
"080819","14:50:47","8","8","5.0.14.0","2","129","trial1","naming","0","0","0","0","thermos","0","4988","1","White_Screen.jpg","9","115","Thermos_Decorated.jpg","9"
"080819","14:50:47","8","8","5.0.14.0","2","130","trial1","naming","0","0","0","0","doll","0","2933","1","White_Screen.jpg","8","40","Toy_DollHomeMade.jpg","8"
"080819","14:50:47","8","8","5.0.14.0","2","131","trial1","naming","0","0","0","0","dreidel","0","3678","1","White_Screen.jpg","7","8","Dreidel.jpg","7"
"080819","14:50:47","8","8","5.0.14.0","2","132","trial1","naming","0","0","0","0","case","0","6272","1","White_Screen.jpg","7","54","Container_RedPlastic.jpg","7"
"080819","14:50:47","8","8","5.0.14.0","2","133","trial1","naming","0","0","0","0","scooter","0","2607","1","White_Screen.jpg","7","169","Scooter.jpg","7"
"080819","14:50:47","8","8","5.0.14.0","2","134","trial1","naming","0","0","0","0","fan","0","2791","1","White_Screen.jpg","7","128","Fan_Blades.jpg","7"
"080819","14:50:47","8","8","5.0.14.0","2","135","trial1","naming","0","0","0","0","evergreen","0","5153","1","White_Screen.jpg","9","137","Shrub_Cedar.jpg","9"
"080819","14:50:47","8","8","5.0.14.0","2","136","trial1","naming","0","0","0","0","fire extinguiher","0","6742","1","White_Screen.jpg","10","166","FireExtinguisher.jpg","10"
"080819","14:50:47","8","8","5.0.14.0","2","137","trial1","naming","0","0","0","0","caribiner","0","7812","1","White_Screen.jpg","10","68","Carbiner_Ascender.jpg","10"
"080819","14:50:47","8","8","5.0.14.0","2","138","trial1","naming","0","0","0","0","bed","0","3054","1","White_Screen.jpg","8","157","Bed_ChildBirch.jpg","8"
"080819","14:50:47","8","8","5.0.14.0","2","139","trial1","naming","0","0","0","0","screwdriver","0","4719","1","White_Screen.jpg","9","196","ScrewDriver.jpg","9"
"080819","14:50:47","8","8","5.0.14.0","2","140","trial1","naming","0","0","0","0","helmnet","0","3935","1","White_Screen.jpg","8","125","Helmet_Football.jpg","8"
"080819","14:50:47","8","8","5.0.14.0","2","141","trial1","naming","0","0","0","0","canteen","0","3711","1","White_Screen.jpg","8","112","Lunchbox.jpg","8"
"080819","14:50:47","8","8","5.0.14.0","2","142","trial1","naming","0","0","0","0","brush","0","4575","1","White_Screen.jpg","7","104","Brush_Nail.jpg","7"
"080819","14:50:47","8","8","5.0.14.0","2","143","trial1","naming","0","0","0","0","knif","0","3958","1","White_Screen.jpg","9","154","Knife_Butter.jpg","9"
"080819","14:50:47","8","8","5.0.14.0","2","144","trial1","naming","0","0","0","0","hardhat","0","3990","1","White_Screen.jpg","8","59","Hat_Hard.jpg","8"
"080819","14:50:47","8","8","5.0.14.0","2","145","trial1","naming","0","0","0","0","Enter Name","0","6488","1","White_Screen.jpg","8","101","PedestalGreek.jpg","8"
"080819","14:50:47","8","8","5.0.14.0","2","146","trial1","naming","0","0","0","0","column","0","4439","1","White_Screen.jpg","9","198","ColumnMarble.jpg","9"
"080819","14:50:47","8","8","5.0.14.0","2","147","trial1","naming","0","0","0","0","griddle","0","4311","1","White_Screen.jpg","8","21","Grill_Electric.jpg","8"
"080819","14:50:47","8","8","5.0.14.0","2","148","trial1","naming","0","0","0","0","pants","0","3469","1","White_Screen.jpg","9","80","Pants.jpg","9"
"080819","14:50:47","8","8","5.0.14.0","2","149","trial1","naming","0","0","0","0","cleaver","0","3944","1","White_Screen.jpg","10","136","Cleaver_Meat.jpg","10"
"080819","14:50:47","8","8","5.0.14.0","2","150","trial1","naming","0","0","0","0","patio warmer","0","7853","1","White_Screen.jpg","8","56","Heater_Outdoor.jpg","8"
"080819","14:50:47","8","8","5.0.14.0","2","151","trial1","naming","0","0","0","0","Enter Name","0","5480","1","White_Screen.jpg","8","52","PirateFlag.jpg","8"
"080819","14:50:47","8","8","5.0.14.0","2","152","trial1","naming","0","0","0","0","cooler","0","3110","1","White_Screen.jpg","10","9","Cooler.jpg","10"
"080819","14:50:47","8","8","5.0.14.0","2","154","trial1","naming","0","0","0","0","dog","0","3743","1","White_Screen.jpg","8","147","Dog_Bulldog.jpg","8"
"080819","14:50:47","8","8","5.0.14.0","2","155","trial1","naming","0","0","0","0","sink","0","2804","1","White_Screen.jpg","10","141","Sink_Kitchen.jpg","10"
"080819","14:50:47","8","8","5.0.14.0","2","156","trial1","naming","0","0","0","0","apple","0","2880","1","White_Screen.jpg","7","177","Apple_RedAndGreen.jpg","7"
"080819","14:50:47","8","8","5.0.14.0","2","157","trial1","naming","0","0","0","0","chicken","0","4202","1","White_Screen.jpg","9","99","Chicken_Raw.jpg","9"
"080819","14:50:47","8","8","5.0.14.0","2","158","trial1","naming","0","0","0","0","dart board","0","4756","1","White_Screen.jpg","9","118","DartBoard.jpg","9"
"080819","14:50:47","8","8","5.0.14.0","2","159","trial1","naming","0","0","0","0","hula hoop","0","4755","1","White_Screen.jpg","7","85","Hulahoop.jpg","7"
"080819","14:50:47","8","8","5.0.14.0","2","160","trial1","naming","0","0","0","0","lettuce","0","4369","1","White_Screen.jpg","8","102","Lettuce_Romaine.jpg","8"
"080819","14:50:47","8","8","5.0.14.0","2","161","trial1","naming","0","0","0","0","car","0","3134","1","White_Screen.jpg","7","179","Car_Sedan.jpg","7"
"080819","14:50:47","8","8","5.0.14.0","2","162","trial1","naming","0","0","0","0","sign","0","2850","1","White_Screen.jpg","8","7","Sign_HumpBridgeAhead.jpg","8"
"080819","14:50:47","8","8","5.0.14.0","2","163","trial1","naming","0","0","0","0","Enter Name","0","5757","1","White_Screen.jpg","9","60","Stool_Foot.jpg","9"
"080819","14:50:47","8","8","5.0.14.0","2","164","trial1","naming","0","0","0","0","plane","0","4580","1","White_Screen.jpg","9","182","Airplane_Fighter.jpg","9"
"080819","14:50:47","8","8","5.0.14.0","2","165","trial1","naming","0","0","0","0","tool box","0","3604","1","White_Screen.jpg","10","131","Toolbox_BlackOpen.jpg","10"
"080819","14:50:47","8","8","5.0.14.0","2","166","trial1","naming","0","0","0","0","brush","0","3422","1","White_Screen.jpg","9","25","Brush_Shoe.jpg","9"
"080819","14:50:47","8","8","5.0.14.0","2","167","trial1","naming","0","0","0","0","guitar case","0","3917","1","White_Screen.jpg","8","175","Guitarcase.jpg","8"
"080819","14:50:47","8","8","5.0.14.0","2","168","trial1","naming","0","0","0","0","zucchini","0","3722","1","White_Screen.jpg","7","164","Zucchini.jpg","7"
"080819","14:50:47","8","8","5.0.14.0","2","169","trial1","naming","0","0","0","0","eiffel tower","0","8477","1","White_Screen.jpg","8","120","TowerEiffel.jpg","8"
"080819","14:50:47","8","8","5.0.14.0","2","170","trial1","naming","0","0","0","0","sign","0","2988","1","White_Screen.jpg","8","45","sign_traffic.jpg","8"
"080819","14:50:47","8","8","5.0.14.0","2","171","trial1","naming","0","0","0","0","Enter Name","0","2786","1","White_Screen.jpg","9","119","Cabasa.jpg","9"
"080819","14:50:47","8","8","5.0.14.0","2","172","trial1","naming","0","0","0","0","Enter Name","0","2005","1","White_Screen.jpg","8","168","JumpingJack.jpg","8"
"080819","14:50:47","8","8","5.0.14.0","2","173","trial1","naming","0","0","0","0","periodic table","0","5816","1","White_Screen.jpg","10","178","PeriodicTable.jpg","10"
"080819","14:50:47","8","8","5.0.14.0","2","174","trial1","naming","0","0","0","0","Enter Name","0","2957","1","White_Screen.jpg","8","93","DJMixer.jpg","8"
"080819","14:50:47","8","8","5.0.14.0","2","175","trial1","naming","0","0","0","0","humidifier","0","6689","1","White_Screen.jpg","7","82","Humidifier.jpg","7"
"080819","14:50:47","8","8","5.0.14.0","2","176","trial1","naming","0","0","0","0","gps","0","3706","1","White_Screen.jpg","7","23","GPS.jpg","7"
"080819","14:50:47","8","8","5.0.14.0","2","177","trial1","naming","0","0","0","0","Enter Name","0","1856","1","White_Screen.jpg","9","83","Balalaika.jpg","9"
"080819","14:50:47","8","8","5.0.14.0","2","178","trial1","naming","0","0","0","0","Enter Name","0","1591","1","White_Screen.jpg","9","51","MassageRoller.jpg","9"
"080819","14:50:47","8","8","5.0.14.0","2","179","trial1","naming","0","0","0","0","grate","0","3350","1","White_Screen.jpg","10","28","ManholeCover.jpg","10"
"080819","14:50:47","8","8","5.0.14.0","2","180","trial1","naming","0","0","0","0","cereal","0","6413","1","White_Screen.jpg","9","139","Bowl_Cereal.jpg","9"
"080819","14:50:47","8","8","5.0.14.0","2","181","trial1","naming","0","0","0","0","key ring","0","4315","1","White_Screen.jpg","8","153","KeyHook_Occupied.jpg","8"
"080819","14:50:47","8","8","5.0.14.0","2","182","trial1","naming","0","0","0","0","lemon","0","3411","1","White_Screen.jpg","8","191","Lemon.jpg","8"
"080819","14:50:47","8","8","5.0.14.0","2","183","trial1","naming","0","0","0","0","makeup","0","4136","1","White_Screen.jpg","8","174","Compact_Powder.jpg","8"
"080819","14:50:47","8","8","5.0.14.0","2","184","trial1","naming","0","0","0","0","Enter Name","0","1745","1","White_Screen.jpg","10","14","Case_WoodenOrnate.jpg","10"
"080819","14:50:47","8","8","5.0.14.0","2","185","trial1","naming","0","0","0","0","tin","0","5121","1","White_Screen.jpg","9","64","Canister_Tea.jpg","9"
"080819","14:50:47","8","8","5.0.14.0","2","186","trial1","naming","0","0","0","0","fortune cookie","0","5213","1","White_Screen.jpg","8","107","FortuneCookie.jpg","8"
"080819","14:50:47","8","8","5.0.14.0","2","187","trial1","naming","0","0","0","0","geode","0","2893","1","White_Screen.jpg","7","6","Rock_Agate.jpg","7"
"080819","14:50:47","8","8","5.0.14.0","2","188","trial1","naming","0","0","0","0","hand","0","2984","1","White_Screen.jpg","8","50","Hand.jpg","8"
"080819","14:50:47","8","8","5.0.14.0","2","189","trial1","naming","0","0","0","0","dolphin","0","3742","1","White_Screen.jpg","8","163","Dolphine.jpg","8"
"080819","14:50:47","8","8","5.0.14.0","2","190","trial1","naming","0","0","0","0","spider","0","2866","1","White_Screen.jpg","23","106","Spider.jpg","23"
"080819","14:50:47","8","8","5.0.14.0","2","191","trial1","naming","0","0","0","0","flask","0","3434","1","White_Screen.jpg","8","49","Flask_Metal.jpg","8"
"080819","14:50:47","8","8","5.0.14.0","2","192","trial1","naming","0","0","0","0","noose","0","3524","1","White_Screen.jpg","9","180","Noose.jpg","9"
"080819","14:50:47","8","8","5.0.14.0","2","193","trial1","naming","0","0","0","0","milk","0","3785","1","White_Screen.jpg","9","192","MilkPitcher.jpg","9"
"080819","14:50:47","8","8","5.0.14.0","2","194","trial1","naming","0","0","0","0","Enter Name","0","4976","1","White_Screen.jpg","7","4","SoundMixer_White.jpg","7"
"080819","14:50:47","8","8","5.0.14.0","2","195","trial1","naming","0","0","0","0","boot","0","4715","1","White_Screen.jpg","7","195","Boots_KneeHigh.jpg","7"
"080819","14:50:47","8","8","5.0.14.0","2","196","trial1","naming","0","0","0","0","chair","0","2789","1","White_Screen.jpg","7","111","Chair_PlasticGreen.jpg","7"
"080819","14:50:47","8","8","5.0.14.0","2","197","trial1","naming","0","0","0","0","shark","0","2962","1","White_Screen.jpg","9","160","Toy_Shark.jpg","9"
"080819","14:50:47","8","8","5.0.14.0","2","198","trial1","naming","0","0","0","0","bowl","0","3144","1","White_Screen.jpg","7","67","Bowl_Glass.jpg","7"
"080819","14:50:47","8","8","5.0.14.0","2","199","trial1","naming","0","0","0","0","key chain","0","3562","1","White_Screen.jpg","7","11","Keychain_Leather.jpg","7"
"080819","14:50:47","8","8","5.0.14.0","2","200","trial1","naming","0","0","0","0","dinner","0","3530","1","White_Screen.jpg","8","88","Chicken_Dinner.jpg","8"
"080819","14:50:47","8","8","5.0.14.0","2","201","trial1","naming","0","0","0","0","drill","0","4065","1","White_Screen.jpg","8","200","Toy_Drill.jpg","8"
"080819","14:50:47","8","8","5.0.14.0","2","202","trial1","naming","0","0","0","0","helmet","0","4130","1","White_Screen.jpg","7","57","Mask_Viking.jpg","7"
"080819","14:50:47","8","8","5.0.14.0","2","203","trial1","naming","0","0","0","0","bridge","0","3060","1","White_Screen.jpg","8","185","BridgeWooden.jpg","8"
"080819","14:50:47","8","8","5.0.14.0","3","1","demographics_block","gender","0","0","0","0","male","1","11266","0","0","0","0","0","0"
"080819","14:50:47","8","8","5.0.14.0","3","1","demographics_block","age","0","0","0","0","41","1","11266","0","0","0","0","0","0"
"080819","14:50:47","8","8","5.0.14.0","3","1","demographics_block","education","0","0","0","0","16","1","11266","0","0","0","0","0","0"
"080819","14:50:47","8","8","5.0.14.0","3","2","demographics_block","left_right_handed","0","0","0","0","Right","1","6023","0","0","0","0","0","0"
"080819","14:50:47","8","8","5.0.14.0","3","2","demographics_block","raceoption1","0","0","0","0","0","1","6023","0","0","0","0","0","0"
"080819","14:50:47","8","8","5.0.14.0","3","2","demographics_block","raceoption2","0","0","0","0","","1","6023","0","0","0","0","0","0"
"080819","14:50:47","8","8","5.0.14.0","3","2","demographics_block","raceoption3","0","0","0","0","","1","6023","0","0","0","0","0","0"
"080819","14:50:47","8","8","5.0.14.0","3","2","demographics_block","raceoption4","0","0","0","0","","1","6023","0","0","0","0","0","0"
"080819","14:50:47","8","8","5.0.14.0","3","2","demographics_block","raceoption5","0","0","0","0","","1","6023","0","0","0","0","0","0"
"080819","14:50:47","8","8","5.0.14.0","3","2","demographics_block","raceoption6","0","0","0","0","","1","6023","0","0","0","0","0","0"
"080819","14:50:47","8","8","5.0.14.0","3","2","demographics_block","raceoption7","0","0","0","0","","1","6023","0","0","0","0","0","0"
"080819","14:50:47","8","8","5.0.14.0","3","2","demographics_block","raceoption8","0","0","0","0","","1","6023","0","0","0","0","0","0"
"080819","14:50:47","8","8","5.0.14.0","3","2","demographics_block","raceoption9","0","0","0","0","","1","6023","0","0","0","0","0","0"
"080819","14:50:47","8","8","5.0.14.0","3","2","demographics_block","raceother","0","0","0","0","","1","6023","0","0","0","0","0","0"
"080819","14:50:47","8","8","5.0.14.0","3","2","demographics_block","raceother","0","0","0","0","","1","6023","0","0","0","0","0","0"
"080819","14:50:47","8","8","5.0.14.0","3","2","demographics_block","english_language","0","0","0","0","Yes","1","6023","0","0","0","0","0","0"
"080819","14:50:47","8","8","5.0.14.0","3","2","demographics_block","english_languageother","0","0","0","0","","1","6023","0","0","0","0","0","0"
"080819","14:50:47","8","8","5.0.14.0","3","3","demographics_block","eyesight","0","0","0","0","Yes","1","4891","0","0","0","0","0","0"
"080819","14:50:47","8","8","5.0.14.0","3","3","demographics_block","colorblind","0","0","0","0","No","1","4891","0","0","0","0","0","0"
"080819","14:50:47","8","8","5.0.14.0","4","1","worker_id_block","worker_id_textbox","0","0","0","0","ARI1EMAHUA9PO","1","4080","0","0","0","0","0","0"
"080819","13:47:51","6","6","5.0.14.0","2","1","trial1","naming","0","0","0","0","Ehnter Name","0","10000","1","White_Screen.jpg","184","87","Hat_Cowboy.jpg","184"
"080819","13:47:51","6","6","5.0.14.0","2","2","trial1","naming","0","0","0","0","hoola hoop","0","6336","1","White_Screen.jpg","8","85","Hulahoop.jpg","8"
"080819","13:47:51","6","6","5.0.14.0","2","3","trial1","naming","0","0","0","0","box","0","6756","1","White_Screen.jpg","9","64","Canister_Tea.jpg","9"
"080819","13:47:51","6","6","5.0.14.0","2","4","trial1","naming","0","0","0","0","cereal","0","4226","1","White_Screen.jpg","7","139","Bowl_Cereal.jpg","7"
"080819","13:47:51","6","6","5.0.14.0","2","5","trial1","naming","0","0","0","0","beer","0","3463","1","White_Screen.jpg","5","184","Glass_Beer.jpg","5"
"080819","13:47:51","6","6","5.0.14.0","2","6","trial1","naming","0","0","0","0","sign","0","5022","1","White_Screen.jpg","7","7","Sign_HumpBridgeAhead.jpg","7"
"080819","13:47:51","6","6","5.0.14.0","2","7","trial1","naming","0","0","0","0","fire extinguisher ","0","7276","1","White_Screen.jpg","8","166","FireExtinguisher.jpg","8"
"080819","13:47:51","6","6","5.0.14.0","2","8","trial1","naming","0","0","0","0","plunger","0","4403","1","White_Screen.jpg","8","194","Plunger.jpg","8"
"080819","13:47:51","6","6","5.0.14.0","2","9","trial1","naming","0","0","0","0","wheel barrel","0","8045","1","White_Screen.jpg","8","148","Wheelbarrow_Green.jpg","8"
"080819","13:47:51","6","6","5.0.14.0","2","10","trial1","naming","0","0","0","0","tables","0","4251","1","White_Screen.jpg","7","20","Altar.jpg","7"
"080819","13:47:51","6","6","5.0.14.0","2","11","trial1","naming","0","0","0","0","dog","0","3906","1","White_Screen.jpg","5","147","Dog_Bulldog.jpg","5"
"080819","13:47:51","6","6","5.0.14.0","2","12","trial1","naming","0","0","0","0","thermos","0","4902","1","White_Screen.jpg","8","115","Thermos_Decorated.jpg","8"
"080819","13:47:51","6","6","5.0.14.0","2","13","trial1","naming","0","0","0","0","sign","0","8548","1","White_Screen.jpg","5","45","sign_traffic.jpg","5"
"080819","13:47:51","6","6","5.0.14.0","2","14","trial1","naming","0","0","0","0","footbal helmet","0","6808","1","White_Screen.jpg","5","125","Helmet_Football.jpg","5"
"080819","13:47:51","6","6","5.0.14.0","2","15","trial1","naming","0","0","0","0","collisuem ","0","6974","1","White_Screen.jpg","8","181","Colosseum.jpg","8"
"080819","13:47:51","6","6","5.0.14.0","2","16","trial1","naming","0","0","0","0","ambulance","0","4778","1","White_Screen.jpg","6","65","Ambulance.jpg","6"
"080819","13:47:51","6","6","5.0.14.0","2","17","trial1","naming","0","0","0","0","fish pin","0","5309","1","White_Screen.jpg","5","170","Brooch_Fish.jpg","5"
"080819","13:47:51","6","6","5.0.14.0","2","18","trial1","naming","0","0","0","0","gloves","0","4241","1","White_Screen.jpg","5","63","Gloves_Winter.jpg","5"
"080819","13:47:51","6","6","5.0.14.0","2","19","trial1","naming","0","0","0","0","boots","0","5292","1","White_Screen.jpg","9","143","Shoes_Snowboarding.jpg","9"
"080819","13:47:51","6","6","5.0.14.0","2","20","trial1","naming","0","0","0","0","headband","0","4761","1","White_Screen.jpg","8","24","HairBand.jpg","8"
"080819","13:47:51","6","6","5.0.14.0","2","21","trial1","naming","0","0","0","0","scooter","0","4294","1","White_Screen.jpg","5","169","Scooter.jpg","5"
"080819","13:47:51","6","6","5.0.14.0","2","22","trial1","naming","0","0","0","0","tow","0","10000","1","White_Screen.jpg","8","198","ColumnMarble.jpg","8"
"080819","13:47:51","6","6","5.0.14.0","2","23","trial1","naming","0","0","0","0","romaine lettuce","0","8709","1","White_Screen.jpg","8","102","Lettuce_Romaine.jpg","8"
"080819","13:47:51","6","6","5.0.14.0","2","24","trial1","naming","0","0","0","0","Enter Name","0","10000","1","White_Screen.jpg","9","168","JumpingJack.jpg","9"
"080819","13:47:51","6","6","5.0.14.0","2","25","trial1","naming","0","0","0","0","strainer","0","4646","1","White_Screen.jpg","8","116","Sieve_SideView.jpg","8"
"080819","13:47:51","6","6","5.0.14.0","2","26","trial1","naming","0","0","0","0","timer","0","2750","1","White_Screen.jpg","9","15","TimerKitchen.jpg","9"
"080819","13:47:51","6","6","5.0.14.0","2","27","trial1","naming","0","0","0","0","cannon","0","4495","1","White_Screen.jpg","8","199","Cannon.jpg","8"
"080819","13:47:51","6","6","5.0.14.0","2","28","trial1","naming","0","0","0","0","fighter jet","0","6635","1","White_Screen.jpg","5","161","Jet.jpg","5"
"080819","13:47:51","6","6","5.0.14.0","2","29","trial1","naming","0","0","0","0","speaker","0","4843","1","White_Screen.jpg","6","176","Speakers_Theatre.jpg","6"
"080819","13:47:51","6","6","5.0.14.0","2","30","trial1","naming","0","0","0","0","dolphin","0","4570","1","White_Screen.jpg","5","163","Dolphine.jpg","5"
"080819","13:47:51","6","6","5.0.14.0","2","31","trial1","naming","0","0","0","0","knife","0","4012","1","White_Screen.jpg","5","81","Knife_Kitchen.jpg","5"
"080819","13:47:51","6","6","5.0.14.0","2","32","trial1","naming","0","0","0","0","ruler","0","3783","1","White_Screen.jpg","10","126","Ruler_Wooden.jpg","10"
"080819","13:47:51","6","6","5.0.14.0","2","33","trial1","naming","0","0","0","0","lamp post","0","5837","1","White_Screen.jpg","5","13","LampPost_WhiteOrnate.jpg","5"
"080819","13:47:51","6","6","5.0.14.0","2","34","trial1","naming","0","0","0","0","audio controls","0","7252","1","White_Screen.jpg","8","4","SoundMixer_White.jpg","8"
"080819","13:47:51","6","6","5.0.14.0","2","35","trial1","naming","0","0","0","0","caution sign","0","6379","1","White_Screen.jpg","7","188","Sign_Caution.jpg","7"
"080819","13:47:51","6","6","5.0.14.0","2","36","trial1","naming","0","0","0","0","rock","0","5912","1","White_Screen.jpg","5","6","Rock_Agate.jpg","5"
"080819","13:47:51","6","6","5.0.14.0","2","37","trial1","naming","0","0","0","0","knit hat","0","4698","1","White_Screen.jpg","5","190","Hat_Tuque.jpg","5"
"080819","13:47:51","6","6","5.0.14.0","2","38","trial1","naming","0","0","0","0","barbells","0","10000","1","White_Screen.jpg","5","51","MassageRoller.jpg","5"
"080819","13:47:51","6","6","5.0.14.0","2","39","trial1","naming","0","0","0","0","bomb","0","4602","1","White_Screen.jpg","7","1","Bomb.jpg","7"
"080819","13:47:51","6","6","5.0.14.0","2","40","trial1","naming","0","0","0","0","pumpkin","0","4553","1","White_Screen.jpg","6","167","Pumpkin.jpg","6"
"080819","13:47:51","6","6","5.0.14.0","2","41","trial1","naming","0","0","0","0","coat rack","0","5613","1","White_Screen.jpg","8","36","KeyHook_Empty.jpg","8"
"080819","13:47:51","6","6","5.0.14.0","2","42","trial1","naming","0","0","0","0","recorder","0","4979","1","White_Screen.jpg","7","149","RecorderInstrument.jpg","7"
"080819","13:47:51","6","6","5.0.14.0","2","43","trial1","naming","0","0","0","0","mason jar","0","6471","1","White_Screen.jpg","5","61","TomatoSauce.jpg","5"
"080819","13:47:51","6","6","5.0.14.0","2","44","trial1","naming","0","0","0","0","headphones","0","5196","1","White_Screen.jpg","7","150","Headphones.jpg","7"
"080819","13:47:51","6","6","5.0.14.0","2","45","trial1","naming","0","0","0","0","humidifier ","0","7183","1","White_Screen.jpg","5","82","Humidifier.jpg","5"
"080819","13:47:51","6","6","5.0.14.0","2","46","trial1","naming","0","0","0","0","grinder","0","5721","1","White_Screen.jpg","5","38","ProcessorFood_Old.jpg","5"
"080819","13:47:51","6","6","5.0.14.0","2","47","trial1","naming","0","0","0","0","baby pengun","0","8309","1","White_Screen.jpg","8","113","Puffin.jpg","8"
"080819","13:47:51","6","6","5.0.14.0","2","48","trial1","naming","0","0","0","0","meat tenderizor ","0","7075","1","White_Screen.jpg","5","119","Cabasa.jpg","5"
"080819","13:47:51","6","6","5.0.14.0","2","49","trial1","naming","0","0","0","0","rocking horse","0","4793","1","White_Screen.jpg","5","53","Toy_RockingHorseBlack.jpg","5"
"080819","13:47:51","6","6","5.0.14.0","2","50","trial1","naming","0","0","0","0","noose","0","3521","1","White_Screen.jpg","5","180","Noose.jpg","5"
"080819","13:47:51","6","6","5.0.14.0","2","52","trial1","naming","0","0","0","0","guitar case","0","7165","1","White_Screen.jpg","5","175","Guitarcase.jpg","5"
"080819","13:47:51","6","6","5.0.14.0","2","53","trial1","naming","0","0","0","0","dart board","0","3902","1","White_Screen.jpg","5","118","DartBoard.jpg","5"
"080819","13:47:51","6","6","5.0.14.0","2","54","trial1","naming","0","0","0","0","meeting table","0","7036","1","White_Screen.jpg","5","27","Table_Conference.jpg","5"
"080819","13:47:51","6","6","5.0.14.0","2","55","trial1","naming","0","0","0","0","shark toy","0","6373","1","White_Screen.jpg","7","160","Toy_Shark.jpg","7"
"080819","13:47:51","6","6","5.0.14.0","2","56","trial1","naming","0","0","0","0","box of chocolates","0","7206","1","White_Screen.jpg","5","58","Box_Chocolate.jpg","5"
"080819","13:47:51","6","6","5.0.14.0","2","57","trial1","naming","0","0","0","0","harmonica","0","6102","1","White_Screen.jpg","6","46","Harmonica.jpg","6"
"080819","13:47:51","6","6","5.0.14.0","2","58","trial1","naming","0","0","0","0","milk","0","5948","1","White_Screen.jpg","8","192","MilkPitcher.jpg","8"
"080819","13:47:51","6","6","5.0.14.0","2","59","trial1","naming","0","0","0","0","Enter Name","0","10000","1","White_Screen.jpg","8","55","Ruler_Digital.jpg","8"
"080819","13:47:51","6","6","5.0.14.0","2","60","trial1","naming","0","0","0","0","fan blade","0","5338","1","White_Screen.jpg","6","128","Fan_Blades.jpg","6"
"080819","13:47:51","6","6","5.0.14.0","2","61","trial1","naming","0","0","0","0","sewer","0","3430","1","White_Screen.jpg","8","28","ManholeCover.jpg","8"
"080819","13:47:51","6","6","5.0.14.0","2","62","trial1","naming","0","0","0","0","nail","0","3297","1","White_Screen.jpg","7","75","Nail.jpg","7"
"080819","13:47:51","6","6","5.0.14.0","2","63","trial1","naming","0","0","0","0","fortune cookie","0","5825","1","White_Screen.jpg","5","107","FortuneCookie.jpg","5"
"080819","13:47:51","6","6","5.0.14.0","2","64","trial1","naming","0","0","0","0","griddle","0","7433","1","White_Screen.jpg","8","21","Grill_Electric.jpg","8"
"080819","13:47:51","6","6","5.0.14.0","2","65","trial1","naming","0","0","0","0","plant","0","5833","1","White_Screen.jpg","5","144","Flower_Crane.jpg","5"
"080819","13:47:51","6","6","5.0.14.0","2","66","trial1","naming","0","0","0","0","shape sorter","0","5248","1","White_Screen.jpg","7","47","Toy_Shapesorter.jpg","7"
"080819","13:47:51","6","6","5.0.14.0","2","67","trial1","naming","0","0","0","0","packing tape","0","5857","1","White_Screen.jpg","6","146","Tape_Scotch.jpg","6"
"080819","13:47:51","6","6","5.0.14.0","2","68","trial1","naming","0","0","0","0","sledge hammer","0","6503","1","White_Screen.jpg","9","74","SledgeHammer.jpg","9"
"080819","13:47:51","6","6","5.0.14.0","2","69","trial1","naming","0","0","0","0","soup ladle","0","5053","1","White_Screen.jpg","8","159","Ladle.jpg","8"
"080819","13:47:51","6","6","5.0.14.0","2","70","trial1","naming","0","0","0","0","fish art","0","8052","1","White_Screen.jpg","5","121","SculptureMetalFish.jpg","5"
"080819","13:47:51","6","6","5.0.14.0","2","71","trial1","naming","0","0","0","0","pedestal","0","4860","1","White_Screen.jpg","5","101","PedestalGreek.jpg","5"
"080819","13:47:51","6","6","5.0.14.0","2","72","trial1","naming","0","0","0","0","perfume bottle","0","5507","1","White_Screen.jpg","8","155","Cologne.jpg","8"
"080819","13:47:51","6","6","5.0.14.0","2","73","trial1","naming","0","0","0","0","coffee ","0","10000","1","White_Screen.jpg","8","33","Mug_Travel.jpg","8"
"080819","13:47:51","6","6","5.0.14.0","2","74","trial1","naming","0","0","0","0","lawn mower","0","5688","1","White_Screen.jpg","7","41","LawnMower.jpg","7"
"080819","13:47:51","6","6","5.0.14.0","2","75","trial1","naming","0","0","0","0","zuccini ","0","4904","1","White_Screen.jpg","8","164","Zucchini.jpg","8"
"080819","13:47:51","6","6","5.0.14.0","2","76","trial1","naming","0","0","0","0","apple","0","3899","1","White_Screen.jpg","8","177","Apple_RedAndGreen.jpg","8"
"080819","13:47:51","6","6","5.0.14.0","2","77","trial1","naming","0","0","0","0","palm","0","4088","1","White_Screen.jpg","6","50","Hand.jpg","6"
"080819","13:47:51","6","6","5.0.14.0","2","78","trial1","naming","0","0","0","0","philips screwdriver","0","7821","1","White_Screen.jpg","8","196","ScrewDriver.jpg","8"
"080819","13:47:51","6","6","5.0.14.0","2","79","trial1","naming","0","0","0","0","ladies boots","0","4775","1","White_Screen.jpg","5","29","Shoes_WomenBoots.jpg","5"
"080819","13:47:51","6","6","5.0.14.0","2","80","trial1","naming","0","0","0","0","candle display","0","7439","1","White_Screen.jpg","8","70","Candle_ChristmasDecor.jpg","8"
"080819","13:47:51","6","6","5.0.14.0","2","81","trial1","naming","0","0","0","0","roll basket","0","7687","1","White_Screen.jpg","8","39","Basket_Bread.jpg","8"
"080819","13:47:51","6","6","5.0.14.0","2","82","trial1","naming","0","0","0","0","baby toy","0","7263","1","White_Screen.jpg","7","77","Toy_StackingRing.jpg","7"
"080819","13:47:51","6","6","5.0.14.0","2","83","trial1","naming","0","0","0","0","helicopter toy","0","6580","1","White_Screen.jpg","7","109","Toy_Helicopter.jpg","7"
"080819","13:47:51","6","6","5.0.14.0","2","84","trial1","naming","0","0","0","0","pirate flag","0","6008","1","White_Screen.jpg","5","52","PirateFlag.jpg","5"
"080819","13:47:51","6","6","5.0.14.0","2","85","trial1","naming","0","0","0","0","clock","0","3920","1","White_Screen.jpg","7","130","Clock_Wall.jpg","7"
"080819","13:47:51","6","6","5.0.14.0","2","86","trial1","naming","0","0","0","0","red apple","0","5391","1","White_Screen.jpg","10","89","Plum.jpg","10"
"080819","13:47:51","6","6","5.0.14.0","2","87","trial1","naming","0","0","0","0","box","0","6220","1","White_Screen.jpg","7","54","Container_RedPlastic.jpg","7"
"080819","13:47:51","6","6","5.0.14.0","2","88","trial1","naming","0","0","0","0","controls","0","6555","1","White_Screen.jpg","8","62","ControlPanel.jpg","8"
"080819","13:47:51","6","6","5.0.14.0","2","89","trial1","naming","0","0","0","0","gravy dispenser","0","10000","1","White_Screen.jpg","8","189","Pot_TurkishCoffee.jpg","8"
"080819","13:47:51","6","6","5.0.14.0","2","90","trial1","naming","0","0","0","0","light for head","0","10000","1","White_Screen.jpg","8","90","FlashlightHeadBand.jpg","8"
"080819","13:47:51","6","6","5.0.14.0","2","91","trial1","naming","0","0","0","0","Enter Name","0","195","1","White_Screen.jpg","8","44","Kangaroo.jpg","8"
"080819","13:47:51","6","6","5.0.14.0","2","92","trial1","naming","0","0","0","0","GPS","0","7424","1","White_Screen.jpg","9","23","GPS.jpg","9"
"080819","13:47:51","6","6","5.0.14.0","2","93","trial1","naming","0","0","0","0","raw whole chicken","0","6890","1","White_Screen.jpg","5","99","Chicken_Raw.jpg","5"
"080819","13:47:51","6","6","5.0.14.0","2","94","trial1","naming","0","0","0","0","octopus toy","0","6305","1","White_Screen.jpg","7","97","Toy_Octopus.jpg","7"
"080819","13:47:51","6","6","5.0.14.0","2","95","trial1","naming","0","0","0","0","2 door car","0","6760","1","White_Screen.jpg","8","179","Car_Sedan.jpg","8"
"080819","13:47:51","6","6","5.0.14.0","2","96","trial1","naming","0","0","0","0","digital camera","0","7763","1","White_Screen.jpg","5","114","Camera_Digital.jpg","5"
"080819","13:47:51","6","6","5.0.14.0","2","97","trial1","naming","0","0","0","0","scrub brush","0","6077","1","White_Screen.jpg","5","25","Brush_Shoe.jpg","5"
"080819","13:47:51","6","6","5.0.14.0","2","98","trial1","naming","0","0","0","0","vikings horns","0","7639","1","White_Screen.jpg","10","57","Mask_Viking.jpg","10"
"080819","13:47:51","6","6","5.0.14.0","2","99","trial1","naming","0","0","0","0","building blocks","0","5934","1","White_Screen.jpg","10","35","Toy_BlocksLetter.jpg","10"
"080819","13:47:51","6","6","5.0.14.0","2","100","trial1","naming","0","0","0","0","cement m","0","10000","1","White_Screen.jpg","8","32","Mixer_Cement.jpg","8"
"080819","13:47:51","6","6","5.0.14.0","2","101","trial1","naming","0","0","0","0","manilla envelope","0","9630","1","White_Screen.jpg","7","151","Envelope_Manila.jpg","7"
"080819","13:47:51","6","6","5.0.14.0","2","103","trial1","naming","0","0","0","0","bridge","0","5270","1","White_Screen.jpg","8","185","BridgeWooden.jpg","8"
"080819","13:47:51","6","6","5.0.14.0","2","104","trial1","naming","0","0","0","0","vent","0","4241","1","White_Screen.jpg","9","103","AirVent.jpg","9"
"080819","13:47:51","6","6","5.0.14.0","2","105","trial1","naming","0","0","0","0","boombox","0","4777","1","White_Screen.jpg","7","158","Boombox.jpg","7"
"080819","13:47:51","6","6","5.0.14.0","2","106","trial1","naming","0","0","0","0","butterfly ","0","10000","1","White_Screen.jpg","5","43","NetButterfly.jpg","5"
"080819","13:47:51","6","6","5.0.14.0","2","107","trial1","naming","0","0","0","0","bust","0","4867","1","White_Screen.jpg","5","78","Statue_Head.jpg","5"
"080819","13:47:51","6","6","5.0.14.0","2","108","trial1","naming","0","0","0","0","firepit","0","9909","1","White_Screen.jpg","7","69","Fireplace_Outdoor.jpg","7"
"080819","13:47:51","6","6","5.0.14.0","2","109","trial1","naming","0","0","0","0","vintage camera","0","7168","1","White_Screen.jpg","7","123","Camera_Antique.jpg","7"
"080819","13:47:51","6","6","5.0.14.0","2","110","trial1","naming","0","0","0","0","cantelope","0","5599","1","White_Screen.jpg","8","142","Cantaloupe.jpg","8"
"080819","13:47:51","6","6","5.0.14.0","2","111","trial1","naming","0","0","0","0","jar and spoon","0","10000","1","White_Screen.jpg","9","112","Lunchbox.jpg","9"
"080819","13:47:51","6","6","5.0.14.0","2","112","trial1","naming","0","0","0","0","reel of wire","0","9326","1","White_Screen.jpg","10","100","Wire_Soldering.jpg","10"
"080819","13:47:51","6","6","5.0.14.0","2","113","trial1","naming","0","0","0","0","carrots","0","3448","1","White_Screen.jpg","7","95","Carrot.jpg","7"
"080819","13:47:51","6","6","5.0.14.0","2","114","trial1","naming","0","0","0","0","tour bus","0","6962","1","White_Screen.jpg","9","122","Bus_DoubleDecker.jpg","9"
"080819","13:47:51","6","6","5.0.14.0","2","115","trial1","naming","0","0","0","0","lantern","0","7248","1","White_Screen.jpg","5","117","Light_PostIsolated.jpg","5"
"080819","13:47:51","6","6","5.0.14.0","2","116","trial1","naming","0","0","0","0","toy drill","0","5400","1","White_Screen.jpg","5","200","Toy_Drill.jpg","5"
"080819","13:47:51","6","6","5.0.14.0","2","117","trial1","naming","0","0","0","0","water bottle","0","5289","1","White_Screen.jpg","5","30","Bottle_Plastic.jpg","5"
"080819","13:47:51","6","6","5.0.14.0","2","118","trial1","naming","0","0","0","0","black liccorice","0","6390","1","White_Screen.jpg","8","18","Licorice.jpg","8"
"080819","13:47:51","6","6","5.0.14.0","2","119","trial1","naming","0","0","0","0","gym shoe","0","6552","1","White_Screen.jpg","5","197","Shoe_Sneaker.jpg","5"
"080819","13:47:51","6","6","5.0.14.0","2","120","trial1","naming","0","0","0","0","lawn chair","0","6684","1","White_Screen.jpg","5","111","Chair_PlasticGreen.jpg","5"
"080819","13:47:51","6","6","5.0.14.0","2","121","trial1","naming","0","0","0","0","baby doll","0","4361","1","White_Screen.jpg","6","132","Toy_Babydoll.jpg","6"
"080819","13:47:51","6","6","5.0.14.0","2","122","trial1","naming","0","0","0","0","gourd","0","4564","1","White_Screen.jpg","5","71","Squash_Pumpkin.jpg","5"
"080819","13:47:51","6","6","5.0.14.0","2","123","trial1","naming","0","0","0","0","ten speed bike","0","7270","1","White_Screen.jpg","6","91","Bicycle_Adult.jpg","6"
"080819","13:47:51","6","6","5.0.14.0","2","124","trial1","naming","0","0","0","0","womens high boots","0","5752","1","White_Screen.jpg","10","195","Boots_KneeHigh.jpg","10"
"080819","13:47:51","6","6","5.0.14.0","2","125","trial1","naming","0","0","0","0","mardi gras mask","0","6055","1","White_Screen.jpg","8","173","Mask_Masquerade.jpg","8"
"080819","13:47:51","6","6","5.0.14.0","2","126","trial1","naming","0","0","0","0","metal detector","0","6190","1","White_Screen.jpg","8","165","MetalDetector.jpg","8"
"080819","13:47:51","6","6","5.0.14.0","2","127","trial1","naming","0","0","0","0","stainless steel sink","0","7952","1","White_Screen.jpg","8","141","Sink_Kitchen.jpg","8"
"080819","13:47:51","6","6","5.0.14.0","2","128","trial1","naming","0","0","0","0","compact","0","4234","1","White_Screen.jpg","7","174","Compact_Powder.jpg","7"
"080819","13:47:51","6","6","5.0.14.0","2","129","trial1","naming","0","0","0","0","hard hat","0","4500","1","White_Screen.jpg","7","59","Hat_Hard.jpg","7"
"080819","13:47:51","6","6","5.0.14.0","2","130","trial1","naming","0","0","0","0","nut and bolt","0","7128","1","White_Screen.jpg","5","48","Bolt_WithNut.jpg","5"
"080819","13:47:51","6","6","5.0.14.0","2","131","trial1","naming","0","0","0","0","plastic baby blocks","0","6900","1","White_Screen.jpg","5","145","Toy_BlocksPlastic Colourful.jpg","5"
"080819","13:47:51","6","6","5.0.14.0","2","132","trial1","naming","0","0","0","0","flask","0","3850","1","White_Screen.jpg","6","49","Flask_Metal.jpg","6"
"080819","13:47:51","6","6","5.0.14.0","2","133","trial1","naming","0","0","0","0","toy car track","0","10000","1","White_Screen.jpg","8","129","Toy_RaceTrack.jpg","8"
"080819","13:47:51","6","6","5.0.14.0","2","134","trial1","naming","0","0","0","0","dreidel","0","4817","1","White_Screen.jpg","8","8","Dreidel.jpg","8"
"080819","13:47:51","6","6","5.0.14.0","2","135","trial1","naming","0","0","0","0","bongo","0","5203","1","White_Screen.jpg","5","94","Drum_Conga.jpg","5"
"080819","13:47:51","6","6","5.0.14.0","2","136","trial1","naming","0","0","0","0","goose","0","4340","1","White_Screen.jpg","8","10","Bird_CanadianGoose.jpg","8"
"080819","13:47:51","6","6","5.0.14.0","2","137","trial1","naming","0","0","0","0","clamp","0","8380","1","White_Screen.jpg","7","68","Carbiner_Ascender.jpg","7"
"080819","13:47:51","6","6","5.0.14.0","2","138","trial1","naming","0","0","0","0","key chain","0","4386","1","White_Screen.jpg","5","11","Keychain_Leather.jpg","5"
"080819","13:47:51","6","6","5.0.14.0","2","139","trial1","naming","0","0","0","0","pepper?","0","7980","1","White_Screen.jpg","5","42","Lychee.jpg","5"
"080819","13:47:51","6","6","5.0.14.0","2","140","trial1","naming","0","0","0","0","cassette tape","0","8987","1","White_Screen.jpg","7","152","Cassette_Audio.jpg","7"
"080819","13:47:51","6","6","5.0.14.0","2","141","trial1","naming","0","0","0","0","rug","0","5536","1","White_Screen.jpg","5","22","Mat_Door.jpg","5"
"080819","13:47:51","6","6","5.0.14.0","2","142","trial1","naming","0","0","0","0","key holder","0","6252","1","White_Screen.jpg","6","153","KeyHook_Occupied.jpg","6"
"080819","13:47:51","6","6","5.0.14.0","2","143","trial1","naming","0","0","0","0","dinner roll","0","4907","1","White_Screen.jpg","5","156","Bread_Roll.jpg","5"
"080819","13:47:51","6","6","5.0.14.0","2","144","trial1","naming","0","0","0","0","kite","0","3864","1","White_Screen.jpg","8","66","Kite_Rainbow.jpg","8"
"080819","13:47:51","6","6","5.0.14.0","2","145","trial1","naming","0","0","0","0","cauldron","0","6285","1","White_Screen.jpg","7","140","Pot_BlackOld.jpg","7"
"080819","13:47:51","6","6","5.0.14.0","2","146","trial1","naming","0","0","0","0","leaf blower","0","4835","1","White_Screen.jpg","6","12","LeafBlower.jpg","6"
"080819","13:47:51","6","6","5.0.14.0","2","147","trial1","naming","0","0","0","0","sleeping bag","0","4005","1","White_Screen.jpg","5","187","InflatableSleepingBag.jpg","5"
"080819","13:47:51","6","6","5.0.14.0","2","148","trial1","naming","0","0","0","0","dish drainer","0","8339","1","White_Screen.jpg","8","5","DryRack_Dishes.jpg","8"
"080819","13:47:51","6","6","5.0.14.0","2","149","trial1","naming","0","0","0","0","cooler","0","3846","1","White_Screen.jpg","6","9","Cooler.jpg","6"
"080819","13:47:51","6","6","5.0.14.0","2","150","trial1","naming","0","0","0","0","meat ","0","10000","1","White_Screen.jpg","7","136","Cleaver_Meat.jpg","7"
"080819","13:47:51","6","6","5.0.14.0","2","151","trial1","naming","0","0","0","0","thanksgiving dinner","0","9036","1","White_Screen.jpg","8","88","Chicken_Dinner.jpg","8"
"080819","13:47:51","6","6","5.0.14.0","2","152","trial1","naming","0","0","0","0","floor brush","0","6783","1","White_Screen.jpg","6","104","Brush_Nail.jpg","6"
"080819","13:47:51","6","6","5.0.14.0","2","154","trial1","naming","0","0","0","0","guitar","0","8457","1","White_Screen.jpg","8","83","Balalaika.jpg","8"
"080819","13:47:51","6","6","5.0.14.0","2","155","trial1","naming","0","0","0","0","Periodioc table","0","10000","1","White_Screen.jpg","8","178","PeriodicTable.jpg","8"
"080819","13:47:51","6","6","5.0.14.0","2","156","trial1","naming","0","0","0","0","mouth guard","0","8979","1","White_Screen.jpg","8","171","TeethMould.jpg","8"
"080819","13:47:51","6","6","5.0.14.0","2","157","trial1","naming","0","0","0","0","slinky","0","4968","1","White_Screen.jpg","6","96","Toy_Slinky.jpg","6"
"080819","13:47:51","6","6","5.0.14.0","2","158","trial1","naming","0","0","0","0","spider","0","3931","1","White_Screen.jpg","8","106","Spider.jpg","8"
"080819","13:47:51","6","6","5.0.14.0","2","159","trial1","naming","0","0","0","0","clo","0","10000","1","White_Screen.jpg","5","172","Clock_Interior.jpg","5"
"080819","13:47:51","6","6","5.0.14.0","2","160","trial1","naming","0","0","0","0","box","0","5357","1","White_Screen.jpg","6","14","Case_WoodenOrnate.jpg","6"
"080819","13:47:51","6","6","5.0.14.0","2","161","trial1","naming","0","0","0","0","fork","0","4089","1","White_Screen.jpg","8","37","Fork_Regular.jpg","8"
"080819","13:47:51","6","6","5.0.14.0","2","162","trial1","naming","0","0","0","0","Enter Name","0","10000","1","White_Screen.jpg","8","124","BuildingChinese.jpg","8"
"080819","13:47:51","6","6","5.0.14.0","2","163","trial1","naming","0","0","0","0","match book","0","6060","1","White_Screen.jpg","5","86","MatchBook.jpg","5"
"080819","13:47:51","6","6","5.0.14.0","2","164","trial1","naming","0","0","0","0","sticky note h","0","10000","1","White_Screen.jpg","8","105","MemoPaperSpike.jpg","8"
"080819","13:47:51","6","6","5.0.14.0","2","165","trial1","naming","0","0","0","0","socks","0","5612","1","White_Screen.jpg","7","162","Socks_Winter.jpg","7"
"080819","13:47:51","6","6","5.0.14.0","2","166","trial1","naming","0","0","0","0","metal detectors","0","8772","1","White_Screen.jpg","7","16","ScannerShoplifting.jpg","7"
"080819","13:47:51","6","6","5.0.14.0","2","167","trial1","naming","0","0","0","0","sea shell","0","7401","1","White_Screen.jpg","7","2","Fossil.jpg","7"
"080819","13:47:51","6","6","5.0.14.0","2","168","trial1","naming","0","0","0","0","vulture","0","7459","1","White_Screen.jpg","5","72","Bird_Falcon.jpg","5"
"080819","13:47:51","6","6","5.0.14.0","2","169","trial1","naming","0","0","0","0","cot","0","5098","1","White_Screen.jpg","7","157","Bed_ChildBirch.jpg","7"
"080819","13:47:51","6","6","5.0.14.0","2","170","trial1","naming","0","0","0","0","shrub","0","5844","1","White_Screen.jpg","8","3","HerbsInBag.jpg","8"
"080819","13:47:51","6","6","5.0.14.0","2","171","trial1","naming","0","0","0","0","present","0","5758","1","White_Screen.jpg","5","79","Box_GiftTopView.jpg","5"
"080819","13:47:51","6","6","5.0.14.0","2","172","trial1","naming","0","0","0","0","donald duck","0","6001","1","White_Screen.jpg","8","134","DonaldDuck_Toy.jpg","8"
"080819","13:47:51","6","6","5.0.14.0","2","173","trial1","naming","0","0","0","0","medical tape","0","7063","1","White_Screen.jpg","8","183","Tape_Clear.jpg","8"
"080819","13:47:51","6","6","5.0.14.0","2","174","trial1","naming","0","0","0","0","ugly doll","0","9007","1","White_Screen.jpg","7","40","Toy_DollHomeMade.jpg","7"
"080819","13:47:51","6","6","5.0.14.0","2","175","trial1","naming","0","0","0","0","styraphome cup","0","10000","1","White_Screen.jpg","7","34","Cup_Styrofoam.jpg","7"
"080819","13:47:51","6","6","5.0.14.0","2","176","trial1","naming","0","0","0","0","butter knife","0","5964","1","White_Screen.jpg","7","154","Knife_Butter.jpg","7"
"080819","13:47:51","6","6","5.0.14.0","2","177","trial1","naming","0","0","0","0","metal cabinet","0","8837","1","White_Screen.jpg","8","19","ElectricSwitchboard.jpg","8"
"080819","13:47:51","6","6","5.0.14.0","2","178","trial1","naming","0","0","0","0","airplane","0","5696","1","White_Screen.jpg","6","133","Airplane_Commercial.jpg","6"
"080819","13:47:51","6","6","5.0.14.0","2","179","trial1","naming","0","0","0","0","light bulb","0","4715","1","White_Screen.jpg","7","73","LightBulb_White.jpg","7"
"080819","13:47:51","6","6","5.0.14.0","2","180","trial1","naming","0","0","0","0","lemon","0","4200","1","White_Screen.jpg","7","191","Lemon.jpg","7"
"080819","13:47:51","6","6","5.0.14.0","2","181","trial1","naming","0","0","0","0","dj station","0","10000","1","White_Screen.jpg","8","93","DJMixer.jpg","8"
"080819","13:47:51","6","6","5.0.14.0","2","182","trial1","naming","0","0","0","0","Enter Name","0","180","1","White_Screen.jpg","8","56","Heater_Outdoor.jpg","8"
"080819","13:47:51","6","6","5.0.14.0","2","183","trial1","naming","0","0","0","0","jar of tomatoes","0","8605","1","White_Screen.jpg","5","110","Jar_Strawberry.jpg","5"
"080819","13:47:51","6","6","5.0.14.0","2","184","trial1","naming","0","0","0","0","eiffel tower","0","5343","1","White_Screen.jpg","8","120","TowerEiffel.jpg","8"
"080819","13:47:51","6","6","5.0.14.0","2","185","trial1","naming","0","0","0","0","whole grain bread","0","6929","1","White_Screen.jpg","7","138","Bread_Carrot.jpg","7"
"080819","13:47:51","6","6","5.0.14.0","2","186","trial1","naming","0","0","0","0","pick up truck","0","5734","1","White_Screen.jpg","7","17","PickupTruck.jpg","7"
"080819","13:47:51","6","6","5.0.14.0","2","187","trial1","naming","0","0","0","0","juicebox","0","4642","1","White_Screen.jpg","7","186","JuiceBox.jpg","7"
"080819","13:47:51","6","6","5.0.14.0","2","188","trial1","naming","0","0","0","0","comb","0","3741","1","White_Screen.jpg","8","98","Comb_1.jpg","8"
"080819","13:47:51","6","6","5.0.14.0","2","189","trial1","naming","0","0","0","0","speaker","0","4223","1","White_Screen.jpg","8","92","Hockey_Puck.jpg","8"
"080819","13:47:51","6","6","5.0.14.0","2","190","trial1","naming","0","0","0","0","pineapple","0","4597","1","White_Screen.jpg","9","84","Pineapple.jpg","9"
"080819","13:47:51","6","6","5.0.14.0","2","191","trial1","naming","0","0","0","0","goat","0","3634","1","White_Screen.jpg","5","26","RamAnimal.jpg","5"
"080819","13:47:51","6","6","5.0.14.0","2","192","trial1","naming","0","0","0","0","shrub","0","4528","1","White_Screen.jpg","8","137","Shrub_Cedar.jpg","8"
"080819","13:47:51","6","6","5.0.14.0","2","193","trial1","naming","0","0","0","0","sea shell","0","3493","1","White_Screen.jpg","7","31","Seashell_RoseMurex.jpg","7"
"080819","13:47:51","6","6","5.0.14.0","2","194","trial1","naming","0","0","0","0","old airplane","0","7078","1","White_Screen.jpg","7","182","Airplane_Fighter.jpg","7"
"080819","13:47:51","6","6","5.0.14.0","2","195","trial1","naming","0","0","0","0","decorative tape","0","7909","1","White_Screen.jpg","6","135","Tape_Washi.jpg","6"
"080819","13:47:51","6","6","5.0.14.0","2","196","trial1","naming","0","0","0","0","chain link","0","7377","1","White_Screen.jpg","8","193","Keychain_Metal.jpg","8"
"080819","13:47:51","6","6","5.0.14.0","2","197","trial1","naming","0","0","0","0","water fountain","0","5870","1","White_Screen.jpg","5","127","WaterFountain.jpg","5"
"080819","13:47:51","6","6","5.0.14.0","2","198","trial1","naming","0","0","0","0","hassock","0","5988","1","White_Screen.jpg","5","60","Stool_Foot.jpg","5"
"080819","13:47:51","6","6","5.0.14.0","2","199","trial1","naming","0","0","0","0","glass bowl","0","5279","1","White_Screen.jpg","8","67","Bowl_Glass.jpg","8"
"080819","13:47:51","6","6","5.0.14.0","2","200","trial1","naming","0","0","0","0","mineral","0","6785","1","White_Screen.jpg","9","108","Oyster.jpg","9"
"080819","13:47:51","6","6","5.0.14.0","2","201","trial1","naming","0","0","0","0","capris","0","4854","1","White_Screen.jpg","8","80","Pants.jpg","8"
"080819","13:47:51","6","6","5.0.14.0","2","202","trial1","naming","0","0","0","0","socket set","0","6349","1","White_Screen.jpg","8","131","Toolbox_BlackOpen.jpg","8"
"080819","13:47:51","6","6","5.0.14.0","2","203","trial1","naming","0","0","0","0","rubber hammer","0","7310","1","White_Screen.jpg","7","76","Mallet.jpg","7"
"080819","13:47:51","6","6","5.0.14.0","3","1","demographics_block","gender","0","0","0","0","female","1","12101","0","0","0","0","0","0"
"080819","13:47:51","6","6","5.0.14.0","3","1","demographics_block","age","0","0","0","0","45","1","12101","0","0","0","0","0","0"
"080819","13:47:51","6","6","5.0.14.0","3","1","demographics_block","education","0","0","0","0","14","1","12101","0","0","0","0","0","0"
"080819","13:47:51","6","6","5.0.14.0","3","2","demographics_block","left_right_handed","0","0","0","0","Left","1","5657","0","0","0","0","0","0"
"080819","13:47:51","6","6","5.0.14.0","3","2","demographics_block","raceoption1","0","0","0","0","0","1","5657","0","0","0","0","0","0"
"080819","13:47:51","6","6","5.0.14.0","3","2","demographics_block","raceoption2","0","0","0","0","","1","5657","0","0","0","0","0","0"
"080819","13:47:51","6","6","5.0.14.0","3","2","demographics_block","raceoption3","0","0","0","0","","1","5657","0","0","0","0","0","0"
"080819","13:47:51","6","6","5.0.14.0","3","2","demographics_block","raceoption4","0","0","0","0","","1","5657","0","0","0","0","0","0"
"080819","13:47:51","6","6","5.0.14.0","3","2","demographics_block","raceoption5","0","0","0","0","","1","5657","0","0","0","0","0","0"
"080819","13:47:51","6","6","5.0.14.0","3","2","demographics_block","raceoption6","0","0","0","0","","1","5657","0","0","0","0","0","0"
"080819","13:47:51","6","6","5.0.14.0","3","2","demographics_block","raceoption7","0","0","0","0","","1","5657","0","0","0","0","0","0"
"080819","13:47:51","6","6","5.0.14.0","3","2","demographics_block","raceoption8","0","0","0","0","","1","5657","0","0","0","0","0","0"
"080819","13:47:51","6","6","5.0.14.0","3","2","demographics_block","raceoption9","0","0","0","0","","1","5657","0","0","0","0","0","0"
"080819","13:47:51","6","6","5.0.14.0","3","2","demographics_block","raceother","0","0","0","0","","1","5657","0","0","0","0","0","0"
"080819","13:47:51","6","6","5.0.14.0","3","2","demographics_block","raceother","0","0","0","0","","1","5657","0","0","0","0","0","0"
"080819","13:47:51","6","6","5.0.14.0","3","2","demographics_block","english_language","0","0","0","0","Yes","1","5657","0","0","0","0","0","0"
"080819","13:47:51","6","6","5.0.14.0","3","2","demographics_block","english_languageother","0","0","0","0","","1","5657","0","0","0","0","0","0"
"080819","13:47:51","6","6","5.0.14.0","3","3","demographics_block","eyesight","0","0","0","0","Yes","1","4753","0","0","0","0","0","0"
"080819","13:47:51","6","6","5.0.14.0","3","3","demographics_block","colorblind","0","0","0","0","No","1","4753","0","0","0","0","0","0"
"080819","13:47:51","6","6","5.0.14.0","4","1","worker_id_block","worker_id_textbox","0","0","0","0","In quisit will not let me get to it!","1","49498","0","0","0","0","0","0"
"080819","14:00:24","9","9","5.0.14.0","2","1","trial1","naming","0","0","0","0","carrots","0","8781","1","White_Screen.jpg","128","95","Carrot.jpg","128"
"080819","14:00:24","9","9","5.0.14.0","2","2","trial1","naming","0","0","0","0","pumpkin","0","2971","1","White_Screen.jpg","14","167","Pumpkin.jpg","14"
"080819","14:00:24","9","9","5.0.14.0","2","3","trial1","naming","0","0","0","0","pot","0","2922","1","White_Screen.jpg","14","140","Pot_BlackOld.jpg","14"
"080819","14:00:24","9","9","5.0.14.0","2","4","trial1","naming","0","0","0","0","gear","0","3325","1","White_Screen.jpg","19","172","Clock_Interior.jpg","19"
"080819","14:00:24","9","9","5.0.14.0","2","5","trial1","naming","0","0","0","0","mouth guard","0","3843","1","White_Screen.jpg","22","171","TeethMould.jpg","22"
"080819","14:00:24","9","9","5.0.14.0","2","6","trial1","naming","0","0","0","0","coat rack","0","5660","1","White_Screen.jpg","19","36","KeyHook_Empty.jpg","19"
"080819","14:00:24","9","9","5.0.14.0","2","7","trial1","naming","0","0","0","0","hard hat","0","3854","1","White_Screen.jpg","20","59","Hat_Hard.jpg","20"
"080819","14:00:24","9","9","5.0.14.0","2","8","trial1","naming","0","0","0","0","stove","0","6678","1","White_Screen.jpg","25","69","Fireplace_Outdoor.jpg","25"
"080819","14:00:24","9","9","5.0.14.0","2","9","trial1","naming","0","0","0","0","colliseum","0","4015","1","White_Screen.jpg","15","181","Colosseum.jpg","15"
"080819","14:00:24","9","9","5.0.14.0","2","10","trial1","naming","0","0","0","0","pirate flag","0","3022","1","White_Screen.jpg","29","52","PirateFlag.jpg","29"
"080819","14:00:24","9","9","5.0.14.0","2","11","trial1","naming","0","0","0","0","cat","0","3907","1","White_Screen.jpg","19","179","Car_Sedan.jpg","19"
"080819","14:00:24","9","9","5.0.14.0","2","12","trial1","naming","0","0","0","0","keychain","0","5114","1","White_Screen.jpg","24","11","Keychain_Leather.jpg","24"
"080819","14:00:24","9","9","5.0.14.0","2","13","trial1","naming","0","0","0","0","manila envelope","0","5901","1","White_Screen.jpg","22","151","Envelope_Manila.jpg","22"
"080819","14:00:24","9","9","5.0.14.0","2","14","trial1","naming","0","0","0","0","ambulance","0","4131","1","White_Screen.jpg","23","65","Ambulance.jpg","23"
"080819","14:00:24","9","9","5.0.14.0","2","15","trial1","naming","0","0","0","0","harmonica","0","3768","1","White_Screen.jpg","14","46","Harmonica.jpg","14"
"080819","14:00:24","9","9","5.0.14.0","2","16","trial1","naming","0","0","0","0","donald duck figurine","0","5319","1","White_Screen.jpg","24","134","DonaldDuck_Toy.jpg","24"
"080819","14:00:24","9","9","5.0.14.0","2","17","trial1","naming","0","0","0","0","flower","0","3284","1","White_Screen.jpg","22","144","Flower_Crane.jpg","22"
"080819","14:00:24","9","9","5.0.14.0","2","18","trial1","naming","0","0","0","0","bulldog","0","3581","1","White_Screen.jpg","21","147","Dog_Bulldog.jpg","21"
"080819","14:00:24","9","9","5.0.14.0","2","19","trial1","naming","0","0","0","0","masquerade mask","0","5135","1","White_Screen.jpg","15","173","Mask_Masquerade.jpg","15"
"080819","14:00:24","9","9","5.0.14.0","2","20","trial1","naming","0","0","0","0","nail","0","4478","1","White_Screen.jpg","16","75","Nail.jpg","16"
"080819","14:00:24","9","9","5.0.14.0","2","21","trial1","naming","0","0","0","0","football helmet","0","5496","1","White_Screen.jpg","26","125","Helmet_Football.jpg","26"
"080819","14:00:24","9","9","5.0.14.0","2","22","trial1","naming","0","0","0","0","tape","0","3725","1","White_Screen.jpg","20","183","Tape_Clear.jpg","20"
"080819","14:00:24","9","9","5.0.14.0","2","23","trial1","naming","0","0","0","0","leaf blower","0","3599","1","White_Screen.jpg","22","12","LeafBlower.jpg","22"
"080819","14:00:24","9","9","5.0.14.0","2","24","trial1","naming","0","0","0","0","bust","0","2980","1","White_Screen.jpg","23","78","Statue_Head.jpg","23"
"080819","14:00:24","9","9","5.0.14.0","2","25","trial1","naming","0","0","0","0","guitar case","0","3700","1","White_Screen.jpg","14","175","Guitarcase.jpg","14"
"080819","14:00:24","9","9","5.0.14.0","2","26","trial1","naming","0","0","0","0","pants","0","2867","1","White_Screen.jpg","20","80","Pants.jpg","20"
"080819","14:00:24","9","9","5.0.14.0","2","27","trial1","naming","0","0","0","0","lamp","0","4014","1","White_Screen.jpg","22","117","Light_PostIsolated.jpg","22"
"080819","14:00:24","9","9","5.0.14.0","2","28","trial1","naming","0","0","0","0","cleaning brush","0","3381","1","White_Screen.jpg","15","104","Brush_Nail.jpg","15"
"080819","14:00:24","9","9","5.0.14.0","2","29","trial1","naming","0","0","0","0","perfume","0","4106","1","White_Screen.jpg","14","155","Cologne.jpg","14"
"080819","14:00:24","9","9","5.0.14.0","2","30","trial1","naming","0","0","0","0","digital camera","0","3522","1","White_Screen.jpg","13","114","Camera_Digital.jpg","13"
"080819","14:00:24","9","9","5.0.14.0","2","31","trial1","naming","0","0","0","0","airplane","0","3106","1","White_Screen.jpg","15","182","Airplane_Fighter.jpg","15"
"080819","14:00:24","9","9","5.0.14.0","2","32","trial1","naming","0","0","0","0","heat vent","0","3924","1","White_Screen.jpg","14","103","AirVent.jpg","14"
"080819","14:00:24","9","9","5.0.14.0","2","33","trial1","naming","0","0","0","0","doll","0","3716","1","White_Screen.jpg","21","40","Toy_DollHomeMade.jpg","21"
"080819","14:00:24","9","9","5.0.14.0","2","34","trial1","naming","0","0","0","0","puffin","0","3976","1","White_Screen.jpg","15","113","Puffin.jpg","15"
"080819","14:00:24","9","9","5.0.14.0","2","35","trial1","naming","0","0","0","0","black licorice","0","4131","1","White_Screen.jpg","15","18","Licorice.jpg","15"
"080819","14:00:24","9","9","5.0.14.0","2","36","trial1","naming","0","0","0","0","seashell","0","4350","1","White_Screen.jpg","15","2","Fossil.jpg","15"
"080819","14:00:24","9","9","5.0.14.0","2","37","trial1","naming","0","0","0","0","box of chocolates","0","4885","1","White_Screen.jpg","19","58","Box_Chocolate.jpg","19"
"080819","14:00:24","9","9","5.0.14.0","2","38","trial1","naming","0","0","0","0","boombox","0","3453","1","White_Screen.jpg","13","158","Boombox.jpg","13"
"080819","14:00:24","9","9","5.0.14.0","2","39","trial1","naming","0","0","0","0","dart board","0","3748","1","White_Screen.jpg","15","118","DartBoard.jpg","15"
"080819","14:00:24","9","9","5.0.14.0","2","40","trial1","naming","0","0","0","0","headphones","0","3770","1","White_Screen.jpg","15","150","Headphones.jpg","15"
"080819","14:00:24","9","9","5.0.14.0","2","41","trial1","naming","0","0","0","0","spider","0","3000","1","White_Screen.jpg","14","106","Spider.jpg","14"
"080819","14:00:24","9","9","5.0.14.0","2","42","trial1","naming","0","0","0","0","bike","0","2967","1","White_Screen.jpg","36","91","Bicycle_Adult.jpg","36"
"080819","14:00:24","9","9","5.0.14.0","2","43","trial1","naming","0","0","0","0","column","0","9402","1","White_Screen.jpg","20","101","PedestalGreek.jpg","20"
"080819","14:00:24","9","9","5.0.14.0","2","44","trial1","naming","0","0","0","0","road sign","0","3508","1","White_Screen.jpg","14","7","Sign_HumpBridgeAhead.jpg","14"
"080819","14:00:24","9","9","5.0.14.0","2","45","trial1","naming","0","0","0","0","humidifier","0","3643","1","White_Screen.jpg","21","82","Humidifier.jpg","21"
"080819","14:00:24","9","9","5.0.14.0","2","46","trial1","naming","0","0","0","0","building blocks","0","3945","1","White_Screen.jpg","19","145","Toy_BlocksPlastic Colourful.jpg","19"
"080819","14:00:24","9","9","5.0.14.0","2","47","trial1","naming","0","0","0","0","dinner plate","0","3737","1","White_Screen.jpg","22","88","Chicken_Dinner.jpg","22"
"080819","14:00:24","9","9","5.0.14.0","2","48","trial1","naming","0","0","0","0","fish statue","0","3826","1","White_Screen.jpg","22","121","SculptureMetalFish.jpg","22"
"080819","14:00:24","9","9","5.0.14.0","2","49","trial1","naming","0","0","0","0","toy drill","0","4793","1","White_Screen.jpg","24","200","Toy_Drill.jpg","24"
"080819","14:00:24","9","9","5.0.14.0","2","50","trial1","naming","0","0","0","0","building blocks","0","4055","1","White_Screen.jpg","26","35","Toy_BlocksLetter.jpg","26"
"080819","14:00:24","9","9","5.0.14.0","2","52","trial1","naming","0","0","0","0","metal detector","0","4510","1","White_Screen.jpg","14","165","MetalDetector.jpg","14"
"080819","14:00:24","9","9","5.0.14.0","2","53","trial1","naming","0","0","0","0","key rack","0","4838","1","White_Screen.jpg","13","153","KeyHook_Occupied.jpg","13"
"080819","14:00:24","9","9","5.0.14.0","2","54","trial1","naming","0","0","0","0","beer glass","0","4669","1","White_Screen.jpg","15","184","Glass_Beer.jpg","15"
"080819","14:00:24","9","9","5.0.14.0","2","55","trial1","naming","0","0","0","0","jet","0","2937","1","White_Screen.jpg","14","161","Jet.jpg","14"
"080819","14:00:24","9","9","5.0.14.0","2","56","trial1","naming","0","0","0","0","hula hoop","0","4015","1","White_Screen.jpg","20","85","Hulahoop.jpg","20"
"080819","14:00:24","9","9","5.0.14.0","2","57","trial1","naming","0","0","0","0","fashion boots","0","4958","1","White_Screen.jpg","15","195","Boots_KneeHigh.jpg","15"
"080819","14:00:24","9","9","5.0.14.0","2","58","trial1","naming","0","0","0","0","puzzle","0","5981","1","White_Screen.jpg","22","47","Toy_Shapesorter.jpg","22"
"080819","14:00:24","9","9","5.0.14.0","2","59","trial1","naming","0","0","0","0","ankle boots","0","5396","1","White_Screen.jpg","22","29","Shoes_WomenBoots.jpg","22"
"080819","14:00:24","9","9","5.0.14.0","2","60","trial1","naming","0","0","0","0","oyster","0","4967","1","White_Screen.jpg","15","108","Oyster.jpg","15"
"080819","14:00:24","9","9","5.0.14.0","2","61","trial1","naming","0","0","0","0","gift","0","2794","1","White_Screen.jpg","15","79","Box_GiftTopView.jpg","15"
"080819","14:00:24","9","9","5.0.14.0","2","62","trial1","naming","0","0","0","0","bread basket","0","3609","1","White_Screen.jpg","19","39","Basket_Bread.jpg","19"
"080819","14:00:24","9","9","5.0.14.0","2","63","trial1","naming","0","0","0","0","kangaroo","0","4248","1","White_Screen.jpg","23","44","Kangaroo.jpg","23"
"080819","14:00:24","9","9","5.0.14.0","2","64","trial1","naming","0","0","0","0","ski boots","0","3380","1","White_Screen.jpg","24","143","Shoes_Snowboarding.jpg","24"
"080819","14:00:24","9","9","5.0.14.0","2","65","trial1","naming","0","0","0","0","keychain","0","4419","1","White_Screen.jpg","21","193","Keychain_Metal.jpg","21"
"080819","14:00:24","9","9","5.0.14.0","2","66","trial1","naming","0","0","0","0","radio panel","0","7006","1","White_Screen.jpg","21","4","SoundMixer_White.jpg","21"
"080819","14:00:24","9","9","5.0.14.0","2","67","trial1","naming","0","0","0","0","cleaver","0","2993","1","White_Screen.jpg","22","136","Cleaver_Meat.jpg","22"
"080819","14:00:24","9","9","5.0.14.0","2","68","trial1","naming","0","0","0","0","romaine","0","3501","1","White_Screen.jpg","15","102","Lettuce_Romaine.jpg","15"
"080819","14:00:24","9","9","5.0.14.0","2","69","trial1","naming","0","0","0","0","knife","0","3005","1","White_Screen.jpg","15","81","Knife_Kitchen.jpg","15"
"080819","14:00:24","9","9","5.0.14.0","2","70","trial1","naming","0","0","0","0","timer","0","2828","1","White_Screen.jpg","14","15","TimerKitchen.jpg","14"
"080819","14:00:24","9","9","5.0.14.0","2","71","trial1","naming","0","0","0","0","bongo","0","3299","1","White_Screen.jpg","22","94","Drum_Conga.jpg","22"
"080819","14:00:24","9","9","5.0.14.0","2","72","trial1","naming","0","0","0","0","griddle","0","3275","1","White_Screen.jpg","18","21","Grill_Electric.jpg","18"
"080819","14:00:24","9","9","5.0.14.0","2","73","trial1","naming","0","0","0","0","helmet","0","3952","1","White_Screen.jpg","22","57","Mask_Viking.jpg","22"
"080819","14:00:24","9","9","5.0.14.0","2","74","trial1","naming","0","0","0","0","double decker bus","0","4338","1","White_Screen.jpg","30","122","Bus_DoubleDecker.jpg","30"
"080819","14:00:24","9","9","5.0.14.0","2","75","trial1","naming","0","0","0","0","kite","0","2794","1","White_Screen.jpg","21","66","Kite_Rainbow.jpg","21"
"080819","14:00:24","9","9","5.0.14.0","2","76","trial1","naming","0","0","0","0","dish rack","0","5146","1","White_Screen.jpg","15","5","DryRack_Dishes.jpg","15"
"080819","14:00:24","9","9","5.0.14.0","2","77","trial1","naming","0","0","0","0","bolt","0","2818","1","White_Screen.jpg","23","48","Bolt_WithNut.jpg","23"
"080819","14:00:24","9","9","5.0.14.0","2","78","trial1","naming","0","0","0","0","wire","0","2672","1","White_Screen.jpg","15","100","Wire_Soldering.jpg","15"
"080819","14:00:24","9","9","5.0.14.0","2","79","trial1","naming","0","0","0","0","spaghetti sauce","0","4316","1","White_Screen.jpg","22","61","TomatoSauce.jpg","22"
"080819","14:00:24","9","9","5.0.14.0","2","80","trial1","naming","0","0","0","0","sander","0","2936","1","White_Screen.jpg","29","168","JumpingJack.jpg","29"
"080819","14:00:24","9","9","5.0.14.0","2","81","trial1","naming","0","0","0","0","shark toy","0","3338","1","White_Screen.jpg","26","160","Toy_Shark.jpg","26"
"080819","14:00:24","9","9","5.0.14.0","2","82","trial1","naming","0","0","0","0","octopus toy","0","5345","1","White_Screen.jpg","23","97","Toy_Octopus.jpg","23"
"080819","14:00:24","9","9","5.0.14.0","2","83","trial1","naming","0","0","0","0","strainer","0","3252","1","White_Screen.jpg","15","116","Sieve_SideView.jpg","15"
"080819","14:00:24","9","9","5.0.14.0","2","84","trial1","naming","0","0","0","0","hawk","0","6036","1","White_Screen.jpg","15","72","Bird_Falcon.jpg","15"
"080819","14:00:24","9","9","5.0.14.0","2","85","trial1","naming","0","0","0","0","helicopter toy","0","4768","1","White_Screen.jpg","36","109","Toy_Helicopter.jpg","36"
"080819","14:00:24","9","9","5.0.14.0","2","86","trial1","naming","0","0","0","0","container","0","3011","1","White_Screen.jpg","16","54","Container_RedPlastic.jpg","16"
"080819","14:00:24","9","9","5.0.14.0","2","87","trial1","naming","0","0","0","0","apple","0","3774","1","White_Screen.jpg","23","89","Plum.jpg","23"
"080819","14:00:24","9","9","5.0.14.0","2","88","trial1","naming","0","0","0","0","goose","0","2688","1","White_Screen.jpg","14","10","Bird_CanadianGoose.jpg","14"
"080819","14:00:24","9","9","5.0.14.0","2","89","trial1","naming","0","0","0","0","tool box","0","4159","1","White_Screen.jpg","20","131","Toolbox_BlackOpen.jpg","20"
"080819","14:00:24","9","9","5.0.14.0","2","90","trial1","naming","0","0","0","0","wood box","0","3923","1","White_Screen.jpg","14","14","Case_WoodenOrnate.jpg","14"
"080819","14:00:24","9","9","5.0.14.0","2","91","trial1","naming","0","0","0","0","lunch box","0","5261","1","White_Screen.jpg","14","112","Lunchbox.jpg","14"
"080819","14:00:24","9","9","5.0.14.0","2","92","trial1","naming","0","0","0","0","screwdriver","0","5575","1","White_Screen.jpg","14","196","ScrewDriver.jpg","14"
"080819","14:00:24","9","9","5.0.14.0","2","93","trial1","naming","0","0","0","0","headlamp","0","3152","1","White_Screen.jpg","13","90","FlashlightHeadBand.jpg","13"
"080819","14:00:24","9","9","5.0.14.0","2","94","trial1","naming","0","0","0","0","coffeemug","0","3687","1","White_Screen.jpg","15","33","Mug_Travel.jpg","15"
"080819","14:00:24","9","9","5.0.14.0","2","95","trial1","naming","0","0","0","0","musical instrument","0","10000","1","White_Screen.jpg","15","119","Cabasa.jpg","15"
"080819","14:00:24","9","9","5.0.14.0","2","96","trial1","naming","0","0","0","0","Enter Name","0","101","1","White_Screen.jpg","26","166","FireExtinguisher.jpg","26"
"080819","14:00:24","9","9","5.0.14.0","2","97","trial1","naming","0","0","0","0","styrofoam cup","0","7701","1","White_Screen.jpg","26","34","Cup_Styrofoam.jpg","26"
"080819","14:00:24","9","9","5.0.14.0","2","98","trial1","naming","0","0","0","0","bomb","0","3026","1","White_Screen.jpg","14","1","Bomb.jpg","14"
"080819","14:00:24","9","9","5.0.14.0","2","99","trial1","naming","0","0","0","0","guitar","0","3724","1","White_Screen.jpg","21","83","Balalaika.jpg","21"
"080819","14:00:24","9","9","5.0.14.0","2","100","trial1","naming","0","0","0","0","table set","0","3245","1","White_Screen.jpg","20","20","Altar.jpg","20"
"080819","14:00:24","9","9","5.0.14.0","2","101","trial1","naming","0","0","0","0","rubber mallet","0","4489","1","White_Screen.jpg","20","76","Mallet.jpg","20"
"080819","14:00:24","9","9","5.0.14.0","2","103","trial1","naming","0","0","0","0","safe","0","2563","1","White_Screen.jpg","11","123","Camera_Antique.jpg","11"
"080819","14:00:24","9","9","5.0.14.0","2","104","trial1","naming","0","0","0","0","truck","0","2912","1","White_Screen.jpg","20","17","PickupTruck.jpg","20"
"080819","14:00:24","9","9","5.0.14.0","2","105","trial1","naming","0","0","0","0","lamp","0","2834","1","White_Screen.jpg","25","13","LampPost_WhiteOrnate.jpg","25"
"080819","14:00:24","9","9","5.0.14.0","2","106","trial1","naming","0","0","0","0","locker","0","3141","1","White_Screen.jpg","20","19","ElectricSwitchboard.jpg","20"
"080819","14:00:24","9","9","5.0.14.0","2","107","trial1","naming","0","0","0","0","measuring tool","0","5557","1","White_Screen.jpg","23","55","Ruler_Digital.jpg","23"
"080819","14:00:24","9","9","5.0.14.0","2","108","trial1","naming","0","0","0","0","turkey","0","3367","1","White_Screen.jpg","25","99","Chicken_Raw.jpg","25"
"080819","14:00:24","9","9","5.0.14.0","2","109","trial1","naming","0","0","0","0","centerpiece","0","4694","1","White_Screen.jpg","22","70","Candle_ChristmasDecor.jpg","22"
"080819","14:00:24","9","9","5.0.14.0","2","110","trial1","naming","0","0","0","0","hook","0","6925","1","White_Screen.jpg","21","68","Carbiner_Ascender.jpg","21"
"080819","14:00:24","9","9","5.0.14.0","2","111","trial1","naming","0","0","0","0","cereal bowl","0","4428","1","White_Screen.jpg","24","139","Bowl_Cereal.jpg","24"
"080819","14:00:24","9","9","5.0.14.0","2","112","trial1","naming","0","0","0","0","matches","0","3236","1","White_Screen.jpg","24","86","MatchBook.jpg","24"
"080819","14:00:24","9","9","5.0.14.0","2","113","trial1","naming","0","0","0","0","apple","0","2973","1","White_Screen.jpg","14","177","Apple_RedAndGreen.jpg","14"
"080819","14:00:24","9","9","5.0.14.0","2","114","trial1","naming","0","0","0","0","cantaloupe","0","3959","1","White_Screen.jpg","13","142","Cantaloupe.jpg","13"
"080819","14:00:24","9","9","5.0.14.0","2","115","trial1","naming","0","0","0","0","winter hat","0","4380","1","White_Screen.jpg","14","190","Hat_Tuque.jpg","14"
"080819","14:00:24","9","9","5.0.14.0","2","116","trial1","naming","0","0","0","0","butto","0","10000","1","White_Screen.jpg","15","62","ControlPanel.jpg","15"
"080819","14:00:24","9","9","5.0.14.0","2","117","trial1","naming","0","0","0","0","cassette tape","0","6899","1","White_Screen.jpg","19","152","Cassette_Audio.jpg","19"
"080819","14:00:24","9","9","5.0.14.0","2","118","trial1","naming","0","0","0","0","bridge","0","3466","1","White_Screen.jpg","19","185","BridgeWooden.jpg","19"
"080819","14:00:24","9","9","5.0.14.0","2","119","trial1","naming","0","0","0","0","slinky","0","3424","1","White_Screen.jpg","15","96","Toy_Slinky.jpg","15"
"080819","14:00:24","9","9","5.0.14.0","2","120","trial1","naming","0","0","0","0","paper holder","0","4328","1","White_Screen.jpg","22","105","MemoPaperSpike.jpg","22"
"080819","14:00:24","9","9","5.0.14.0","2","121","trial1","naming","0","0","0","0","pineapple","0","3603","1","White_Screen.jpg","15","84","Pineapple.jpg","15"
"080819","14:00:24","9","9","5.0.14.0","2","122","trial1","naming","0","0","0","0","dolphin","0","3650","1","White_Screen.jpg","20","163","Dolphine.jpg","20"
"080819","14:00:24","9","9","5.0.14.0","2","123","trial1","naming","0","0","0","0","plunger","0","3395","1","White_Screen.jpg","19","194","Plunger.jpg","19"
"080819","14:00:24","9","9","5.0.14.0","2","124","trial1","naming","0","0","0","0","sleeping bag","0","3486","1","White_Screen.jpg","21","187","InflatableSleepingBag.jpg","21"
"080819","14:00:24","9","9","5.0.14.0","2","125","trial1","naming","0","0","0","0","sink","0","3026","1","White_Screen.jpg","20","141","Sink_Kitchen.jpg","20"
"080819","14:00:24","9","9","5.0.14.0","2","126","trial1","naming","0","0","0","0","flask","0","3074","1","White_Screen.jpg","22","49","Flask_Metal.jpg","22"
"080819","14:00:24","9","9","5.0.14.0","2","127","trial1","naming","0","0","0","0","bed","0","3714","1","White_Screen.jpg","19","157","Bed_ChildBirch.jpg","19"
"080819","14:00:24","9","9","5.0.14.0","2","128","trial1","naming","0","0","0","0","column","0","4203","1","White_Screen.jpg","21","198","ColumnMarble.jpg","21"
"080819","14:00:24","9","9","5.0.14.0","2","129","trial1","naming","0","0","0","0","drain","0","3691","1","White_Screen.jpg","31","28","ManholeCover.jpg","31"
"080819","14:00:24","9","9","5.0.14.0","2","130","trial1","naming","0","0","0","0","fan","0","3120","1","White_Screen.jpg","21","128","Fan_Blades.jpg","21"
"080819","14:00:24","9","9","5.0.14.0","2","131","trial1","naming","0","0","0","0","GPS","0","3566","1","White_Screen.jpg","14","23","GPS.jpg","14"
"080819","14:00:24","9","9","5.0.14.0","2","132","trial1","naming","0","0","0","0","ram","0","2456","1","White_Screen.jpg","22","26","RamAnimal.jpg","22"
"080819","14:00:24","9","9","5.0.14.0","2","133","trial1","naming","0","0","0","0","wood chipp","0","10000","1","White_Screen.jpg","25","32","Mixer_Cement.jpg","25"
"080819","14:00:24","9","9","5.0.14.0","2","134","trial1","naming","0","0","0","0","fern","0","4664","1","White_Screen.jpg","25","137","Shrub_Cedar.jpg","25"
"080819","14:00:24","9","9","5.0.14.0","2","135","trial1","naming","0","0","0","0","recorder","0","3927","1","White_Screen.jpg","23","149","RecorderInstrument.jpg","23"
"080819","14:00:24","9","9","5.0.14.0","2","136","trial1","naming","0","0","0","0","sound system","0","5624","1","White_Screen.jpg","19","93","DJMixer.jpg","19"
"080819","14:00:24","9","9","5.0.14.0","2","137","trial1","naming","0","0","0","0","peach","0","7465","1","White_Screen.jpg","22","42","Lychee.jpg","22"
"080819","14:00:24","9","9","5.0.14.0","2","138","trial1","naming","0","0","0","0","bench","0","3444","1","White_Screen.jpg","15","60","Stool_Foot.jpg","15"
"080819","14:00:24","9","9","5.0.14.0","2","139","trial1","naming","0","0","0","0","lawnmower","0","3486","1","White_Screen.jpg","14","41","LawnMower.jpg","14"
"080819","14:00:24","9","9","5.0.14.0","2","140","trial1","naming","0","0","0","0","shell","0","2780","1","White_Screen.jpg","15","31","Seashell_RoseMurex.jpg","15"
"080819","14:00:24","9","9","5.0.14.0","2","141","trial1","naming","0","0","0","0","hand","0","2688","1","White_Screen.jpg","20","50","Hand.jpg","20"
"080819","14:00:24","9","9","5.0.14.0","2","142","trial1","naming","0","0","0","0","eiffel tower","0","4218","1","White_Screen.jpg","15","120","TowerEiffel.jpg","15"
"080819","14:00:24","9","9","5.0.14.0","2","143","trial1","naming","0","0","0","0","metal detector","0","4646","1","White_Screen.jpg","20","16","ScannerShoplifting.jpg","20"
"080819","14:00:24","9","9","5.0.14.0","2","144","trial1","naming","0","0","0","0","rocking horse","0","3795","1","White_Screen.jpg","14","53","Toy_RockingHorseBlack.jpg","14"
"080819","14:00:24","9","9","5.0.14.0","2","145","trial1","naming","0","0","0","0","bottle","0","3218","1","White_Screen.jpg","23","30","Bottle_Plastic.jpg","23"
"080819","14:00:24","9","9","5.0.14.0","2","146","trial1","naming","0","0","0","0","bread","0","2782","1","White_Screen.jpg","27","138","Bread_Carrot.jpg","27"
"080819","14:00:24","9","9","5.0.14.0","2","147","trial1","naming","0","0","0","0","child's shoe","0","4335","1","White_Screen.jpg","20","197","Shoe_Sneaker.jpg","20"
"080819","14:00:24","9","9","5.0.14.0","2","148","trial1","naming","0","0","0","0","glass bowl","0","3276","1","White_Screen.jpg","19","67","Bowl_Glass.jpg","19"
"080819","14:00:24","9","9","5.0.14.0","2","149","trial1","naming","0","0","0","0","bread","0","2650","1","White_Screen.jpg","23","156","Bread_Roll.jpg","23"
"080819","14:00:24","9","9","5.0.14.0","2","150","trial1","naming","0","0","0","0","conference table","0","5241","1","White_Screen.jpg","22","27","Table_Conference.jpg","22"
"080819","14:00:24","9","9","5.0.14.0","2","151","trial1","naming","0","0","0","0","comb","0","3209","1","White_Screen.jpg","15","98","Comb_1.jpg","15"
"080819","14:00:24","9","9","5.0.14.0","2","152","trial1","naming","0","0","0","0","gem","0","2472","1","White_Screen.jpg","14","6","Rock_Agate.jpg","14"
"080819","14:00:24","9","9","5.0.14.0","2","154","trial1","naming","0","0","0","0","fortune cookie","0","4631","1","White_Screen.jpg","9","107","FortuneCookie.jpg","9"
"080819","14:00:24","9","9","5.0.14.0","2","155","trial1","naming","0","0","0","0","driedel","0","6164","1","White_Screen.jpg","15","8","Dreidel.jpg","15"
"080819","14:00:24","9","9","5.0.14.0","2","156","trial1","naming","0","0","0","0","grinder","0","5147","1","White_Screen.jpg","23","38","ProcessorFood_Old.jpg","23"
"080819","14:00:24","9","9","5.0.14.0","2","157","trial1","naming","0","0","0","0","scooter","0","2899","1","White_Screen.jpg","21","169","Scooter.jpg","21"
"080819","14:00:24","9","9","5.0.14.0","2","158","trial1","naming","0","0","0","0","tape","0","2663","1","White_Screen.jpg","24","146","Tape_Scotch.jpg","24"
"080819","14:00:24","9","9","5.0.14.0","2","159","trial1","naming","0","0","0","0","fish brooch","0","5438","1","White_Screen.jpg","13","170","Brooch_Fish.jpg","13"
"080819","14:00:24","9","9","5.0.14.0","2","160","trial1","naming","0","0","0","0","wet floor sign","0","6014","1","White_Screen.jpg","15","188","Sign_Caution.jpg","15"
"080819","14:00:24","9","9","5.0.14.0","2","161","trial1","naming","0","0","0","0","rug","0","3933","1","White_Screen.jpg","44","22","Mat_Door.jpg","44"
"080819","14:00:24","9","9","5.0.14.0","2","162","trial1","naming","0","0","0","0","ruler","0","3133","1","White_Screen.jpg","24","126","Ruler_Wooden.jpg","24"
"080819","14:00:24","9","9","5.0.14.0","2","163","trial1","naming","0","0","0","0","periodic table","0","6275","1","White_Screen.jpg","14","178","PeriodicTable.jpg","14"
"080819","14:00:24","9","9","5.0.14.0","2","164","trial1","naming","0","0","0","0","pitcher","0","5199","1","White_Screen.jpg","21","192","MilkPitcher.jpg","21"
"080819","14:00:24","9","9","5.0.14.0","2","165","trial1","naming","0","0","0","0","hammer","0","4303","1","White_Screen.jpg","18","74","SledgeHammer.jpg","18"
"080819","14:00:24","9","9","5.0.14.0","2","166","trial1","naming","0","0","0","0","airplane","0","3228","1","White_Screen.jpg","19","133","Airplane_Commercial.jpg","19"
"080819","14:00:24","9","9","5.0.14.0","2","167","trial1","naming","0","0","0","0","hat","0","3179","1","White_Screen.jpg","22","87","Hat_Cowboy.jpg","22"
"080819","14:00:24","9","9","5.0.14.0","2","168","trial1","naming","0","0","0","0","track","0","2903","1","White_Screen.jpg","13","129","Toy_RaceTrack.jpg","13"
"080819","14:00:24","9","9","5.0.14.0","2","169","trial1","naming","0","0","0","0","water fountain","0","3762","1","White_Screen.jpg","20","127","WaterFountain.jpg","20"
"080819","14:00:24","9","9","5.0.14.0","2","170","trial1","naming","0","0","0","0","speaker","0","3449","1","White_Screen.jpg","15","176","Speakers_Theatre.jpg","15"
"080819","14:00:24","9","9","5.0.14.0","2","171","trial1","naming","0","0","0","0","crew socks","0","5635","1","White_Screen.jpg","31","162","Socks_Winter.jpg","31"
"080819","14:00:24","9","9","5.0.14.0","2","172","trial1","naming","0","0","0","0","juice box","0","3326","1","White_Screen.jpg","30","186","JuiceBox.jpg","30"
"080819","14:00:24","9","9","5.0.14.0","2","173","trial1","naming","0","0","0","0","gourd","0","3828","1","White_Screen.jpg","21","71","Squash_Pumpkin.jpg","21"
"080819","14:00:24","9","9","5.0.14.0","2","174","trial1","naming","0","0","0","0","heat lamp","0","3718","1","White_Screen.jpg","15","56","Heater_Outdoor.jpg","15"
"080819","14:00:24","9","9","5.0.14.0","2","175","trial1","naming","0","0","0","0","lemon","0","2860","1","White_Screen.jpg","19","191","Lemon.jpg","19"
"080819","14:00:24","9","9","5.0.14.0","2","176","trial1","naming","0","0","0","0","canister","0","4593","1","White_Screen.jpg","20","64","Canister_Tea.jpg","20"
"080819","14:00:24","9","9","5.0.14.0","2","177","trial1","naming","0","0","0","0","thermos","0","3029","1","White_Screen.jpg","14","115","Thermos_Decorated.jpg","14"
"080819","14:00:24","9","9","5.0.14.0","2","178","trial1","naming","0","0","0","0","ski gloves","0","3845","1","White_Screen.jpg","19","63","Gloves_Winter.jpg","19"
"080819","14:00:24","9","9","5.0.14.0","2","179","trial1","naming","0","0","0","0","butter knife","0","3517","1","White_Screen.jpg","19","154","Knife_Butter.jpg","19"
