"date","time","group","subject","build","blocknum","trialnum","blockcode","trialcode","pretrialpause","posttrialpause","trialduration","trialtimeout","response","correct","latency","stimulusnumber1","stimulusitem1","stimulusonset1","stimulusnumber2","stimulusitem2","stimulusonset2"
"022420","14:00:11","33","33","5.0.14.0","2","1","trial1","naming","0","0","0","0","toothbrushEnter Name","0","10000","1","White_Screen.jpg","24","83","ToothbrushHolder.jpg","24"
"022420","14:00:11","33","33","5.0.14.0","2","2","trial1","naming","0","0","0","0","knee","0","3965","1","White_Screen.jpg","9","181","Knee.jpg","9"
"022420","14:00:11","33","33","5.0.14.0","2","3","trial1","naming","0","0","0","0","jet ski","0","5732","1","White_Screen.jpg","12","58","Jetski.jpg","12"
"022420","14:00:11","33","33","5.0.14.0","2","4","trial1","naming","0","0","0","0","leaf","0","5844","1","White_Screen.jpg","12","160","Snowpea.jpg","12"
"022420","14:00:11","33","33","5.0.14.0","2","5","trial1","naming","0","0","0","0","chicken","0","3500","1","White_Screen.jpg","10","189","Toy_Chicken.jpg","10"
"022420","14:00:11","33","33","5.0.14.0","2","6","trial1","naming","0","0","0","0","spone","0","6812","1","White_Screen.jpg","12","98","Loofa.jpg","12"
"022420","14:00:11","33","33","5.0.14.0","2","7","trial1","naming","0","0","0","0","game","0","4291","1","White_Screen.jpg","11","106","Book_Paper.jpg","11"
"022420","14:00:11","33","33","5.0.14.0","2","8","trial1","naming","0","0","0","0","lady bug","0","4616","1","White_Screen.jpg","9","163","Ladybug.jpg","9"
"022420","14:00:11","33","33","5.0.14.0","2","9","trial1","naming","0","0","0","0","scisso","0","10000","1","White_Screen.jpg","13","52","Scissors.jpg","13"
"022420","14:00:11","33","33","5.0.14.0","2","10","trial1","naming","0","0","0","0","wand","0","3372","1","White_Screen.jpg","10","193","Cane_Wooden.jpg","10"
"022420","14:00:11","33","33","5.0.14.0","2","11","trial1","naming","0","0","0","0","ropeEnter Name","0","2139","1","White_Screen.jpg","11","179","Rope_Manila.jpg","11"
"022420","14:00:11","33","33","5.0.14.0","2","12","trial1","naming","0","0","0","0","buddhaEnter Name","0","2692","1","White_Screen.jpg","11","159","Statue_Buddha.jpg","11"
"022420","14:00:11","33","33","5.0.14.0","2","13","trial1","naming","0","0","0","0","shoeEnter Name","0","2697","1","White_Screen.jpg","10","113","Shoe_WomenHeals.jpg","10"
"022420","14:00:11","33","33","5.0.14.0","2","14","trial1","naming","0","0","0","0","mixerEnter Name","0","3507","1","White_Screen.jpg","11","55","HandMixer.jpg","11"
"022420","14:00:11","33","33","5.0.14.0","2","15","trial1","naming","0","0","0","0","sandal","0","9494","1","White_Screen.jpg","10","195","FlipFlop_PairBlue.jpg","10"
"022420","14:00:11","33","33","5.0.14.0","2","16","trial1","naming","0","0","0","0","buildingEnter Name","0","4025","1","White_Screen.jpg","9","166","Arch_Triomphe.jpg","9"
"022420","14:00:11","33","33","5.0.14.0","2","17","trial1","naming","0","0","0","0","sugarEnter Name","0","2411","1","White_Screen.jpg","14","135","Bowl_Sugar.jpg","14"
"022420","14:00:11","33","33","5.0.14.0","2","18","trial1","naming","0","0","0","0","heaterEnter Name","0","2707","1","White_Screen.jpg","12","56","Heater_ElectricPortable.jpg","12"
"022420","14:00:11","33","33","5.0.14.0","2","19","trial1","naming","0","0","0","0","chairEnter Name","0","3168","1","White_Screen.jpg","10","54","Chair_Car.jpg","10"
"022420","14:00:11","33","33","5.0.14.0","2","20","trial1","naming","0","0","0","0","drumsEnter Name","0","1808","1","White_Screen.jpg","11","147","Drum_Bongos.jpg","11"
"022420","14:00:11","33","33","5.0.14.0","2","21","trial1","naming","0","0","0","0","glassEnter Name","0","3334","1","White_Screen.jpg","10","134","Beaker.jpg","10"
"022420","14:00:11","33","33","5.0.14.0","2","22","trial1","naming","0","0","0","0","drinkEnter Name","0","2798","1","White_Screen.jpg","12","20","Drink_Cocktail.jpg","12"
"022420","14:00:11","33","33","5.0.14.0","2","23","trial1","naming","0","0","0","0","chariottEnter Name","0","3174","1","White_Screen.jpg","11","72","ChariotGold.jpg","11"
"022420","14:00:11","33","33","5.0.14.0","2","24","trial1","naming","0","0","0","0","adaptorEnter Name","0","2510","1","White_Screen.jpg","10","94","ConnectorPlug.jpg","10"
"022420","14:00:11","33","33","5.0.14.0","2","25","trial1","naming","0","0","0","0","cakeEnter Name","0","1512","1","White_Screen.jpg","11","101","Cake_Wedding.jpg","11"
"022420","14:00:11","33","33","5.0.14.0","2","26","trial1","naming","0","0","0","0","monitorEnter Name","0","5235","1","White_Screen.jpg","11","43","BloodpPresureCuff.jpg","11"
"022420","14:00:11","33","33","5.0.14.0","2","27","trial1","naming","0","0","0","0","carEnter Name","0","1254","1","White_Screen.jpg","12","127","Toy_Car.jpg","12"
"022420","14:00:11","33","33","5.0.14.0","2","28","trial1","naming","0","0","0","0","hockeyuEnter Name","0","2269","1","White_Screen.jpg","11","74","Hockey_Equipment.jpg","11"
"022420","14:00:11","33","33","5.0.14.0","2","29","trial1","naming","0","0","0","0","dollEnter Name","0","2744","1","White_Screen.jpg","12","132","PersonWooden.jpg","12"
"022420","14:00:11","33","33","5.0.14.0","2","30","trial1","naming","0","0","0","0","woodEnter Name","0","1551","1","White_Screen.jpg","14","48","Bark.jpg","14"
"022420","14:00:11","33","33","5.0.14.0","2","31","trial1","naming","0","0","0","0","cameraEnter Name","0","3043","1","White_Screen.jpg","10","162","Camera_Video.jpg","10"
"022420","14:00:11","33","33","5.0.14.0","2","32","trial1","naming","0","0","0","0","leashEnter Name","0","4419","1","White_Screen.jpg","10","150","DogLeash.jpg","10"
"022420","14:00:11","33","33","5.0.14.0","2","33","trial1","naming","0","0","0","0","basketballEnter Name","0","5583","1","White_Screen.jpg","11","152","BasketballHoop.jpg","11"
"022420","14:00:11","33","33","5.0.14.0","2","34","trial1","naming","0","0","0","0","towelEnter Name","0","1990","1","White_Screen.jpg","11","34","Towel.jpg","11"
"022420","14:00:11","33","33","5.0.14.0","2","35","trial1","naming","0","0","0","0","cologneEnter Name","0","4732","1","White_Screen.jpg","11","23","Box_Vials.jpg","11"
"022420","14:00:11","33","33","5.0.14.0","2","36","trial1","naming","0","0","0","0","spoonEnter Name","0","2150","1","White_Screen.jpg","11","38","Spoon_WoodenLight.jpg","11"
"022420","14:00:11","33","33","5.0.14.0","2","37","trial1","naming","0","0","0","0","crateEnter Name","0","6368","1","White_Screen.jpg","10","73","Crate_Milk.jpg","10"
"022420","14:00:11","33","33","5.0.14.0","2","38","trial1","naming","0","0","0","0","chocolateEnter Name","0","3448","1","White_Screen.jpg","8","175","ChocolateBar_HalfUnwrapped.jpg","8"
"022420","14:00:11","33","33","5.0.14.0","2","39","trial1","naming","0","0","0","0","endoEnter Name","0","7620","1","White_Screen.jpg","11","96","EyeExamDevice.jpg","11"
"022420","14:00:11","33","33","5.0.14.0","2","40","trial1","naming","0","0","0","0","bibEnter Name","0","2875","1","White_Screen.jpg","10","126","Bib.jpg","10"
"022420","14:00:11","33","33","5.0.14.0","2","41","trial1","naming","0","0","0","0","toothpasteEnter Name","0","3671","1","White_Screen.jpg","10","68","ToothPaste.jpg","10"
"022420","14:00:11","33","33","5.0.14.0","2","42","trial1","naming","0","0","0","0","fabric shaveEnter Name","0","7273","1","White_Screen.jpg","12","191","LintRemover.jpg","12"
"022420","14:00:11","33","33","5.0.14.0","2","43","trial1","naming","0","0","0","0","bucketEnter Name","0","2880","1","White_Screen.jpg","8","170","Bucket_WoodenLight.jpg","8"
"022420","14:00:11","33","33","5.0.14.0","2","44","trial1","naming","0","0","0","0","potatoe heaEnter Name","0","4016","1","White_Screen.jpg","11","59","Toy_MrPotatoHeadjpg.jpg","11"
"022420","14:00:11","33","33","5.0.14.0","2","45","trial1","naming","0","0","0","0","shedEnter Name","0","2902","1","White_Screen.jpg","10","155","House_Stone.jpg","10"
"022420","14:00:11","33","33","5.0.14.0","2","46","trial1","naming","0","0","0","0","brookEnter Name","0","2881","1","White_Screen.jpg","10","80","Broom_Short.jpg","10"
"022420","14:00:11","33","33","5.0.14.0","2","47","trial1","naming","0","0","0","0","trashcanEnter Name","0","3429","1","White_Screen.jpg","11","65","Garbage_Can.jpg","11"
"022420","14:00:11","33","33","5.0.14.0","2","48","trial1","naming","0","0","0","0","cutterEnter Name","0","4325","1","White_Screen.jpg","10","17","PizzaCutter.jpg","10"
"022420","14:00:11","33","33","5.0.14.0","2","49","trial1","naming","0","0","0","0","hammerEnter Name","0","2172","1","White_Screen.jpg","11","1","Hammer.jpg","11"
"022420","14:00:11","33","33","5.0.14.0","2","50","trial1","naming","0","0","0","0","winnieEnter Name","0","3981","1","White_Screen.jpg","10","153","Toy_WinnieThePooh.jpg","10"
"022420","14:00:11","33","33","5.0.14.0","2","52","trial1","naming","0","0","0","0","cartEnter Name","0","3697","1","White_Screen.jpg","13","63","ShoppingCart.jpg","13"
"022420","14:00:11","33","33","5.0.14.0","2","53","trial1","naming","0","0","0","0","sphynxEnter Name","0","5430","1","White_Screen.jpg","11","88","PharoahReplica.jpg","11"
"022420","14:00:11","33","33","5.0.14.0","2","54","trial1","naming","0","0","0","0","cuffsEnter Name","0","2213","1","White_Screen.jpg","10","120","Handcuffs.jpg","10"
"022420","14:00:11","33","33","5.0.14.0","2","55","trial1","naming","0","0","0","0","cageEnter Name","0","3571","1","White_Screen.jpg","10","39","Cage_Hamster.jpg","10"
"022420","14:00:11","33","33","5.0.14.0","2","56","trial1","naming","0","0","0","0","ballEnter Name","0","1905","1","White_Screen.jpg","12","37","Ball_Tennis.jpg","12"
"022420","14:00:11","33","33","5.0.14.0","2","57","trial1","naming","0","0","0","0","back packEnter Name","0","3309","1","White_Screen.jpg","11","188","Bag_String.jpg","11"
"022420","14:00:11","33","33","5.0.14.0","2","58","trial1","naming","0","0","0","0","stamperEnter Name","0","2857","1","White_Screen.jpg","10","157","Stamper.jpg","10"
"022420","14:00:11","33","33","5.0.14.0","2","59","trial1","naming","0","0","0","0","cookerEnter Name","0","3797","1","White_Screen.jpg","10","139","RiceCooker.jpg","10"
"022420","14:00:11","33","33","5.0.14.0","2","60","trial1","naming","0","0","0","0","bellEnter Name","0","1875","1","White_Screen.jpg","10","26","Bell_Hand.jpg","10"
"022420","14:00:11","33","33","5.0.14.0","2","61","trial1","naming","0","0","0","0","toyEnter Name","0","2958","1","White_Screen.jpg","12","41","Toy_Tractor_1.jpg","12"
"022420","14:00:11","33","33","5.0.14.0","2","62","trial1","naming","0","0","0","0","leafEnter Name","0","2082","1","White_Screen.jpg","10","151","Lilypad.jpg","10"
"022420","14:00:11","33","33","5.0.14.0","2","63","trial1","naming","0","0","0","0","puzzleEnter Name","0","3451","1","White_Screen.jpg","12","69","Puzzle_Piece.jpg","12"
"022420","14:00:11","33","33","5.0.14.0","2","64","trial1","naming","0","0","0","0","tagEnter Name","0","1985","1","White_Screen.jpg","11","31","Tag_Identifier.jpg","11"
"022420","14:00:11","33","33","5.0.14.0","2","65","trial1","naming","0","0","0","0","flip flopEnter Name","0","3319","1","White_Screen.jpg","12","158","FlipFlop_SingleRed.jpg","12"
"022420","14:00:11","33","33","5.0.14.0","2","66","trial1","naming","0","0","0","0","stumpEnter Name","0","2400","1","White_Screen.jpg","12","14","TreeStump.jpg","12"
"022420","14:00:11","33","33","5.0.14.0","2","67","trial1","naming","0","0","0","0","eraserEnter Name","0","4353","1","White_Screen.jpg","10","117","ChalkboardEraser.jpg","10"
"022420","14:00:11","33","33","5.0.14.0","2","68","trial1","naming","0","0","0","0","cowEnter Name","0","3205","1","White_Screen.jpg","13","183","Origami_Ox.jpg","13"
"022420","14:00:11","33","33","5.0.14.0","2","69","trial1","naming","0","0","0","0","pinEnter Name","0","4984","1","White_Screen.jpg","11","136","Clothespin_Beige.jpg","11"
"022420","14:00:11","33","33","5.0.14.0","2","70","trial1","naming","0","0","0","0","shedEnter Name","0","2101","1","White_Screen.jpg","13","164","House_Rural.jpg","13"
"022420","14:00:11","33","33","5.0.14.0","2","71","trial1","naming","0","0","0","0","crackerEnter Name","0","3154","1","White_Screen.jpg","12","172","Cracker_Saltine.jpg","12"
"022420","14:00:11","33","33","5.0.14.0","2","72","trial1","naming","0","0","0","0","poolEnter Name","0","2435","1","White_Screen.jpg","10","84","KiddiePool.jpg","10"
"022420","14:00:11","33","33","5.0.14.0","2","73","trial1","naming","0","0","0","0","cookerEnter Name","0","2968","1","White_Screen.jpg","10","143","Machine_Bread.jpg","10"
"022420","14:00:11","33","33","5.0.14.0","2","74","trial1","naming","0","0","0","0","toyEnter Name","0","3990","1","White_Screen.jpg","11","184","Noisemaker_Streamers.jpg","11"
"022420","14:00:11","33","33","5.0.14.0","2","75","trial1","naming","0","0","0","0","gaugeEnter Name","0","3431","1","White_Screen.jpg","12","32","Gauge.jpg","12"
"022420","14:00:11","33","33","5.0.14.0","2","76","trial1","naming","0","0","0","0","deerEnter Name","0","3946","1","White_Screen.jpg","13","130","Caribou.jpg","13"
"022420","14:00:11","33","33","5.0.14.0","2","77","trial1","naming","0","0","0","0","dollyEnter Name","0","2404","1","White_Screen.jpg","10","99","Dolly.jpg","10"
"022420","14:00:11","33","33","5.0.14.0","2","78","trial1","naming","0","0","0","0","jeansEnter Name","0","2099","1","White_Screen.jpg","11","42","Pants_Jeans.jpg","11"
"022420","14:00:11","33","33","5.0.14.0","2","79","trial1","naming","0","0","0","0","golf ballEnter Name","0","3136","1","White_Screen.jpg","9","104","Ball_Golf.jpg","9"
"022420","14:00:11","33","33","5.0.14.0","2","80","trial1","naming","0","0","0","0","towelEnter Name","0","1759","1","White_Screen.jpg","11","36","Rag.jpg","11"
"022420","14:00:11","33","33","5.0.14.0","2","81","trial1","naming","0","0","0","0","lensEnter Name","0","2799","1","White_Screen.jpg","11","45","Lens_Camera.jpg","11"
"022420","14:00:11","33","33","5.0.14.0","2","82","trial1","naming","0","0","0","0","bellEnter Name","0","2184","1","White_Screen.jpg","9","124","FireAlarm.jpg","9"
"022420","14:00:11","33","33","5.0.14.0","2","83","trial1","naming","0","0","0","0","trainEnter Name","0","2478","1","White_Screen.jpg","10","196","Locomotive.jpg","10"
"022420","14:00:11","33","33","5.0.14.0","2","84","trial1","naming","0","0","0","0","carEnter Name","0","2572","1","White_Screen.jpg","10","97","Toy_PoliceCar.jpg","10"
"022420","14:00:11","33","33","5.0.14.0","2","85","trial1","naming","0","0","0","0","bagEnter Name","0","4705","1","White_Screen.jpg","12","75","PencilCase.jpg","12"
"022420","14:00:11","33","33","5.0.14.0","2","86","trial1","naming","0","0","0","0","machineEnter Name","0","2677","1","White_Screen.jpg","11","76","Stepper.jpg","11"
"022420","14:00:11","33","33","5.0.14.0","2","87","trial1","naming","0","0","0","0","fluteEnter Name","0","2289","1","White_Screen.jpg","10","57","Flute_Wooden.jpg","10"
"022420","14:00:11","33","33","5.0.14.0","2","88","trial1","naming","0","0","0","0","couchEnter Name","0","1885","1","White_Screen.jpg","11","168","Loveseat.jpg","11"
"022420","14:00:11","33","33","5.0.14.0","2","89","trial1","naming","0","0","0","0","VHSEnter Name","0","8207","1","White_Screen.jpg","11","13","Cassette_Video.jpg","11"
"022420","14:00:11","33","33","5.0.14.0","2","90","trial1","naming","0","0","0","0","toolEnter Name","0","2549","1","White_Screen.jpg","10","199","LeatherPuncherTool.jpg","10"
"022420","14:00:11","33","33","5.0.14.0","2","91","trial1","naming","0","0","0","0","briefcaseEnter Name","0","7928","1","White_Screen.jpg","10","165","Briefcase_Silver.jpg","10"
"022420","14:00:11","33","33","5.0.14.0","2","92","trial1","naming","0","0","0","0","brushEnter Name","0","3753","1","White_Screen.jpg","8","95","Brush_Makeup.jpg","8"
"022420","14:00:11","33","33","5.0.14.0","2","93","trial1","naming","0","0","0","0","fruitEnter Name","0","3303","1","White_Screen.jpg","11","154","OrangeBlood.jpg","11"
"022420","14:00:11","33","33","5.0.14.0","2","94","trial1","naming","0","0","0","0","gloveEnter Name","0","1617","1","White_Screen.jpg","11","182","Glove_Rubber.jpg","11"
"022420","14:00:11","33","33","5.0.14.0","2","95","trial1","naming","0","0","0","0","leafEnter Name","0","1287","1","White_Screen.jpg","11","108","Leaf_Yellow.jpg","11"
"022420","14:00:11","33","33","5.0.14.0","2","96","trial1","naming","0","0","0","0","triangleEnter Name","0","2946","1","White_Screen.jpg","12","92","Triangle.jpg","12"
"022420","14:00:11","33","33","5.0.14.0","2","97","trial1","naming","0","0","0","0","Enter Name","0","5180","1","White_Screen.jpg","10","144","PaperCutter.jpg","10"
"022420","14:00:11","33","33","5.0.14.0","2","98","trial1","naming","0","0","0","0","oilerEnter Name","0","3274","1","White_Screen.jpg","12","62","Can_OilSpout.jpg","12"
"022420","14:00:11","33","33","5.0.14.0","2","99","trial1","naming","0","0","0","0","pokerEnter Name","0","3329","1","White_Screen.jpg","10","141","ToothPick.jpg","10"
"022420","14:00:11","33","33","5.0.14.0","2","100","trial1","naming","0","0","0","0","dusterEnter Name","0","2769","1","White_Screen.jpg","10","35","DusterFeather.jpg","10"
"022420","14:00:11","33","33","5.0.14.0","2","101","trial1","naming","0","0","0","0","benchEnter Name","0","2784","1","White_Screen.jpg","11","109","Bench_Park.jpg","11"
"022420","14:00:11","33","33","5.0.14.0","2","103","trial1","naming","0","0","0","0","serverEnter Name","0","7865","1","White_Screen.jpg","10","64","TelephoneSwitchboard.jpg","10"
"022420","14:00:11","33","33","5.0.14.0","2","104","trial1","naming","0","0","0","0","wheelEnter Name","0","2676","1","White_Screen.jpg","10","2","BicycleWheelRusty.jpg","10"
"022420","14:00:11","33","33","5.0.14.0","2","105","trial1","naming","0","0","0","0","bowling ballEnter Name","0","3324","1","White_Screen.jpg","15","49","Ball_Bowling.jpg","15"
"022420","14:00:11","33","33","5.0.14.0","2","106","trial1","naming","0","0","0","0","bikeEnter Name","0","6017","1","White_Screen.jpg","11","40","Exercise_Bike.jpg","11"
"022420","14:00:11","33","33","5.0.14.0","2","107","trial1","naming","0","0","0","0","folderEnter Name","0","2873","1","White_Screen.jpg","9","100","Binder.jpg","9"
"022420","14:00:11","33","33","5.0.14.0","2","108","trial1","naming","0","0","0","0","doorEnter Name","0","6314","1","White_Screen.jpg","12","123","Door_Green.jpg","12"
"022420","14:00:11","33","33","5.0.14.0","2","109","trial1","naming","0","0","0","0","knifeEnter Name","0","1509","1","White_Screen.jpg","10","119","Knife_Hunting.jpg","10"
"022420","14:00:11","33","33","5.0.14.0","2","110","trial1","naming","0","0","0","0","screwEnter Name","0","1703","1","White_Screen.jpg","11","149","Bolt.jpg","11"
"022420","14:00:11","33","33","5.0.14.0","2","111","trial1","naming","0","0","0","0","playerEnter Name","0","8931","1","White_Screen.jpg","10","9","Radio_Modern.jpg","10"
"022420","14:00:11","33","33","5.0.14.0","2","112","trial1","naming","0","0","0","0","spokesEnter Name","0","4117","1","White_Screen.jpg","10","102","BicycleGear.jpg","10"
"022420","14:00:11","33","33","5.0.14.0","2","113","trial1","naming","0","0","0","0","stageEnter Name","0","6092","1","White_Screen.jpg","11","71","PuppetTheatre_WhiteGold.jpg","11"
"022420","14:00:11","33","33","5.0.14.0","2","114","trial1","naming","0","0","0","0","moneyEnter Name","0","4264","1","White_Screen.jpg","9","122","MoneyBill50.jpg","9"
"022420","14:00:11","33","33","5.0.14.0","2","115","trial1","naming","0","0","0","0","corkEnter Name","0","2204","1","White_Screen.jpg","10","121","Cork.jpg","10"
"022420","14:00:11","33","33","5.0.14.0","2","116","trial1","naming","0","0","0","0","filmEnter Name","0","1867","1","White_Screen.jpg","11","131","Film_Roll.jpg","11"
"022420","14:00:11","33","33","5.0.14.0","2","117","trial1","naming","0","0","0","0","cubbyEnter Name","0","6015","1","White_Screen.jpg","11","30","Stationary.jpg","11"
"022420","14:00:11","33","33","5.0.14.0","2","118","trial1","naming","0","0","0","0","hatEnter Name","0","2102","1","White_Screen.jpg","9","198","Hat_Feather.jpg","9"
"022420","14:00:11","33","33","5.0.14.0","2","119","trial1","naming","0","0","0","0","armEnter Name","0","1421","1","White_Screen.jpg","13","137","Arm.jpg","13"
"022420","14:00:11","33","33","5.0.14.0","2","120","trial1","naming","0","0","0","0","glueEnter Name","0","6340","1","White_Screen.jpg","11","46","Tube_Glue.jpg","11"
"022420","14:00:11","33","33","5.0.14.0","2","121","trial1","naming","0","0","0","0","bottleEnter Name","0","2054","1","White_Screen.jpg","8","194","Bottle_Baby.jpg","8"
"022420","14:00:11","33","33","5.0.14.0","2","122","trial1","naming","0","0","0","0","hammerEnter Name","0","2992","1","White_Screen.jpg","11","47","MalletJudge.jpg","11"
"022420","14:00:11","33","33","5.0.14.0","2","123","trial1","naming","0","0","0","0","Enter Name","0","4912","1","White_Screen.jpg","10","93","Instrument_African.jpg","10"
"022420","14:00:11","33","33","5.0.14.0","2","124","trial1","naming","0","0","0","0","sateliteEnter Name","0","3251","1","White_Screen.jpg","10","148","TelescopeSpacecraft.jpg","10"
"022420","14:00:11","33","33","5.0.14.0","2","125","trial1","naming","0","0","0","0","knee braceEnter Name","0","7857","1","White_Screen.jpg","9","33","ShinPads.jpg","9"
"022420","14:00:11","33","33","5.0.14.0","2","126","trial1","naming","0","0","0","0","oilEnter Name","0","2315","1","White_Screen.jpg","10","29","Bottle_Oil.jpg","10"
"022420","14:00:11","33","33","5.0.14.0","2","127","trial1","naming","0","0","0","0","fenceEnter Name","0","1565","1","White_Screen.jpg","11","129","Fence_ChainLink.jpg","11"
"022420","14:00:11","33","33","5.0.14.0","2","128","trial1","naming","0","0","0","0","tacoEnter Name","0","2551","1","White_Screen.jpg","11","177","Taco.jpg","11"
"022420","14:00:11","33","33","5.0.14.0","2","129","trial1","naming","0","0","0","0","Enter Name","0","6438","1","White_Screen.jpg","10","86","Toblerone.jpg","10"
"022420","14:00:11","33","33","5.0.14.0","2","130","trial1","naming","0","0","0","0","motorcycleEnter Name","0","4507","1","White_Screen.jpg","9","90","Motorcycle.jpg","9"
"022420","14:00:11","33","33","5.0.14.0","2","131","trial1","naming","0","0","0","0","Enter Name","0","10000","1","White_Screen.jpg","10","118","Toy_Lighthouse.jpg","10"
"022420","14:00:11","33","33","5.0.14.0","2","132","trial1","naming","0","0","0","0","Enter Name","0","10000","1","White_Screen.jpg","11","15","BoxTrailer.jpg","11"
"022420","14:00:11","33","33","5.0.14.0","2","133","trial1","naming","0","0","0","0","Ctrl+'Q'","1","7881","1","White_Screen.jpg","10","110","Mirror_Makeup.jpg","10"
"022420","14:04:52","35","35","5.0.14.0","2","1","trial1","naming","0","0","0","0","crackerEnter Name","0","4744","1","White_Screen.jpg","38","172","Cracker_Saltine.jpg","38"
"022420","14:04:52","35","35","5.0.14.0","2","2","trial1","naming","0","0","0","0","stepping Enter Name","0","10000","1","White_Screen.jpg","7","76","Stepper.jpg","7"
"022420","14:04:52","35","35","5.0.14.0","2","3","trial1","naming","0","0","0","0","jetskiEnter Name","0","5050","1","White_Screen.jpg","9","58","Jetski.jpg","9"
"022420","14:04:52","35","35","5.0.14.0","2","4","trial1","naming","0","0","0","0","satelliteEnter Name","0","3658","1","White_Screen.jpg","7","148","TelescopeSpacecraft.jpg","7"
"022420","14:04:52","35","35","5.0.14.0","2","5","trial1","naming","0","0","0","0","fenceEnter Name","0","2095","1","White_Screen.jpg","6","129","Fence_ChainLink.jpg","6"
"022420","14:04:52","35","35","5.0.14.0","2","6","trial1","naming","0","0","0","0","sewing machine","0","5067","1","White_Screen.jpg","8","50","SewingMachine.jpg","8"
"022420","14:04:52","35","35","5.0.14.0","2","7","trial1","naming","0","0","0","0","drum","0","3415","1","White_Screen.jpg","8","7","Drum_Brazilan.jpg","8"
"022420","14:04:52","35","35","5.0.14.0","2","8","trial1","naming","0","0","0","0","lillypad","0","4743","1","White_Screen.jpg","7","151","Lilypad.jpg","7"
"022420","14:04:52","35","35","5.0.14.0","2","9","trial1","naming","0","0","0","0","chocolateEnter Name","0","3036","1","White_Screen.jpg","8","86","Toblerone.jpg","8"
"022420","14:04:52","35","35","5.0.14.0","2","10","trial1","naming","0","0","0","0","wineEnter Name","0","1706","1","White_Screen.jpg","8","91","Crate_Wine.jpg","8"
"022420","14:04:52","35","35","5.0.14.0","2","11","trial1","naming","0","0","0","0","bread makeEnter Name","0","4788","1","White_Screen.jpg","6","143","Machine_Bread.jpg","6"
"022420","14:04:52","35","35","5.0.14.0","2","12","trial1","naming","0","0","0","0","mooseEnter Name","0","2669","1","White_Screen.jpg","7","130","Caribou.jpg","7"
"022420","14:04:52","35","35","5.0.14.0","2","13","trial1","naming","0","0","0","0","hatEnter Name","0","1881","1","White_Screen.jpg","8","198","Hat_Feather.jpg","8"
"022420","14:04:52","35","35","5.0.14.0","2","14","trial1","naming","0","0","0","0","decorationEnter Name","0","4114","1","White_Screen.jpg","9","12","Lantern_Chinese.jpg","9"
"022420","14:04:52","35","35","5.0.14.0","2","15","trial1","naming","0","0","0","0","jackolanternEnter Name","0","5325","1","White_Screen.jpg","6","161","Bucket_Halloween.jpg","6"
"022420","14:04:52","35","35","5.0.14.0","2","16","trial1","naming","0","0","0","0","maskEnter Name","0","1496","1","White_Screen.jpg","6","133","Mask_VenetianLongNose.jpg","6"
"022420","14:04:52","35","35","5.0.14.0","2","17","trial1","naming","0","0","0","0","trashcanEnter Name","0","2627","1","White_Screen.jpg","8","65","Garbage_Can.jpg","8"
"022420","14:04:52","35","35","5.0.14.0","2","18","trial1","naming","0","0","0","0","streamerEnter Name","0","4913","1","White_Screen.jpg","9","184","Noisemaker_Streamers.jpg","9"
"022420","14:04:52","35","35","5.0.14.0","2","19","trial1","naming","0","0","0","0","birdEnter Name","0","1379","1","White_Screen.jpg","9","156","Bird_Tern.jpg","9"
"022420","14:04:52","35","35","5.0.14.0","2","20","trial1","naming","0","0","0","0","oarEnter Name","0","1526","1","White_Screen.jpg","9","16","Paddle_Canoe.jpg","9"
"022420","14:04:52","35","35","5.0.14.0","2","21","trial1","naming","0","0","0","0","gloveEnter Name","0","1553","1","White_Screen.jpg","8","173","Glove_Baseball.jpg","8"
"022420","14:04:52","35","35","5.0.14.0","2","22","trial1","naming","0","0","0","0","oil lampEnter Name","0","4024","1","White_Screen.jpg","7","178","Candleholder_LampShaped.jpg","7"
"022420","14:04:52","35","35","5.0.14.0","2","23","trial1","naming","0","0","0","0","boomboxEnter Name","0","2252","1","White_Screen.jpg","9","9","Radio_Modern.jpg","9"
"022420","14:04:52","35","35","5.0.14.0","2","24","trial1","naming","0","0","0","0","branchEnter Name","0","2401","1","White_Screen.jpg","6","111","Branch.jpg","6"
"022420","14:04:52","35","35","5.0.14.0","2","25","trial1","naming","0","0","0","0","stickEnter Name","0","2304","1","White_Screen.jpg","9","193","Cane_Wooden.jpg","9"
"022420","14:04:52","35","35","5.0.14.0","2","26","trial1","naming","0","0","0","0","knifeEnter Name","0","1444","1","White_Screen.jpg","6","119","Knife_Hunting.jpg","6"
"022420","14:04:52","35","35","5.0.14.0","2","27","trial1","naming","0","0","0","0","filmEnter Name","0","1953","1","White_Screen.jpg","7","131","Film_Roll.jpg","7"
"022420","14:04:52","35","35","5.0.14.0","2","28","trial1","naming","0","0","0","0","benchEnter Name","0","1622","1","White_Screen.jpg","9","109","Bench_Park.jpg","9"
"022420","14:04:52","35","35","5.0.14.0","2","29","trial1","naming","0","0","0","0","truckEnter Name","0","2062","1","White_Screen.jpg","8","114","Truck_Box.jpg","8"
"022420","14:04:52","35","35","5.0.14.0","2","30","trial1","naming","0","0","0","0","toothpastEnter Name","0","1962","1","White_Screen.jpg","7","68","ToothPaste.jpg","7"
"022420","14:04:52","35","35","5.0.14.0","2","31","trial1","naming","0","0","0","0","unknownEnter Name","0","3294","1","White_Screen.jpg","8","167","Autocreeper.jpg","8"
"022420","14:04:52","35","35","5.0.14.0","2","32","trial1","naming","0","0","0","0","chocolateEnter Name","0","2322","1","White_Screen.jpg","8","175","ChocolateBar_HalfUnwrapped.jpg","8"
"022420","14:04:52","35","35","5.0.14.0","2","33","trial1","naming","0","0","0","0","organizerEnter Name","0","2336","1","White_Screen.jpg","8","30","Stationary.jpg","8"
"022420","14:04:52","35","35","5.0.14.0","2","34","trial1","naming","0","0","0","0","armEnter Name","0","1502","1","White_Screen.jpg","7","137","Arm.jpg","7"
"022420","14:04:52","35","35","5.0.14.0","2","35","trial1","naming","0","0","0","0","flipflopEnter Name","0","3767","1","White_Screen.jpg","8","158","FlipFlop_SingleRed.jpg","8"
"022420","14:04:52","35","35","5.0.14.0","2","36","trial1","naming","0","0","0","0","grillEnter Name","0","1909","1","White_Screen.jpg","6","128","Barbecue_Charcoal.jpg","6"
"022420","14:04:52","35","35","5.0.14.0","2","37","trial1","naming","0","0","0","0","police carEnter Name","0","2486","1","White_Screen.jpg","7","97","Toy_PoliceCar.jpg","7"
"022420","14:04:52","35","35","5.0.14.0","2","38","trial1","naming","0","0","0","0","mannequinEnter Name","0","2407","1","White_Screen.jpg","8","132","PersonWooden.jpg","8"
"022420","14:04:52","35","35","5.0.14.0","2","39","trial1","naming","0","0","0","0","triangleEnter Name","0","2935","1","White_Screen.jpg","6","92","Triangle.jpg","6"
"022420","14:04:52","35","35","5.0.14.0","2","40","trial1","naming","0","0","0","0","mr potatoheEnter Name","0","3103","1","White_Screen.jpg","7","59","Toy_MrPotatoHeadjpg.jpg","7"
"022420","14:04:52","35","35","5.0.14.0","2","41","trial1","naming","0","0","0","0","fluteEnter Name","0","2312","1","White_Screen.jpg","8","57","Flute_Wooden.jpg","8"
"022420","14:04:52","35","35","5.0.14.0","2","42","trial1","naming","0","0","0","0","gavelEnter Name","0","1648","1","White_Screen.jpg","10","47","MalletJudge.jpg","10"
"022420","14:04:52","35","35","5.0.14.0","2","43","trial1","naming","0","0","0","0","helmetEnter Name","0","2607","1","White_Screen.jpg","8","145","Helmet_Motorcycle.jpg","8"
"022420","14:04:52","35","35","5.0.14.0","2","44","trial1","naming","0","0","0","0","sheepEnter Name","0","2333","1","White_Screen.jpg","7","27","Sheep.jpg","7"
"022420","14:04:52","35","35","5.0.14.0","2","45","trial1","naming","0","0","0","0","vhsEnter Name","0","3489","1","White_Screen.jpg","8","13","Cassette_Video.jpg","8"
"022420","14:04:52","35","35","5.0.14.0","2","46","trial1","naming","0","0","0","0","oil canEnter Name","0","2512","1","White_Screen.jpg","7","62","Can_OilSpout.jpg","7"
"022420","14:04:52","35","35","5.0.14.0","2","47","trial1","naming","0","0","0","0","walkerEnter Name","0","2114","1","White_Screen.jpg","7","125","Walker_Silver.jpg","7"
"022420","14:04:52","35","35","5.0.14.0","2","48","trial1","naming","0","0","0","0","lighthouseEnter Name","0","1984","1","White_Screen.jpg","10","118","Toy_Lighthouse.jpg","10"
"022420","14:04:52","35","35","5.0.14.0","2","49","trial1","naming","0","0","0","0","toolboxEnter Name","0","2492","1","White_Screen.jpg","7","82","Toolbox_RedOpen.jpg","7"
"022420","14:04:52","35","35","5.0.14.0","2","50","trial1","naming","0","0","0","0","toothbrush lEnter Name","0","3483","1","White_Screen.jpg","6","83","ToothbrushHolder.jpg","6"
"022420","14:04:52","35","35","5.0.14.0","2","52","trial1","naming","0","0","0","0","don't knowEnter Name","0","4013","1","White_Screen.jpg","7","64","TelephoneSwitchboard.jpg","7"
"022420","14:04:52","35","35","5.0.14.0","2","53","trial1","naming","0","0","0","0","pencil bagEnter Name","0","3070","1","White_Screen.jpg","11","75","PencilCase.jpg","11"
"022420","14:04:52","35","35","5.0.14.0","2","54","trial1","naming","0","0","0","0","chickenEnter Name","0","2045","1","White_Screen.jpg","8","189","Toy_Chicken.jpg","8"
"022420","14:04:52","35","35","5.0.14.0","2","55","trial1","naming","0","0","0","0","winnie the pEnter Name","0","2844","1","White_Screen.jpg","8","153","Toy_WinnieThePooh.jpg","8"
"022420","14:04:52","35","35","5.0.14.0","2","56","trial1","naming","0","0","0","0","gaugeEnter Name","0","2365","1","White_Screen.jpg","8","32","Gauge.jpg","8"
"022420","14:04:52","35","35","5.0.14.0","2","57","trial1","naming","0","0","0","0","stampEnter Name","0","2350","1","White_Screen.jpg","8","157","Stamper.jpg","8"
"022420","14:04:52","35","35","5.0.14.0","2","58","trial1","naming","0","0","0","0","rakeEnter Name","0","1334","1","White_Screen.jpg","7","19","Rake_Long.jpg","7"
"022420","14:04:52","35","35","5.0.14.0","2","59","trial1","naming","0","0","0","0","binderEnter Name","0","2065","1","White_Screen.jpg","8","100","Binder.jpg","8"
"022420","14:04:52","35","35","5.0.14.0","2","60","trial1","naming","0","0","0","0","bookshelfEnter Name","0","2619","1","White_Screen.jpg","9","171","BookShelf.jpg","9"
"022420","14:04:52","35","35","5.0.14.0","2","61","trial1","naming","0","0","0","0","dusterEnter Name","0","1960","1","White_Screen.jpg","7","35","DusterFeather.jpg","7"
"022420","14:04:52","35","35","5.0.14.0","2","62","trial1","naming","0","0","0","0","engineEnter Name","0","4914","1","White_Screen.jpg","6","196","Locomotive.jpg","6"
"022420","14:04:52","35","35","5.0.14.0","2","63","trial1","naming","0","0","0","0","coneEnter Name","0","2024","1","White_Screen.jpg","9","197","IceCreamCone.jpg","9"
"022420","14:04:52","35","35","5.0.14.0","2","64","trial1","naming","0","0","0","0","motorcycleEnter Name","0","3003","1","White_Screen.jpg","7","90","Motorcycle.jpg","7"
"022420","14:04:52","35","35","5.0.14.0","2","65","trial1","naming","0","0","0","0","bottleEnter Name","0","1707","1","White_Screen.jpg","7","194","Bottle_Baby.jpg","7"
"022420","14:04:52","35","35","5.0.14.0","2","66","trial1","naming","0","0","0","0","pearEnter Name","0","1757","1","White_Screen.jpg","8","5","Mango.jpg","8"
"022420","14:04:52","35","35","5.0.14.0","2","67","trial1","naming","0","0","0","0","dutch ovenEnter Name","0","4593","1","White_Screen.jpg","8","186","Pot_Crock.jpg","8"
"022420","14:04:52","35","35","5.0.14.0","2","68","trial1","naming","0","0","0","0","bowtieEnter Name","0","1749","1","White_Screen.jpg","7","28","Bowtie.jpg","7"
"022420","14:04:52","35","35","5.0.14.0","2","69","trial1","naming","0","0","0","0","flipflopsEnter Name","0","2122","1","White_Screen.jpg","7","195","FlipFlop_PairBlue.jpg","7"
"022420","14:04:52","35","35","5.0.14.0","2","70","trial1","naming","0","0","0","0","buttonEnter Name","0","1630","1","White_Screen.jpg","8","138","Button.jpg","8"
"022420","14:04:52","35","35","5.0.14.0","2","71","trial1","naming","0","0","0","0","towelEnter Name","0","1707","1","White_Screen.jpg","8","34","Towel.jpg","8"
"022420","14:04:52","35","35","5.0.14.0","2","72","trial1","naming","0","0","0","0","hole puncheEnter Name","0","3210","1","White_Screen.jpg","8","22","Oneholepunch.jpg","8"
"022420","14:04:52","35","35","5.0.14.0","2","73","trial1","naming","0","0","0","0","test tubesEnter Name","0","3499","1","White_Screen.jpg","7","25","TestTube_MultipleAndRack.jpg","7"
"022420","14:04:52","35","35","5.0.14.0","2","74","trial1","naming","0","0","0","0","grillEnter Name","0","1688","1","White_Screen.jpg","6","18","Barbecue_Gas.jpg","6"
"022420","14:04:52","35","35","5.0.14.0","2","75","trial1","naming","0","0","0","0","kneepadsEnter Name","0","3126","1","White_Screen.jpg","8","33","ShinPads.jpg","8"
"022420","14:04:52","35","35","5.0.14.0","2","76","trial1","naming","0","0","0","0","couchEnter Name","0","1813","1","White_Screen.jpg","7","168","Loveseat.jpg","7"
"022420","14:04:52","35","35","5.0.14.0","2","77","trial1","naming","0","0","0","0","scissorsEnter Name","0","2119","1","White_Screen.jpg","7","52","Scissors.jpg","7"
"022420","14:04:52","35","35","5.0.14.0","2","78","trial1","naming","0","0","0","0","leafEnter Name","0","1325","1","White_Screen.jpg","7","108","Leaf_Yellow.jpg","7"
"022420","14:04:52","35","35","5.0.14.0","2","79","trial1","naming","0","0","0","0","luggage tagEnter Name","0","3064","1","White_Screen.jpg","6","31","Tag_Identifier.jpg","6"
"022420","14:04:52","35","35","5.0.14.0","2","80","trial1","naming","0","0","0","0","wheelEnter Name","0","5191","1","White_Screen.jpg","9","85","BicycleChain.jpg","9"
"022420","14:04:52","35","35","5.0.14.0","2","81","trial1","naming","0","0","0","0","exercise bikEnter Name","0","3031","1","White_Screen.jpg","7","40","Exercise_Bike.jpg","7"
"022420","14:04:52","35","35","5.0.14.0","2","82","trial1","naming","0","0","0","0","doorEnter Name","0","1453","1","White_Screen.jpg","8","123","Door_Green.jpg","8"
"022420","14:04:52","35","35","5.0.14.0","2","83","trial1","naming","0","0","0","0","mirrorEnter Name","0","1605","1","White_Screen.jpg","8","110","Mirror_Makeup.jpg","8"
"022420","14:04:52","35","35","5.0.14.0","2","84","trial1","naming","0","0","0","0","ice bucketEnter Name","0","2593","1","White_Screen.jpg","6","4","Bucket_Ice.jpg","6"
"022420","14:04:52","35","35","5.0.14.0","2","85","trial1","naming","0","0","0","0","cribEnter Name","0","1598","1","White_Screen.jpg","8","146","Playard.jpg","8"
"022420","14:04:52","35","35","5.0.14.0","2","86","trial1","naming","0","0","0","0","dollyEnter Name","0","2769","1","White_Screen.jpg","9","99","Dolly.jpg","9"
"022420","14:04:52","35","35","5.0.14.0","2","87","trial1","naming","0","0","0","0","oragamiEnter Name","0","2819","1","White_Screen.jpg","7","183","Origami_Ox.jpg","7"
"022420","14:04:52","35","35","5.0.14.0","2","88","trial1","naming","0","0","0","0","don't knowEnter Name","0","3801","1","White_Screen.jpg","8","169","Cart_Janitor.jpg","8"
"022420","14:04:52","35","35","5.0.14.0","2","89","trial1","naming","0","0","0","0","puzzle pieceEnter Name","0","2510","1","White_Screen.jpg","7","69","Puzzle_Piece.jpg","7"
"022420","14:04:52","35","35","5.0.14.0","2","90","trial1","naming","0","0","0","0","oilEnter Name","0","3511","1","White_Screen.jpg","6","29","Bottle_Oil.jpg","6"
"022420","14:04:52","35","35","5.0.14.0","2","91","trial1","naming","0","0","0","0","cabinEnter Name","0","2126","1","White_Screen.jpg","8","164","House_Rural.jpg","8"
"022420","14:04:52","35","35","5.0.14.0","2","92","trial1","naming","0","0","0","0","screenEnter Name","0","3520","1","White_Screen.jpg","6","192","ProjectorScreen.jpg","6"
"022420","14:04:52","35","35","5.0.14.0","2","93","trial1","naming","0","0","0","0","stageEnter Name","0","5246","1","White_Screen.jpg","7","71","PuppetTheatre_WhiteGold.jpg","7"
"022420","14:04:52","35","35","5.0.14.0","2","94","trial1","naming","0","0","0","0","towelEnter Name","0","1686","1","White_Screen.jpg","8","36","Rag.jpg","8"
"022420","14:04:52","35","35","5.0.14.0","2","95","trial1","naming","0","0","0","0","don't knowEnter Name","0","2160","1","White_Screen.jpg","7","93","Instrument_African.jpg","7"
"022420","14:04:52","35","35","5.0.14.0","2","96","trial1","naming","0","0","0","0","matEnter Name","0","2249","1","White_Screen.jpg","7","11","Wallet_ClosedBrown.jpg","7"
"022420","14:04:52","35","35","5.0.14.0","2","97","trial1","naming","0","0","0","0","glueEnter Name","0","1783","1","White_Screen.jpg","8","46","Tube_Glue.jpg","8"
"022420","14:04:52","35","35","5.0.14.0","2","98","trial1","naming","0","0","0","0","leashEnter Name","0","1645","1","White_Screen.jpg","7","150","DogLeash.jpg","7"
"022420","14:04:52","35","35","5.0.14.0","2","99","trial1","naming","0","0","0","0","stumpEnter Name","0","2146","1","White_Screen.jpg","9","14","TreeStump.jpg","9"
"022420","14:04:52","35","35","5.0.14.0","2","100","trial1","naming","0","0","0","0","oven mitEnter Name","0","2978","1","White_Screen.jpg","6","81","ClothCoaster.jpg","6"
"022420","14:04:52","35","35","5.0.14.0","2","101","trial1","naming","0","0","0","0","toyEnter Name","0","1575","1","White_Screen.jpg","8","41","Toy_Tractor_1.jpg","8"
"022420","14:04:52","35","35","5.0.14.0","2","103","trial1","naming","0","0","0","0","gloveEnter Name","0","1444","1","White_Screen.jpg","7","182","Glove_Rubber.jpg","7"
"022420","14:04:52","35","35","5.0.14.0","2","104","trial1","naming","0","0","0","0","pitcherEnter Name","0","1997","1","White_Screen.jpg","7","44","Pitcher.jpg","7"
"022420","14:04:52","35","35","5.0.14.0","2","105","trial1","naming","0","0","0","0","bagEnter Name","0","1585","1","White_Screen.jpg","9","188","Bag_String.jpg","9"
"022420","14:04:52","35","35","5.0.14.0","2","106","trial1","naming","0","0","0","0","makeup bruEnter Name","0","3053","1","White_Screen.jpg","7","95","Brush_Makeup.jpg","7"
"022420","14:04:52","35","35","5.0.14.0","2","107","trial1","naming","0","0","0","0","tacoEnter Name","0","1568","1","White_Screen.jpg","8","177","Taco.jpg","8"
"022420","14:04:52","35","35","5.0.14.0","2","108","trial1","naming","0","0","0","0","barkEnter Name","0","2213","1","White_Screen.jpg","9","48","Bark.jpg","9"
"022420","14:04:52","35","35","5.0.14.0","2","109","trial1","naming","0","0","0","0","video camerEnter Name","0","2653","1","White_Screen.jpg","8","21","Camera_ProfessionalFilm.jpg","8"
"022420","14:04:52","35","35","5.0.14.0","2","110","trial1","naming","0","0","0","0","oven mittEnter Name","0","2236","1","White_Screen.jpg","7","190","Mitt_Oven.jpg","7"
"022420","14:04:52","35","35","5.0.14.0","2","111","trial1","naming","0","0","0","0","wheelEnter Name","0","1525","1","White_Screen.jpg","9","200","BicycleWheel.jpg","9"
"022420","14:04:52","35","35","5.0.14.0","2","112","trial1","naming","0","0","0","0","corkEnter Name","0","1737","1","White_Screen.jpg","7","121","Cork.jpg","7"
"022420","14:04:52","35","35","5.0.14.0","2","113","trial1","naming","0","0","0","0","plugEnter Name","0","2267","1","White_Screen.jpg","6","94","ConnectorPlug.jpg","6"
"022420","14:04:52","35","35","5.0.14.0","2","114","trial1","naming","0","0","0","0","moneyEnter Name","0","1856","1","White_Screen.jpg","7","122","MoneyBill50.jpg","7"
"022420","14:04:52","35","35","5.0.14.0","2","115","trial1","naming","0","0","0","0","wafflesEnter Name","0","2205","1","White_Screen.jpg","7","142","Waffle.jpg","7"
"022420","14:04:52","35","35","5.0.14.0","2","116","trial1","naming","0","0","0","0","gameEnter Name","0","1703","1","White_Screen.jpg","8","106","Book_Paper.jpg","8"
"022420","14:04:52","35","35","5.0.14.0","2","117","trial1","naming","0","0","0","0","signEnter Name","0","1586","1","White_Screen.jpg","8","105","Sign_Construction.jpg","8"
"022420","14:04:52","35","35","5.0.14.0","2","118","trial1","naming","0","0","0","0","dresserEnter Name","0","2342","1","White_Screen.jpg","7","115","Dresser_1.jpg","7"
"022420","14:04:52","35","35","5.0.14.0","2","119","trial1","naming","0","0","0","0","poolEnter Name","0","1613","1","White_Screen.jpg","7","84","KiddiePool.jpg","7"
"022420","14:04:52","35","35","5.0.14.0","2","120","trial1","naming","0","0","0","0","hockey gearEnter Name","0","3164","1","White_Screen.jpg","8","74","Hockey_Equipment.jpg","8"
"022420","14:04:52","35","35","5.0.14.0","2","121","trial1","naming","0","0","0","0","suspendersEnter Name","0","2298","1","White_Screen.jpg","7","176","Suspenders.jpg","7"
"022420","14:04:52","35","35","5.0.14.0","2","122","trial1","naming","0","0","0","0","egyptianEnter Name","0","3333","1","White_Screen.jpg","9","88","PharoahReplica.jpg","9"
"022420","14:04:52","35","35","5.0.14.0","2","123","trial1","naming","0","0","0","0","checkEnter Name","0","1904","1","White_Screen.jpg","7","6","Cheque.jpg","7"
"022420","14:04:52","35","35","5.0.14.0","2","124","trial1","naming","0","0","0","0","lockEnter Name","0","3105","1","White_Screen.jpg","6","174","Lock_Bike.jpg","6"
"022420","14:04:52","35","35","5.0.14.0","2","125","trial1","naming","0","0","0","0","wheelEnter Name","0","1455","1","White_Screen.jpg","7","2","BicycleWheelRusty.jpg","7"
"022420","14:04:52","35","35","5.0.14.0","2","126","trial1","naming","0","0","0","0","cartEnter Name","0","2155","1","White_Screen.jpg","7","63","ShoppingCart.jpg","7"
"022420","14:04:52","35","35","5.0.14.0","2","127","trial1","naming","0","0","0","0","monkeyEnter Name","0","1809","1","White_Screen.jpg","8","53","Chimpanzee.jpg","8"
"022420","14:04:52","35","35","5.0.14.0","2","128","trial1","naming","0","0","0","0","cash registeEnter Name","0","3530","1","White_Screen.jpg","8","67","CashRegister_Modern.jpg","8"
"022420","14:04:52","35","35","5.0.14.0","2","129","trial1","naming","0","0","0","0","beakerEnter Name","0","2274","1","White_Screen.jpg","8","134","Beaker.jpg","8"
"022420","14:04:52","35","35","5.0.14.0","2","130","trial1","naming","0","0","0","0","applesEnter Name","0","1957","1","White_Screen.jpg","7","78","Box_Apples.jpg","7"
"022420","14:04:52","35","35","5.0.14.0","2","131","trial1","naming","0","0","0","0","hand mixerEnter Name","0","2602","1","White_Screen.jpg","7","55","HandMixer.jpg","7"
"022420","14:04:52","35","35","5.0.14.0","2","132","trial1","naming","0","0","0","0","pizza cutterEnter Name","0","2749","1","White_Screen.jpg","8","17","PizzaCutter.jpg","8"
"022420","14:04:52","35","35","5.0.14.0","2","133","trial1","naming","0","0","0","0","kneeEnter Name","0","1319","1","White_Screen.jpg","7","181","Knee.jpg","7"
"022420","14:04:52","35","35","5.0.14.0","2","134","trial1","naming","0","0","0","0","tennis ballEnter Name","0","2046","1","White_Screen.jpg","7","37","Ball_Tennis.jpg","7"
"022420","14:04:52","35","35","5.0.14.0","2","135","trial1","naming","0","0","0","0","oil lampEnter Name","0","2561","1","White_Screen.jpg","10","61","Lantern_Tea.jpg","10"
"022420","14:04:52","35","35","5.0.14.0","2","136","trial1","naming","0","0","0","0","gearEnter Name","0","3131","1","White_Screen.jpg","10","102","BicycleGear.jpg","10"
"022420","14:04:52","35","35","5.0.14.0","2","137","trial1","naming","0","0","0","0","bellEnter Name","0","1792","1","White_Screen.jpg","7","26","Bell_Hand.jpg","7"
"022420","14:04:52","35","35","5.0.14.0","2","138","trial1","naming","0","0","0","0","bucketEnter Name","0","3402","1","White_Screen.jpg","8","170","Bucket_WoodenLight.jpg","8"
"022420","14:04:52","35","35","5.0.14.0","2","139","trial1","naming","0","0","0","0","loofahEnter Name","0","2265","1","White_Screen.jpg","8","98","Loofa.jpg","8"
"022420","14:04:52","35","35","5.0.14.0","2","140","trial1","naming","0","0","0","0","mouseEnter Name","0","1606","1","White_Screen.jpg","8","79","Chinchilla.jpg","8"
"022420","14:04:52","35","35","5.0.14.0","2","141","trial1","naming","0","0","0","0","glovesEnter Name","0","1891","1","White_Screen.jpg","7","70","Gloves_Bicycle.jpg","7"
"022420","14:04:52","35","35","5.0.14.0","2","142","trial1","naming","0","0","0","0","jeansEnter Name","0","1605","1","White_Screen.jpg","6","42","Pants_Jeans.jpg","6"
"022420","14:04:52","35","35","5.0.14.0","2","143","trial1","naming","0","0","0","0","ropeEnter Name","0","1373","1","White_Screen.jpg","7","179","Rope_Manila.jpg","7"
"022420","14:04:52","35","35","5.0.14.0","2","144","trial1","naming","0","0","0","0","basketball nEnter Name","0","3538","1","White_Screen.jpg","8","152","BasketballHoop.jpg","8"
"022420","14:04:52","35","35","5.0.14.0","2","145","trial1","naming","0","0","0","0","spoonEnter Name","0","1892","1","White_Screen.jpg","7","38","Spoon_WoodenLight.jpg","7"
"022420","14:04:52","35","35","5.0.14.0","2","146","trial1","naming","0","0","0","0","trailerEnter Name","0","3379","1","White_Screen.jpg","8","15","BoxTrailer.jpg","8"
"022420","14:04:52","35","35","5.0.14.0","2","147","trial1","naming","0","0","0","0","wineEnter Name","0","2908","1","White_Screen.jpg","10","180","ShakerShekere.jpg","10"
"022420","14:04:52","35","35","5.0.14.0","2","148","trial1","naming","0","0","0","0","carEnter Name","0","1312","1","White_Screen.jpg","9","127","Toy_Car.jpg","9"
"022420","14:04:52","35","35","5.0.14.0","2","149","trial1","naming","0","0","0","0","helicopterEnter Name","0","2710","1","White_Screen.jpg","9","185","Helicopter.jpg","9"
"022420","14:04:52","35","35","5.0.14.0","2","150","trial1","naming","0","0","0","0","gemEnter Name","0","2801","1","White_Screen.jpg","9","24","Quartz.jpg","9"
"022420","14:04:52","35","35","5.0.14.0","2","151","trial1","naming","0","0","0","0","nutsEnter Name","0","2194","1","White_Screen.jpg","8","3","ChiliFlakes.jpg","8"
"022420","14:04:52","35","35","5.0.14.0","2","152","trial1","naming","0","0","0","0","hospital stufEnter Name","0","3727","1","White_Screen.jpg","9","8","Defribrillator.jpg","9"
"022420","14:04:52","35","35","5.0.14.0","2","154","trial1","naming","0","0","0","0","lensEnter Name","0","1573","1","White_Screen.jpg","7","45","Lens_Camera.jpg","7"
"022420","14:04:52","35","35","5.0.14.0","2","155","trial1","naming","0","0","0","0","mixed drinkEnter Name","0","3479","1","White_Screen.jpg","9","20","Drink_Cocktail.jpg","9"
"022420","14:04:52","35","35","5.0.14.0","2","156","trial1","naming","0","0","0","0","bp cuffEnter Name","0","2518","1","White_Screen.jpg","9","43","BloodpPresureCuff.jpg","9"
"022420","14:04:52","35","35","5.0.14.0","2","157","trial1","naming","0","0","0","0","peaEnter Name","0","2953","1","White_Screen.jpg","7","160","Snowpea.jpg","7"
"022420","14:04:52","35","35","5.0.14.0","2","158","trial1","naming","0","0","0","0","totemEnter Name","0","2166","1","White_Screen.jpg","8","89","TotemPole.jpg","8"
"022420","14:04:52","35","35","5.0.14.0","2","159","trial1","naming","0","0","0","0","grapefrutEnter Name","0","2193","1","White_Screen.jpg","7","154","OrangeBlood.jpg","7"
"022420","14:04:52","35","35","5.0.14.0","2","160","trial1","naming","0","0","0","0","chargerEnter Name","0","4889","1","White_Screen.jpg","9","107","Generator.jpg","9"
"022420","14:04:52","35","35","5.0.14.0","2","161","trial1","naming","0","0","0","0","golf ballEnter Name","0","1949","1","White_Screen.jpg","8","104","Ball_Golf.jpg","8"
"022420","14:04:52","35","35","5.0.14.0","2","162","trial1","naming","0","0","0","0","buddahEnter Name","0","2537","1","White_Screen.jpg","8","159","Statue_Buddha.jpg","8"
"022420","14:04:52","35","35","5.0.14.0","2","163","trial1","naming","0","0","0","0","wireEnter Name","0","1596","1","White_Screen.jpg","7","116","SolderingWire.jpg","7"
"022420","14:04:52","35","35","5.0.14.0","2","164","trial1","naming","0","0","0","0","makeupEnter Name","0","2048","1","White_Screen.jpg","10","23","Box_Vials.jpg","10"
"022420","14:04:52","35","35","5.0.14.0","2","165","trial1","naming","0","0","0","0","entranceEnter Name","0","2340","1","White_Screen.jpg","6","166","Arch_Triomphe.jpg","6"
"022420","14:04:52","35","35","5.0.14.0","2","166","trial1","naming","0","0","0","0","drumsEnter Name","0","1687","1","White_Screen.jpg","7","147","Drum_Bongos.jpg","7"
"022420","14:04:52","35","35","5.0.14.0","2","167","trial1","naming","0","0","0","0","lint rollerEnter Name","0","3474","1","White_Screen.jpg","7","191","LintRemover.jpg","7"
"022420","14:04:52","35","35","5.0.14.0","2","168","trial1","naming","0","0","0","0","carriageEnter Name","0","2838","1","White_Screen.jpg","8","72","ChariotGold.jpg","8"
"022420","14:04:52","35","35","5.0.14.0","2","169","trial1","naming","0","0","0","0","cameraEnter Name","0","2101","1","White_Screen.jpg","7","162","Camera_Video.jpg","7"
"022420","14:04:52","35","35","5.0.14.0","2","170","trial1","naming","0","0","0","0","cabinEnter Name","0","1947","1","White_Screen.jpg","6","155","House_Stone.jpg","6"
"022420","14:04:52","35","35","5.0.14.0","2","171","trial1","naming","0","0","0","0","don't knowEnter Name","0","3895","1","White_Screen.jpg","9","199","LeatherPuncherTool.jpg","9"
"022420","14:04:52","35","35","5.0.14.0","2","172","trial1","naming","0","0","0","0","boxEnter Name","0","4181","1","White_Screen.jpg","7","73","Crate_Milk.jpg","7"
"022420","14:04:52","35","35","5.0.14.0","2","173","trial1","naming","0","0","0","0","shortsEnter Name","0","1624","1","White_Screen.jpg","7","10","Shorts_Sports.jpg","7"
"022420","14:04:52","35","35","5.0.14.0","2","174","trial1","naming","0","0","0","0","sugarEnter Name","0","2582","1","White_Screen.jpg","7","135","Bowl_Sugar.jpg","7"
"022420","14:04:52","35","35","5.0.14.0","2","175","trial1","naming","0","0","0","0","breadEnter Name","0","2492","1","White_Screen.jpg","8","66","Bread_Pita.jpg","8"
"022420","14:04:52","35","35","5.0.14.0","2","176","trial1","naming","0","0","0","0","perfumeEnter Name","0","2323","1","White_Screen.jpg","8","87","Perfume.jpg","8"
"022420","14:04:52","35","35","5.0.14.0","2","177","trial1","naming","0","0","0","0","rice cookerEnter Name","0","2332","1","White_Screen.jpg","7","139","RiceCooker.jpg","7"
"022420","14:04:52","35","35","5.0.14.0","2","178","trial1","naming","0","0","0","0","ladybugEnter Name","0","1954","1","White_Screen.jpg","10","163","Ladybug.jpg","10"
"022420","14:04:52","35","35","5.0.14.0","2","179","trial1","naming","0","0","0","0","paper cutterEnter Name","0","2663","1","White_Screen.jpg","7","144","PaperCutter.jpg","7"
"022420","14:04:52","35","35","5.0.14.0","2","180","trial1","naming","0","0","0","0","bowling ballEnter Name","0","2674","1","White_Screen.jpg","9","49","Ball_Bowling.jpg","9"
"022420","14:04:52","35","35","5.0.14.0","2","181","trial1","naming","0","0","0","0","heaterEnter Name","0","1544","1","White_Screen.jpg","8","56","Heater_ElectricPortable.jpg","8"
"022420","14:04:52","35","35","5.0.14.0","2","182","trial1","naming","0","0","0","0","toastEnter Name","0","2687","1","White_Screen.jpg","8","51","Toast.jpg","8"
"022420","14:04:52","35","35","5.0.14.0","2","183","trial1","naming","0","0","0","0","briefcaseEnter Name","0","2999","1","White_Screen.jpg","7","165","Briefcase_Silver.jpg","7"
"022420","14:04:52","35","35","5.0.14.0","2","184","trial1","naming","0","0","0","0","backpackEnter Name","0","3779","1","White_Screen.jpg","7","140","Backpack_Suitcase.jpg","7"
"022420","14:04:52","35","35","5.0.14.0","2","185","trial1","naming","0","0","0","0","hammerEnter Name","0","1481","1","White_Screen.jpg","11","1","Hammer.jpg","11"
"022420","14:04:52","35","35","5.0.14.0","2","186","trial1","naming","0","0","0","0","birdcageEnter Name","0","2745","1","White_Screen.jpg","6","39","Cage_Hamster.jpg","6"
"022420","14:04:52","35","35","5.0.14.0","2","187","trial1","naming","0","0","0","0","car seatEnter Name","0","2338","1","White_Screen.jpg","10","54","Chair_Car.jpg","10"
"022420","14:04:52","35","35","5.0.14.0","2","188","trial1","naming","0","0","0","0","shoeEnter Name","0","1556","1","White_Screen.jpg","8","113","Shoe_WomenHeals.jpg","8"
"022420","14:04:52","35","35","5.0.14.0","2","189","trial1","naming","0","0","0","0","doctor thingEnter Name","0","3277","1","White_Screen.jpg","8","96","EyeExamDevice.jpg","8"
"022420","14:04:52","35","35","5.0.14.0","2","190","trial1","naming","0","0","0","0","clipEnter Name","0","4014","1","White_Screen.jpg","9","136","Clothespin_Beige.jpg","9"
"022420","14:04:52","35","35","5.0.14.0","2","191","trial1","naming","0","0","0","0","handcuffsEnter Name","0","2743","1","White_Screen.jpg","6","120","Handcuffs.jpg","6"
"022420","14:04:52","35","35","5.0.14.0","2","192","trial1","naming","0","0","0","0","grenadeEnter Name","0","2109","1","White_Screen.jpg","7","187","Grenade.jpg","7"
"022420","14:04:52","35","35","5.0.14.0","2","193","trial1","naming","0","0","0","0","broomEnter Name","0","1866","1","White_Screen.jpg","7","80","Broom_Short.jpg","7"
"022420","14:04:52","35","35","5.0.14.0","2","194","trial1","naming","0","0","0","0","don't knowEnter Name","0","2854","1","White_Screen.jpg","8","60","DrillBit.jpg","8"
"022420","14:04:52","35","35","5.0.14.0","2","195","trial1","naming","0","0","0","0","bibEnter Name","0","1380","1","White_Screen.jpg","9","126","Bib.jpg","9"
"022420","14:04:52","35","35","5.0.14.0","2","196","trial1","naming","0","0","0","0","cd'sEnter Name","0","1834","1","White_Screen.jpg","8","103","CDstack.jpg","8"
"022420","14:04:52","35","35","5.0.14.0","2","197","trial1","naming","0","0","0","0","wedding caEnter Name","0","2750","1","White_Screen.jpg","6","101","Cake_Wedding.jpg","6"
"022420","14:04:52","35","35","5.0.14.0","2","198","trial1","naming","0","0","0","0","eraserEnter Name","0","2597","1","White_Screen.jpg","7","117","ChalkboardEraser.jpg","7"
"022420","14:04:52","35","35","5.0.14.0","2","199","trial1","naming","0","0","0","0","mixmasterEnter Name","0","3357","1","White_Screen.jpg","8","77","SoundMixer_Blue.jpg","8"
"022420","14:04:52","35","35","5.0.14.0","2","200","trial1","naming","0","0","0","0","screwEnter Name","0","1713","1","White_Screen.jpg","7","149","Bolt.jpg","7"
"022420","14:04:52","35","35","5.0.14.0","2","201","trial1","naming","0","0","0","0","coat hangerEnter Name","0","2319","1","White_Screen.jpg","10","112","Coatrack.jpg","10"
"022420","14:04:52","35","35","5.0.14.0","2","202","trial1","naming","0","0","0","0","fire bellEnter Name","0","2696","1","White_Screen.jpg","7","124","FireAlarm.jpg","7"
"022420","14:04:52","35","35","5.0.14.0","2","203","trial1","naming","0","0","0","0","stickEnter Name","0","2776","1","White_Screen.jpg","8","141","ToothPick.jpg","8"
"022420","14:04:52","35","35","5.0.14.0","3","1","demographics_block","gender","0","0","0","0","female","1","12854","0","0","0","0","0","0"
"022420","14:04:52","35","35","5.0.14.0","3","1","demographics_block","age","0","0","0","0","41","1","12854","0","0","0","0","0","0"
"022420","14:04:52","35","35","5.0.14.0","3","1","demographics_block","education","0","0","0","0","16 ","1","12854","0","0","0","0","0","0"
"022420","14:04:52","35","35","5.0.14.0","3","2","demographics_block","left_right_handed","0","0","0","0","Right","1","7827","0","0","0","0","0","0"
"022420","14:04:52","35","35","5.0.14.0","3","2","demographics_block","raceoption1","0","0","0","0","0","1","7827","0","0","0","0","0","0"
"022420","14:04:52","35","35","5.0.14.0","3","2","demographics_block","raceoption2","0","0","0","0","","1","7827","0","0","0","0","0","0"
"022420","14:04:52","35","35","5.0.14.0","3","2","demographics_block","raceoption3","0","0","0","0","","1","7827","0","0","0","0","0","0"
"022420","14:04:52","35","35","5.0.14.0","3","2","demographics_block","raceoption4","0","0","0","0","","1","7827","0","0","0","0","0","0"
"022420","14:04:52","35","35","5.0.14.0","3","2","demographics_block","raceoption5","0","0","0","0","","1","7827","0","0","0","0","0","0"
"022420","14:04:52","35","35","5.0.14.0","3","2","demographics_block","raceoption6","0","0","0","0","","1","7827","0","0","0","0","0","0"
"022420","14:04:52","35","35","5.0.14.0","3","2","demographics_block","raceoption7","0","0","0","0","","1","7827","0","0","0","0","0","0"
"022420","14:04:52","35","35","5.0.14.0","3","2","demographics_block","raceoption8","0","0","0","0","","1","7827","0","0","0","0","0","0"
"022420","14:04:52","35","35","5.0.14.0","3","2","demographics_block","raceoption9","0","0","0","0","","1","7827","0","0","0","0","0","0"
"022420","14:04:52","35","35","5.0.14.0","3","2","demographics_block","raceother","0","0","0","0","","1","7827","0","0","0","0","0","0"
"022420","14:04:52","35","35","5.0.14.0","3","2","demographics_block","raceother","0","0","0","0","","1","7827","0","0","0","0","0","0"
"022420","14:04:52","35","35","5.0.14.0","3","2","demographics_block","english_language","0","0","0","0","Yes","1","7827","0","0","0","0","0","0"
"022420","14:04:52","35","35","5.0.14.0","3","2","demographics_block","english_languageother","0","0","0","0","","1","7827","0","0","0","0","0","0"
"022420","14:04:52","35","35","5.0.14.0","3","3","demographics_block","eyesight","0","0","0","0","Yes","1","6226","0","0","0","0","0","0"
"022420","14:04:52","35","35","5.0.14.0","3","3","demographics_block","colorblind","0","0","0","0","No","1","6226","0","0","0","0","0","0"
"022420","14:04:52","35","35","5.0.14.0","4","1","worker_id_block","worker_id_textbox","0","0","0","0","A3S1DILZ70PXC","1","3358","0","0","0","0","0","0"
"022420","15:00:29","34","34","5.0.14.0","2","1","trial1","naming","0","0","0","0","sofa","0","5775","1","White_Screen.jpg","102","168","Loveseat.jpg","102"
"022420","15:00:29","34","34","5.0.14.0","2","2","trial1","naming","0","0","0","0","mouse trap","0","6745","1","White_Screen.jpg","4","93","Instrument_African.jpg","4"
"022420","15:00:29","34","34","5.0.14.0","2","3","trial1","naming","0","0","0","0","dirty rag","0","5203","1","White_Screen.jpg","4","36","Rag.jpg","4"
"022420","15:00:29","34","34","5.0.14.0","2","4","trial1","naming","0","0","0","0","rubber chicken","0","6256","1","White_Screen.jpg","7","189","Toy_Chicken.jpg","7"
"022420","15:00:29","34","34","5.0.14.0","2","5","trial1","naming","0","0","0","0","motorcycle","0","4700","1","White_Screen.jpg","8","90","Motorcycle.jpg","8"
"022420","15:00:29","34","34","5.0.14.0","2","6","trial1","naming","0","0","0","0","stepper","0","4144","1","White_Screen.jpg","7","76","Stepper.jpg","7"
"022420","15:00:29","34","34","5.0.14.0","2","7","trial1","naming","0","0","0","0","rice cooker","0","5316","1","White_Screen.jpg","4","139","RiceCooker.jpg","4"
"022420","15:00:29","34","34","5.0.14.0","2","8","trial1","naming","0","0","0","0","adapter","0","6662","1","White_Screen.jpg","3","94","ConnectorPlug.jpg","3"
"022420","15:00:29","34","34","5.0.14.0","2","9","trial1","naming","0","0","0","0","basin","0","3986","1","White_Screen.jpg","10","170","Bucket_WoodenLight.jpg","10"
"022420","15:00:29","34","34","5.0.14.0","2","10","trial1","naming","0","0","0","0","chocolate bar","0","5182","1","White_Screen.jpg","9","86","Toblerone.jpg","9"
"022420","15:00:29","34","34","5.0.14.0","2","11","trial1","naming","0","0","0","0","gas can","0","4440","1","White_Screen.jpg","4","62","Can_OilSpout.jpg","4"
"022420","15:00:29","34","34","5.0.14.0","2","12","trial1","naming","0","0","0","0","video camera","0","4874","1","White_Screen.jpg","6","162","Camera_Video.jpg","6"
"022420","15:00:29","34","34","5.0.14.0","2","13","trial1","naming","0","0","0","0","door","0","5846","1","White_Screen.jpg","8","123","Door_Green.jpg","8"
"022420","15:00:29","34","34","5.0.14.0","2","14","trial1","naming","0","0","0","0","bookcase","0","4295","1","White_Screen.jpg","4","171","BookShelf.jpg","4"
"022420","15:00:29","34","34","5.0.14.0","2","15","trial1","naming","0","0","0","0","snow pea","0","4938","1","White_Screen.jpg","4","160","Snowpea.jpg","4"
"022420","15:00:29","34","34","5.0.14.0","2","16","trial1","naming","0","0","0","0","helicopter","0","5220","1","White_Screen.jpg","4","185","Helicopter.jpg","4"
"022420","15:00:29","34","34","5.0.14.0","2","17","trial1","naming","0","0","0","0","gas gauge","0","4391","1","White_Screen.jpg","4","32","Gauge.jpg","4"
"022420","15:00:29","34","34","5.0.14.0","2","18","trial1","naming","0","0","0","0","","0","10000","1","White_Screen.jpg","4","178","Candleholder_LampShaped.jpg","4"
"022420","15:00:29","34","34","5.0.14.0","2","19","trial1","naming","0","0","0","0","toy pumpkin","0","8466","1","White_Screen.jpg","3","161","Bucket_Halloween.jpg","3"
"022420","15:00:29","34","34","5.0.14.0","2","20","trial1","naming","0","0","0","0","rolling backpack","0","4923","1","White_Screen.jpg","3","140","Backpack_Suitcase.jpg","3"
"022420","15:00:29","34","34","5.0.14.0","2","21","trial1","naming","0","0","0","0","perfume","0","3325","1","White_Screen.jpg","5","87","Perfume.jpg","5"
"022420","15:00:29","34","34","5.0.14.0","2","22","trial1","naming","0","0","0","0","monkey","0","3844","1","White_Screen.jpg","8","53","Chimpanzee.jpg","8"
"022420","15:00:29","34","34","5.0.14.0","2","23","trial1","naming","0","0","0","0","space heater","0","4085","1","White_Screen.jpg","3","56","Heater_ElectricPortable.jpg","3"
"022420","15:00:29","34","34","5.0.14.0","2","24","trial1","naming","0","0","0","0","loofah","0","3708","1","White_Screen.jpg","5","98","Loofa.jpg","5"
"022420","15:00:29","34","34","5.0.14.0","2","25","trial1","naming","0","0","0","0","oar","0","3348","1","White_Screen.jpg","7","16","Paddle_Canoe.jpg","7"
"022420","15:00:29","34","34","5.0.14.0","2","26","trial1","naming","0","0","0","0","gas grill","0","3699","1","White_Screen.jpg","3","18","Barbecue_Gas.jpg","3"
"022420","15:00:29","34","34","5.0.14.0","2","27","trial1","naming","0","0","0","0","paper cutter","0","4483","1","White_Screen.jpg","3","144","PaperCutter.jpg","3"
"022420","15:00:29","34","34","5.0.14.0","2","28","trial1","naming","0","0","0","0","luggage tag","0","4148","1","White_Screen.jpg","3","31","Tag_Identifier.jpg","3"
"022420","15:00:29","34","34","5.0.14.0","2","29","trial1","naming","0","0","0","0","golf ball","0","3841","1","White_Screen.jpg","4","104","Ball_Golf.jpg","4"
"022420","15:00:29","34","34","5.0.14.0","2","30","trial1","naming","0","0","0","0","bread maker","0","4215","1","White_Screen.jpg","4","143","Machine_Bread.jpg","4"
"022420","15:00:29","34","34","5.0.14.0","2","31","trial1","naming","0","0","0","0","steel wire spool","0","9721","1","White_Screen.jpg","3","116","SolderingWire.jpg","3"
"022420","15:00:29","34","34","5.0.14.0","2","32","trial1","naming","0","0","0","0","generator","0","3971","1","White_Screen.jpg","8","107","Generator.jpg","8"
"022420","15:00:29","34","34","5.0.14.0","2","33","trial1","naming","0","0","0","0","branch","0","2923","1","White_Screen.jpg","6","111","Branch.jpg","6"
"022420","15:00:29","34","34","5.0.14.0","2","34","trial1","naming","0","0","0","0","bench","0","3002","1","White_Screen.jpg","8","109","Bench_Park.jpg","8"
"022420","15:00:29","34","34","5.0.14.0","2","35","trial1","naming","0","0","0","0","totem","0","6386","1","White_Screen.jpg","6","193","Cane_Wooden.jpg","6"
"022420","15:00:29","34","34","5.0.14.0","2","36","trial1","naming","0","0","0","0","walker","0","3159","1","White_Screen.jpg","7","125","Walker_Silver.jpg","7"
"022420","15:00:29","34","34","5.0.14.0","2","37","trial1","naming","0","0","0","0","rubber glove","0","3978","1","White_Screen.jpg","4","182","Glove_Rubber.jpg","4"
"022420","15:00:29","34","34","5.0.14.0","2","38","trial1","naming","0","0","0","0","stationary bike","0","5540","1","White_Screen.jpg","4","40","Exercise_Bike.jpg","4"
"022420","15:00:29","34","34","5.0.14.0","2","39","trial1","naming","0","0","0","0","cd","0","4477","1","White_Screen.jpg","6","103","CDstack.jpg","6"
"022420","15:00:29","34","34","5.0.14.0","2","40","trial1","naming","0","0","0","0","toy lighthouse","0","5565","1","White_Screen.jpg","7","118","Toy_Lighthouse.jpg","7"
"022420","15:00:29","34","34","5.0.14.0","2","41","trial1","naming","0","0","0","0","wheel","0","3660","1","White_Screen.jpg","4","2","BicycleWheelRusty.jpg","4"
"022420","15:00:29","34","34","5.0.14.0","2","42","trial1","naming","0","0","0","0","crate of apples","0","4385","1","White_Screen.jpg","4","78","Box_Apples.jpg","4"
"022420","15:00:29","34","34","5.0.14.0","2","43","trial1","naming","0","0","0","0","cash register","0","3847","1","White_Screen.jpg","5","67","CashRegister_Modern.jpg","5"
"022420","15:00:29","34","34","5.0.14.0","2","44","trial1","naming","0","0","0","0","gourd","0","4142","1","White_Screen.jpg","4","180","ShakerShekere.jpg","4"
"022420","15:00:29","34","34","5.0.14.0","2","45","trial1","naming","0","0","0","0","flip flops","0","4062","1","White_Screen.jpg","5","195","FlipFlop_PairBlue.jpg","5"
"022420","15:00:29","34","34","5.0.14.0","2","46","trial1","naming","0","0","0","0","cone","0","2880","1","White_Screen.jpg","8","197","IceCreamCone.jpg","8"
"022420","15:00:29","34","34","5.0.14.0","2","47","trial1","naming","0","0","0","0","dutch oven","0","4533","1","White_Screen.jpg","4","186","Pot_Crock.jpg","4"
"022420","15:00:29","34","34","5.0.14.0","2","48","trial1","naming","0","0","0","0","desk organizer","0","5104","1","White_Screen.jpg","3","30","Stationary.jpg","3"
"022420","15:00:29","34","34","5.0.14.0","2","49","trial1","naming","0","0","0","0","cpr paddles","0","5476","1","White_Screen.jpg","8","8","Defribrillator.jpg","8"
"022420","15:00:29","34","34","5.0.14.0","2","50","trial1","naming","0","0","0","0","log cabin","0","4789","1","White_Screen.jpg","9","164","House_Rural.jpg","9"
"022420","15:00:29","34","34","5.0.14.0","2","52","trial1","naming","0","0","0","0","wood stencil","0","7862","1","White_Screen.jpg","8","141","ToothPick.jpg","8"
"022420","15:00:29","34","34","5.0.14.0","2","53","trial1","naming","0","0","0","0","bread","0","5873","1","White_Screen.jpg","4","51","Toast.jpg","4"
"022420","15:00:29","34","34","5.0.14.0","2","54","trial1","naming","0","0","0","0","puzzle piece","0","4714","1","White_Screen.jpg","4","69","Puzzle_Piece.jpg","4"
"022420","15:00:29","34","34","5.0.14.0","2","55","trial1","naming","0","0","0","0","basketball hoop","0","6000","1","White_Screen.jpg","4","152","BasketballHoop.jpg","4"
"022420","15:00:29","34","34","5.0.14.0","2","56","trial1","naming","0","0","0","0","bark","0","4558","1","White_Screen.jpg","3","48","Bark.jpg","3"
"022420","15:00:29","34","34","5.0.14.0","2","57","trial1","naming","0","0","0","0","hand mixer","0","4326","1","White_Screen.jpg","7","55","HandMixer.jpg","7"
"022420","15:00:29","34","34","5.0.14.0","2","58","trial1","naming","0","0","0","0","satellite","0","4386","1","White_Screen.jpg","4","148","TelescopeSpacecraft.jpg","4"
"022420","15:00:29","34","34","5.0.14.0","2","59","trial1","naming","0","0","0","0","toy shovel","0","5888","1","White_Screen.jpg","7","41","Toy_Tractor_1.jpg","7"
"022420","15:00:29","34","34","5.0.14.0","2","60","trial1","naming","0","0","0","0","desk mirror","0","6260","1","White_Screen.jpg","9","110","Mirror_Makeup.jpg","9"
"022420","15:00:29","34","34","5.0.14.0","2","61","trial1","naming","0","0","0","0","wedding cake","0","3581","1","White_Screen.jpg","4","101","Cake_Wedding.jpg","4"
"022420","15:00:29","34","34","5.0.14.0","2","62","trial1","naming","0","0","0","0","spoke wheels","0","7124","1","White_Screen.jpg","3","85","BicycleChain.jpg","3"
"022420","15:00:29","34","34","5.0.14.0","2","63","trial1","naming","0","0","0","0","origami cow","0","7854","1","White_Screen.jpg","8","183","Origami_Ox.jpg","8"
"022420","15:00:29","34","34","5.0.14.0","2","64","trial1","naming","0","0","0","0","perfume set","0","6433","1","White_Screen.jpg","4","23","Box_Vials.jpg","4"
"022420","15:00:29","34","34","5.0.14.0","2","65","trial1","naming","0","0","0","0","car seat","0","4102","1","White_Screen.jpg","4","54","Chair_Car.jpg","4"
"022420","15:00:29","34","34","5.0.14.0","2","66","trial1","naming","0","0","0","0","bongo drums","0","4144","1","White_Screen.jpg","5","147","Drum_Bongos.jpg","5"
"022420","15:00:29","34","34","5.0.14.0","2","67","trial1","naming","0","0","0","0","barbecue grill","0","7630","1","White_Screen.jpg","4","128","Barbecue_Charcoal.jpg","4"
"022420","15:00:29","34","34","5.0.14.0","2","68","trial1","naming","0","0","0","0","wooden spoon","0","4803","1","White_Screen.jpg","4","38","Spoon_WoodenLight.jpg","4"
"022420","15:00:29","34","34","5.0.14.0","2","69","trial1","naming","0","0","0","0","shoveling sign","0","6337","1","White_Screen.jpg","4","105","Sign_Construction.jpg","4"
"022420","15:00:29","34","34","5.0.14.0","2","70","trial1","naming","0","0","0","0","lantern","0","4523","1","White_Screen.jpg","4","61","Lantern_Tea.jpg","4"
"022420","15:00:29","34","34","5.0.14.0","2","71","trial1","naming","0","0","0","0","shammy","0","4466","1","White_Screen.jpg","7","11","Wallet_ClosedBrown.jpg","7"
"022420","15:00:29","34","34","5.0.14.0","2","72","trial1","naming","0","0","0","0","mouse","0","4016","1","White_Screen.jpg","4","79","Chinchilla.jpg","4"
"022420","15:00:29","34","34","5.0.14.0","2","73","trial1","naming","0","0","0","0","flip flop","0","3636","1","White_Screen.jpg","3","158","FlipFlop_SingleRed.jpg","3"
"022420","15:00:29","34","34","5.0.14.0","2","74","trial1","naming","0","0","0","0","bowling ball","0","4556","1","White_Screen.jpg","4","49","Ball_Bowling.jpg","4"
"022420","15:00:29","34","34","5.0.14.0","2","75","trial1","naming","0","0","0","0","rope","0","2840","1","White_Screen.jpg","4","179","Rope_Manila.jpg","4"
"022420","15:00:29","34","34","5.0.14.0","2","76","trial1","naming","0","0","0","0","toolbox","0","3503","1","White_Screen.jpg","8","82","Toolbox_RedOpen.jpg","8"
"022420","15:00:29","34","34","5.0.14.0","2","77","trial1","naming","0","0","0","0","waffles with berries","0","6602","1","White_Screen.jpg","4","142","Waffle.jpg","4"
"022420","15:00:29","34","34","5.0.14.0","2","78","trial1","naming","0","0","0","0","spoke","0","5036","1","White_Screen.jpg","3","102","BicycleGear.jpg","3"
"022420","15:00:29","34","34","5.0.14.0","2","79","trial1","naming","0","0","0","0","pot holder","0","4747","1","White_Screen.jpg","4","81","ClothCoaster.jpg","4"
"022420","15:00:29","34","34","5.0.14.0","2","80","trial1","naming","0","0","0","0","jet ski","0","4769","1","White_Screen.jpg","3","58","Jetski.jpg","3"
"022420","15:00:29","34","34","5.0.14.0","2","81","trial1","naming","0","0","0","0","pita","0","3211","1","White_Screen.jpg","5","66","Bread_Pita.jpg","5"
"022420","15:00:29","34","34","5.0.14.0","2","82","trial1","naming","0","0","0","0","","0","10000","1","White_Screen.jpg","4","72","ChariotGold.jpg","4"
"022420","15:00:29","34","34","5.0.14.0","2","83","trial1","naming","0","0","0","0","wine crate","0","5007","1","White_Screen.jpg","4","91","Crate_Wine.jpg","4"
"022420","15:00:29","34","34","5.0.14.0","2","84","trial1","naming","0","0","0","0","duster","0","3007","1","White_Screen.jpg","11","35","DusterFeather.jpg","11"
"022420","15:00:29","34","34","5.0.14.0","2","85","trial1","naming","0","0","0","0","golf gloves","0","5208","1","White_Screen.jpg","3","70","Gloves_Bicycle.jpg","3"
"022420","15:00:29","34","34","5.0.14.0","2","86","trial1","naming","0","0","0","0","athletic shorts","0","4965","1","White_Screen.jpg","8","10","Shorts_Sports.jpg","8"
"022420","15:00:29","34","34","5.0.14.0","2","87","trial1","naming","0","0","0","0","dresser","0","3641","1","White_Screen.jpg","5","115","Dresser_1.jpg","5"
"022420","15:00:29","34","34","5.0.14.0","2","88","trial1","naming","0","0","0","0","blood orange","0","3571","1","White_Screen.jpg","4","154","OrangeBlood.jpg","4"
"022420","15:00:29","34","34","5.0.14.0","2","89","trial1","naming","0","0","0","0","wooden toy","0","4320","1","White_Screen.jpg","7","132","PersonWooden.jpg","7"
"022420","15:00:29","34","34","5.0.14.0","2","90","trial1","naming","0","0","0","0","truck","0","3336","1","White_Screen.jpg","4","114","Truck_Box.jpg","4"
"022420","15:00:29","34","34","5.0.14.0","2","91","trial1","naming","0","0","0","0","leaf","0","3148","1","White_Screen.jpg","5","151","Lilypad.jpg","5"
"022420","15:00:29","34","34","5.0.14.0","2","92","trial1","naming","0","0","0","0","triangle","0","6009","1","White_Screen.jpg","4","92","Triangle.jpg","4"
"022420","15:00:29","34","34","5.0.14.0","2","93","trial1","naming","0","0","0","0","scissors","0","3725","1","White_Screen.jpg","7","52","Scissors.jpg","7"
"022420","15:00:29","34","34","5.0.14.0","2","94","trial1","naming","0","0","0","0","camcorder","0","5293","1","White_Screen.jpg","4","21","Camera_ProfessionalFilm.jpg","4"
"022420","15:00:29","34","34","5.0.14.0","2","95","trial1","naming","0","0","0","0","puppet stage","0","5133","1","White_Screen.jpg","4","71","PuppetTheatre_WhiteGold.jpg","4"
"022420","15:00:29","34","34","5.0.14.0","2","96","trial1","naming","0","0","0","0","suspenders","0","3925","1","White_Screen.jpg","5","176","Suspenders.jpg","5"
"022420","15:00:29","34","34","5.0.14.0","2","97","trial1","naming","0","0","0","0","bib","0","2706","1","White_Screen.jpg","5","126","Bib.jpg","5"
"022420","15:00:29","34","34","5.0.14.0","2","98","trial1","naming","0","0","0","0","tennis ball","0","3493","1","White_Screen.jpg","4","37","Ball_Tennis.jpg","4"
"022420","15:00:29","34","34","5.0.14.0","2","99","trial1","naming","0","0","0","0","bell","0","3314","1","White_Screen.jpg","8","26","Bell_Hand.jpg","8"
"022420","15:00:29","34","34","5.0.14.0","2","100","trial1","naming","0","0","0","0","jeans","0","3452","1","White_Screen.jpg","4","42","Pants_Jeans.jpg","4"
"022420","15:00:29","34","34","5.0.14.0","2","101","trial1","naming","0","0","0","0","fuzz remover","0","6445","1","White_Screen.jpg","6","191","LintRemover.jpg","6"
"022420","15:00:29","34","34","5.0.14.0","2","103","trial1","naming","0","0","0","0","winnie the pooh doll","0","6026","1","White_Screen.jpg","4","153","Toy_WinnieThePooh.jpg","4"
"022420","15:00:29","34","34","5.0.14.0","2","104","trial1","naming","0","0","0","0","king tut","0","5523","1","White_Screen.jpg","6","88","PharoahReplica.jpg","6"
"022420","15:00:29","34","34","5.0.14.0","2","105","trial1","naming","0","0","0","0","baseball mitt","0","4467","1","White_Screen.jpg","10","173","Glove_Baseball.jpg","10"
"022420","15:00:29","34","34","5.0.14.0","2","106","trial1","naming","0","0","0","0","binder","0","2784","1","White_Screen.jpg","8","100","Binder.jpg","8"
"022420","15:00:29","34","34","5.0.14.0","2","107","trial1","naming","0","0","0","0","leaf","0","2613","1","White_Screen.jpg","8","108","Leaf_Yellow.jpg","8"
"022420","15:00:29","34","34","5.0.14.0","2","108","trial1","naming","0","0","0","0","gavel","0","3420","1","White_Screen.jpg","3","47","MalletJudge.jpg","3"
"022420","15:00:29","34","34","5.0.14.0","2","109","trial1","naming","0","0","0","0","broom","0","3365","1","White_Screen.jpg","5","80","Broom_Short.jpg","5"
"022420","15:00:29","34","34","5.0.14.0","2","110","trial1","naming","0","0","0","0","wheel","0","3386","1","White_Screen.jpg","4","200","BicycleWheel.jpg","4"
"022420","15:00:29","34","34","5.0.14.0","2","111","trial1","naming","0","0","0","0","cop car","0","3932","1","White_Screen.jpg","4","97","Toy_PoliceCar.jpg","4"
"022420","15:00:29","34","34","5.0.14.0","2","112","trial1","naming","0","0","0","0","hockey gear","0","4596","1","White_Screen.jpg","4","74","Hockey_Equipment.jpg","4"
"022420","15:00:29","34","34","5.0.14.0","2","113","trial1","naming","0","0","0","0","saltine","0","3006","1","White_Screen.jpg","3","172","Cracker_Saltine.jpg","3"
"022420","15:00:29","34","34","5.0.14.0","2","114","trial1","naming","0","0","0","0","hole punch","0","4453","1","White_Screen.jpg","4","22","Oneholepunch.jpg","4"
"022420","15:00:29","34","34","5.0.14.0","2","115","trial1","naming","0","0","0","0","beaker set","0","7017","1","White_Screen.jpg","5","25","TestTube_MultipleAndRack.jpg","5"
"022420","15:00:29","34","34","5.0.14.0","2","116","trial1","naming","0","0","0","0","hole punch","0","4421","1","White_Screen.jpg","8","199","LeatherPuncherTool.jpg","8"
"022420","15:00:29","34","34","5.0.14.0","2","117","trial1","naming","0","0","0","0","video cassette","0","4539","1","White_Screen.jpg","9","13","Cassette_Video.jpg","9"
"022420","15:00:29","34","34","5.0.14.0","2","118","trial1","naming","0","0","0","0","crate","0","4609","1","White_Screen.jpg","4","73","Crate_Milk.jpg","4"
"022420","15:00:29","34","34","5.0.14.0","2","119","trial1","naming","0","0","0","0","rower seat","0","4667","1","White_Screen.jpg","5","167","Autocreeper.jpg","5"
"022420","15:00:29","34","34","5.0.14.0","2","120","trial1","naming","0","0","0","0","cork","0","2716","1","White_Screen.jpg","5","121","Cork.jpg","5"
"022420","15:00:29","34","34","5.0.14.0","2","121","trial1","naming","0","0","0","0","jug","0","3172","1","White_Screen.jpg","4","44","Pitcher.jpg","4"
"022420","15:00:29","34","34","5.0.14.0","2","122","trial1","naming","0","0","0","0","mask","0","2935","1","White_Screen.jpg","4","133","Mask_VenetianLongNose.jpg","4"
"022420","15:00:29","34","34","5.0.14.0","2","123","trial1","naming","0","0","0","0","step trashcan","0","5179","1","White_Screen.jpg","4","65","Garbage_Can.jpg","4"
"022420","15:00:29","34","34","5.0.14.0","2","124","trial1","naming","0","0","0","0","sedan","0","3014","1","White_Screen.jpg","4","127","Toy_Car.jpg","4"
"022420","15:00:29","34","34","5.0.14.0","2","125","trial1","naming","0","0","0","0","ladybug","0","3150","1","White_Screen.jpg","4","163","Ladybug.jpg","4"
"022420","15:00:29","34","34","5.0.14.0","2","126","trial1","naming","0","0","0","0","grenade","0","2809","1","White_Screen.jpg","4","187","Grenade.jpg","4"
"022420","15:00:29","34","34","5.0.14.0","2","127","trial1","naming","0","0","0","0","sink moving","0","6930","1","White_Screen.jpg","5","169","Cart_Janitor.jpg","5"
"022420","15:00:29","34","34","5.0.14.0","2","128","trial1","naming","0","0","0","0","taco","0","3220","1","White_Screen.jpg","3","177","Taco.jpg","3"
"022420","15:00:29","34","34","5.0.14.0","2","129","trial1","naming","0","0","0","0","tree stump","0","4922","1","White_Screen.jpg","5","14","TreeStump.jpg","5"
"022420","15:00:29","34","34","5.0.14.0","2","130","trial1","naming","0","0","0","0","ear instrument","0","8536","1","White_Screen.jpg","8","96","EyeExamDevice.jpg","8"
"022420","15:00:29","34","34","5.0.14.0","2","131","trial1","naming","0","0","0","0","ice basket","0","5242","1","White_Screen.jpg","5","4","Bucket_Ice.jpg","5"
"022420","15:00:29","34","34","5.0.14.0","2","132","trial1","naming","0","0","0","0","hammer","0","3069","1","White_Screen.jpg","10","1","Hammer.jpg","10"
"022420","15:00:29","34","34","5.0.14.0","2","133","trial1","naming","0","0","0","0","screen","0","4612","1","White_Screen.jpg","7","192","ProjectorScreen.jpg","7"
"022420","15:00:29","34","34","5.0.14.0","2","134","trial1","naming","0","0","0","0","glue","0","3906","1","White_Screen.jpg","3","46","Tube_Glue.jpg","3"
"022420","15:00:29","34","34","5.0.14.0","2","135","trial1","naming","0","0","0","0","bike lock","0","3585","1","White_Screen.jpg","4","174","Lock_Bike.jpg","4"
"022420","15:00:29","34","34","5.0.14.0","2","136","trial1","naming","0","0","0","0","alarm bell","0","4556","1","White_Screen.jpg","6","124","FireAlarm.jpg","6"
"022420","15:00:29","34","34","5.0.14.0","2","137","trial1","naming","0","0","0","0","crib","0","2489","1","White_Screen.jpg","8","146","Playard.jpg","8"
"022420","15:00:29","34","34","5.0.14.0","2","138","trial1","naming","0","0","0","0","stamp","0","3118","1","White_Screen.jpg","9","157","Stamper.jpg","9"
"022420","15:00:29","34","34","5.0.14.0","2","139","trial1","naming","0","0","0","0","bow tie","0","5109","1","White_Screen.jpg","8","28","Bowtie.jpg","8"
"022420","15:00:29","34","34","5.0.14.0","2","140","trial1","naming","0","0","0","0","beaker","0","3194","1","White_Screen.jpg","3","134","Beaker.jpg","3"
"022420","15:00:29","34","34","5.0.14.0","2","141","trial1","naming","0","0","0","0","chinese lantern","0","4565","1","White_Screen.jpg","7","12","Lantern_Chinese.jpg","7"
"022420","15:00:29","34","34","5.0.14.0","2","142","trial1","naming","0","0","0","0","screw tip","0","5656","1","White_Screen.jpg","4","60","DrillBit.jpg","4"
"022420","15:00:29","34","34","5.0.14.0","2","143","trial1","naming","0","0","0","0","granola","0","3229","1","White_Screen.jpg","8","3","ChiliFlakes.jpg","8"
"022420","15:00:29","34","34","5.0.14.0","2","144","trial1","naming","0","0","0","0","bolt","0","4693","1","White_Screen.jpg","3","149","Bolt.jpg","3"
"022420","15:00:29","34","34","5.0.14.0","2","145","trial1","naming","0","0","0","0","serrated knife","0","6271","1","White_Screen.jpg","4","119","Knife_Hunting.jpg","4"
"022420","15:00:29","34","34","5.0.14.0","2","146","trial1","naming","0","0","0","0","weight crate","0","10000","1","White_Screen.jpg","3","99","Dolly.jpg","3"
"022420","15:00:29","34","34","5.0.14.0","2","147","trial1","naming","0","0","0","0","mixed cocktail","0","5012","1","White_Screen.jpg","3","20","Drink_Cocktail.jpg","3"
"022420","15:00:29","34","34","5.0.14.0","2","148","trial1","naming","0","0","0","0","rake","0","2859","1","White_Screen.jpg","5","19","Rake_Long.jpg","5"
"022420","15:00:29","34","34","5.0.14.0","2","149","trial1","naming","0","0","0","0","film","0","3064","1","White_Screen.jpg","5","131","Film_Roll.jpg","5"
"022420","15:00:29","34","34","5.0.14.0","2","150","trial1","naming","0","0","0","0","pizza cutter","0","4249","1","White_Screen.jpg","4","17","PizzaCutter.jpg","4"
"022420","15:00:29","34","34","5.0.14.0","2","151","trial1","naming","0","0","0","0","chocolate bar","0","4023","1","White_Screen.jpg","3","175","ChocolateBar_HalfUnwrapped.jpg","3"
"022420","15:00:29","34","34","5.0.14.0","2","152","trial1","naming","0","0","0","0","camera lens","0","3731","1","White_Screen.jpg","8","45","Lens_Camera.jpg","8"
"022420","15:00:29","34","34","5.0.14.0","2","154","trial1","naming","0","0","0","0","eraser","0","5261","1","White_Screen.jpg","3","117","ChalkboardEraser.jpg","3"
"022420","15:00:29","34","34","5.0.14.0","2","155","trial1","naming","0","0","0","0","cottage","0","3774","1","White_Screen.jpg","4","155","House_Stone.jpg","4"
"022420","15:00:29","34","34","5.0.14.0","2","156","trial1","naming","0","0","0","0","trailer","0","3887","1","White_Screen.jpg","9","15","BoxTrailer.jpg","9"
"022420","15:00:29","34","34","5.0.14.0","2","157","trial1","naming","0","0","0","0","hat","0","3420","1","White_Screen.jpg","4","198","Hat_Feather.jpg","4"
"022420","15:00:29","34","34","5.0.14.0","2","158","trial1","naming","0","0","0","0","blood pressure monitor","0","5868","1","White_Screen.jpg","4","43","BloodpPresureCuff.jpg","4"
"022420","15:00:29","34","34","5.0.14.0","2","159","trial1","naming","0","0","0","0","crystals","0","3877","1","White_Screen.jpg","4","24","Quartz.jpg","4"
"022420","15:00:29","34","34","5.0.14.0","2","160","trial1","naming","0","0","0","0","wood flute","0","3578","1","White_Screen.jpg","8","57","Flute_Wooden.jpg","8"
"022420","15:00:29","34","34","5.0.14.0","2","161","trial1","naming","0","0","0","0","sugar canister","0","4469","1","White_Screen.jpg","3","135","Bowl_Sugar.jpg","3"
"022420","15:00:29","34","34","5.0.14.0","2","162","trial1","naming","0","0","0","0","book","0","4363","1","White_Screen.jpg","5","106","Book_Paper.jpg","5"
"022420","15:00:29","34","34","5.0.14.0","2","163","trial1","naming","0","0","0","0","sheep","0","3087","1","White_Screen.jpg","3","27","Sheep.jpg","3"
"022420","15:00:29","34","34","5.0.14.0","2","164","trial1","naming","0","0","0","0","baby bottle","0","4961","1","White_Screen.jpg","5","194","Bottle_Baby.jpg","5"
"022420","15:00:29","34","34","5.0.14.0","2","165","trial1","naming","0","0","0","0","pencil holder","0","5606","1","White_Screen.jpg","3","83","ToothbrushHolder.jpg","3"
"022420","15:00:29","34","34","5.0.14.0","2","166","trial1","naming","0","0","0","0","knee","0","2597","1","White_Screen.jpg","3","181","Knee.jpg","3"
"022420","15:00:29","34","34","5.0.14.0","2","167","trial1","naming","0","0","0","0","fence","0","5897","1","White_Screen.jpg","7","129","Fence_ChainLink.jpg","7"
"022420","15:00:29","34","34","5.0.14.0","2","168","trial1","naming","0","0","0","0","mango","0","3064","1","White_Screen.jpg","4","5","Mango.jpg","4"
"022420","15:00:29","34","34","5.0.14.0","2","169","trial1","naming","0","0","0","0","streamers","0","3653","1","White_Screen.jpg","4","184","Noisemaker_Streamers.jpg","4"
"022420","15:00:29","34","34","5.0.14.0","2","170","trial1","naming","0","0","0","0","bongo drum","0","4619","1","White_Screen.jpg","8","7","Drum_Brazilan.jpg","8"
"022420","15:00:29","34","34","5.0.14.0","2","171","trial1","naming","0","0","0","0","bird","0","2562","1","White_Screen.jpg","4","156","Bird_Tern.jpg","4"
"022420","15:00:29","34","34","5.0.14.0","2","172","trial1","naming","0","0","0","0","motorcycle helmet","0","5053","1","White_Screen.jpg","8","145","Helmet_Motorcycle.jpg","8"
"022420","15:00:29","34","34","5.0.14.0","2","173","trial1","naming","0","0","0","0","moose","0","4453","1","White_Screen.jpg","4","130","Caribou.jpg","4"
"022420","15:00:29","34","34","5.0.14.0","2","174","trial1","naming","0","0","0","0","high heel shoe","0","6236","1","White_Screen.jpg","6","113","Shoe_WomenHeals.jpg","6"
"022420","15:00:29","34","34","5.0.14.0","2","175","trial1","naming","0","0","0","0","satchel","0","4334","1","White_Screen.jpg","7","188","Bag_String.jpg","7"
"022420","15:00:29","34","34","5.0.14.0","2","176","trial1","naming","0","0","0","0","check","0","3035","1","White_Screen.jpg","8","6","Cheque.jpg","8"
"022420","15:00:29","34","34","5.0.14.0","2","177","trial1","naming","0","0","0","0","dish towel","0","3720","1","White_Screen.jpg","7","34","Towel.jpg","7"
"022420","15:00:29","34","34","5.0.14.0","2","178","trial1","naming","0","0","0","0","train","0","3337","1","White_Screen.jpg","6","196","Locomotive.jpg","6"
"022420","15:00:29","34","34","5.0.14.0","2","179","trial1","naming","0","0","0","0","pencil case","0","4235","1","White_Screen.jpg","4","75","PencilCase.jpg","4"
"022420","15:00:29","34","34","5.0.14.0","2","180","trial1","naming","0","0","0","0","kiddie pool","0","5415","1","White_Screen.jpg","5","84","KiddiePool.jpg","5"
"022420","15:00:29","34","34","5.0.14.0","2","181","trial1","naming","0","0","0","0","hamster cage","0","4565","1","White_Screen.jpg","3","39","Cage_Hamster.jpg","3"
"022420","15:00:29","34","34","5.0.14.0","2","182","trial1","naming","0","0","0","0","mr potato","0","3809","1","White_Screen.jpg","4","59","Toy_MrPotatoHeadjpg.jpg","4"
"022420","15:00:29","34","34","5.0.14.0","2","183","trial1","naming","0","0","0","0","steel briefcase","0","5812","1","White_Screen.jpg","4","165","Briefcase_Silver.jpg","4"
"022420","15:00:29","34","34","5.0.14.0","2","184","trial1","naming","0","0","0","0","circuit breaker","0","5411","1","White_Screen.jpg","4","64","TelephoneSwitchboard.jpg","4"
"022420","15:00:29","34","34","5.0.14.0","2","185","trial1","naming","0","0","0","0","laughing buddha","0","5090","1","White_Screen.jpg","4","159","Statue_Buddha.jpg","4"
"022420","15:00:29","34","34","5.0.14.0","2","186","trial1","naming","0","0","0","0","knee guards","0","4247","1","White_Screen.jpg","10","33","ShinPads.jpg","10"
"022420","15:00:29","34","34","5.0.14.0","2","187","trial1","naming","0","0","0","0","clothes pin","0","4086","1","White_Screen.jpg","5","136","Clothespin_Beige.jpg","5"
"022420","15:00:29","34","34","5.0.14.0","2","188","trial1","naming","0","0","0","0","arm","0","3828","1","White_Screen.jpg","3","137","Arm.jpg","3"
"022420","15:00:29","34","34","5.0.14.0","2","189","trial1","naming","0","0","0","0","totem","0","2980","1","White_Screen.jpg","4","89","TotemPole.jpg","4"
"022420","15:00:29","34","34","5.0.14.0","2","190","trial1","naming","0","0","0","0","makeup brush","0","4076","1","White_Screen.jpg","3","95","Brush_Makeup.jpg","3"
"022420","15:00:29","34","34","5.0.14.0","2","191","trial1","naming","0","0","0","0","boom box","0","2994","1","White_Screen.jpg","5","9","Radio_Modern.jpg","5"
"022420","15:00:29","34","34","5.0.14.0","2","192","trial1","naming","0","0","0","0","button","0","2606","1","White_Screen.jpg","4","138","Button.jpg","4"
"022420","15:00:29","34","34","5.0.14.0","2","193","trial1","naming","0","0","0","0","oil","0","3446","1","White_Screen.jpg","4","29","Bottle_Oil.jpg","4"
"022420","15:00:29","34","34","5.0.14.0","2","194","trial1","naming","0","0","0","0","hat rack","0","3340","1","White_Screen.jpg","8","112","Coatrack.jpg","8"
"022420","15:00:29","34","34","5.0.14.0","2","195","trial1","naming","0","0","0","0","arc de triomphe","0","5118","1","White_Screen.jpg","8","166","Arch_Triomphe.jpg","8"
"022420","15:00:29","34","34","5.0.14.0","2","196","trial1","naming","0","0","0","0","strap","0","5283","1","White_Screen.jpg","9","150","DogLeash.jpg","9"
"022420","15:00:29","34","34","5.0.14.0","2","197","trial1","naming","0","0","0","0","ointment","0","5499","1","White_Screen.jpg","6","68","ToothPaste.jpg","6"
"022420","15:00:29","34","34","5.0.14.0","2","198","trial1","naming","0","0","0","0","canadian dollar","0","5257","1","White_Screen.jpg","5","122","MoneyBill50.jpg","5"
"022420","15:00:29","34","34","5.0.14.0","2","199","trial1","naming","0","0","0","0","sound mixer","0","3630","1","White_Screen.jpg","4","77","SoundMixer_Blue.jpg","4"
"022420","15:00:29","34","34","5.0.14.0","2","200","trial1","naming","0","0","0","0","sewing machine","0","3455","1","White_Screen.jpg","4","50","SewingMachine.jpg","4"
"022420","15:00:29","34","34","5.0.14.0","2","201","trial1","naming","0","0","0","0","handcuffs","0","3484","1","White_Screen.jpg","8","120","Handcuffs.jpg","8"
"022420","15:00:29","34","34","5.0.14.0","2","202","trial1","naming","0","0","0","0","shopping cart","0","3731","1","White_Screen.jpg","4","63","ShoppingCart.jpg","4"
"022420","15:00:29","34","34","5.0.14.0","2","203","trial1","naming","0","0","0","0","oven mitt","0","3000","1","White_Screen.jpg","3","190","Mitt_Oven.jpg","3"
"022420","15:00:29","34","34","5.0.14.0","3","1","demographics_block","gender","0","0","0","0","female","1","20120","0","0","0","0","0","0"
"022420","15:00:29","34","34","5.0.14.0","3","1","demographics_block","age","0","0","0","0","49","1","20120","0","0","0","0","0","0"
"022420","15:00:29","34","34","5.0.14.0","3","1","demographics_block","education","0","0","0","0","16","1","20120","0","0","0","0","0","0"
"022420","15:00:29","34","34","5.0.14.0","3","2","demographics_block","left_right_handed","0","0","0","0","Right","1","6225","0","0","0","0","0","0"
"022420","15:00:29","34","34","5.0.14.0","3","2","demographics_block","raceoption1","0","0","0","0","","1","6225","0","0","0","0","0","0"
"022420","15:00:29","34","34","5.0.14.0","3","2","demographics_block","raceoption2","0","0","0","0","","1","6225","0","0","0","0","0","0"
"022420","15:00:29","34","34","5.0.14.0","3","2","demographics_block","raceoption3","0","0","0","0","","1","6225","0","0","0","0","0","0"
"022420","15:00:29","34","34","5.0.14.0","3","2","demographics_block","raceoption4","0","0","0","0","","1","6225","0","0","0","0","0","0"
"022420","15:00:29","34","34","5.0.14.0","3","2","demographics_block","raceoption5","0","0","0","0","","1","6225","0","0","0","0","0","0"
"022420","15:00:29","34","34","5.0.14.0","3","2","demographics_block","raceoption6","0","0","0","0","","1","6225","0","0","0","0","0","0"
"022420","15:00:29","34","34","5.0.14.0","3","2","demographics_block","raceoption7","0","0","0","0","6","1","6225","0","0","0","0","0","0"
"022420","15:00:29","34","34","5.0.14.0","3","2","demographics_block","raceoption8","0","0","0","0","","1","6225","0","0","0","0","0","0"
"022420","15:00:29","34","34","5.0.14.0","3","2","demographics_block","raceoption9","0","0","0","0","","1","6225","0","0","0","0","0","0"
"022420","15:00:29","34","34","5.0.14.0","3","2","demographics_block","raceother","0","0","0","0","","1","6225","0","0","0","0","0","0"
"022420","15:00:29","34","34","5.0.14.0","3","2","demographics_block","raceother","0","0","0","0","","1","6225","0","0","0","0","0","0"
"022420","15:00:29","34","34","5.0.14.0","3","2","demographics_block","english_language","0","0","0","0","Yes","1","6225","0","0","0","0","0","0"
"022420","15:00:29","34","34","5.0.14.0","3","2","demographics_block","english_languageother","0","0","0","0","","1","6225","0","0","0","0","0","0"
"022420","15:00:29","34","34","5.0.14.0","3","3","demographics_block","eyesight","0","0","0","0","Yes","1","4336","0","0","0","0","0","0"
"022420","15:00:29","34","34","5.0.14.0","3","3","demographics_block","colorblind","0","0","0","0","No","1","4336","0","0","0","0","0","0"
"022420","15:00:29","34","34","5.0.14.0","4","1","worker_id_block","worker_id_textbox","0","0","0","0","A28J7H4TH29DC3","1","9567","0","0","0","0","0","0"
"022420","12:07:58","36","36","5.0.14.0","2","1","trial1","naming","0","0","0","0","pot","0","5414","1","White_Screen.jpg","30","186","Pot_Crock.jpg","30"
"022420","12:07:58","36","36","5.0.14.0","2","2","trial1","naming","0","0","0","0","shorts","0","4072","1","White_Screen.jpg","34","10","Shorts_Sports.jpg","34"
"022420","12:07:58","36","36","5.0.14.0","2","3","trial1","naming","0","0","0","0","jackola","0","10000","1","White_Screen.jpg","34","161","Bucket_Halloween.jpg","34"
"022420","12:07:58","36","36","5.0.14.0","2","4","trial1","naming","0","0","0","0","waffles","0","3403","1","White_Screen.jpg","0","142","Waffle.jpg","0"
"022420","12:07:58","36","36","5.0.14.0","2","5","trial1","naming","0","0","0","0","drum","0","2254","1","White_Screen.jpg","-3","7","Drum_Brazilan.jpg","-3"
"022420","12:07:58","36","36","5.0.14.0","2","6","trial1","naming","0","0","0","0","drink","0","2886","1","White_Screen.jpg","-4","20","Drink_Cocktail.jpg","-4"
"022420","12:07:58","36","36","5.0.14.0","2","7","trial1","naming","0","0","0","0","chocolate","0","3895","1","White_Screen.jpg","-1","86","Toblerone.jpg","-1"
"022420","12:07:58","36","36","5.0.14.0","2","8","trial1","naming","0","0","0","0","perfume","0","3200","1","White_Screen.jpg","-3","87","Perfume.jpg","-3"
"022420","12:07:58","36","36","5.0.14.0","2","9","trial1","naming","0","0","0","0","lantern","0","4831","1","White_Screen.jpg","-1","178","Candleholder_LampShaped.jpg","-1"
"022420","12:07:58","36","36","5.0.14.0","2","10","trial1","naming","0","0","0","0","hat","0","2252","1","White_Screen.jpg","29","198","Hat_Feather.jpg","29"
"022420","12:07:58","36","36","5.0.14.0","2","11","trial1","naming","0","0","0","0","binder","0","2728","1","White_Screen.jpg","39","100","Binder.jpg","39"
"022420","12:07:58","36","36","5.0.14.0","2","12","trial1","naming","0","0","0","0","mouse","0","2227","1","White_Screen.jpg","-1","79","Chinchilla.jpg","-1"
"022420","12:07:58","36","36","5.0.14.0","2","13","trial1","naming","0","0","0","0","taco","0","2013","1","White_Screen.jpg","-3","177","Taco.jpg","-3"
"022420","12:07:58","36","36","5.0.14.0","2","14","trial1","naming","0","0","0","0","oven mitt","0","3404","1","White_Screen.jpg","0","81","ClothCoaster.jpg","0"
"022420","12:07:58","36","36","5.0.14.0","2","15","trial1","naming","0","0","0","0","cart","0","2807","1","White_Screen.jpg","-4","169","Cart_Janitor.jpg","-4"
"022420","12:07:58","36","36","5.0.14.0","2","16","trial1","naming","0","0","0","0","pool","0","2405","1","White_Screen.jpg","-3","84","KiddiePool.jpg","-3"
"022420","12:07:58","36","36","5.0.14.0","2","17","trial1","naming","0","0","0","0","cone","0","1872","1","White_Screen.jpg","28","197","IceCreamCone.jpg","28"
"022420","12:07:58","36","36","5.0.14.0","2","18","trial1","naming","0","0","0","0","wire","0","2708","1","White_Screen.jpg","-1","116","SolderingWire.jpg","-1"
"022420","12:07:58","36","36","5.0.14.0","2","19","trial1","naming","0","0","0","0","rack","0","4838","1","White_Screen.jpg","1","112","Coatrack.jpg","1"
"022420","12:07:58","36","36","5.0.14.0","2","20","trial1","naming","0","0","0","0","house","0","2527","1","White_Screen.jpg","32","155","House_Stone.jpg","32"
"022420","12:07:58","36","36","5.0.14.0","2","21","trial1","naming","0","0","0","0","pressure cooker","0","7003","1","White_Screen.jpg","28","139","RiceCooker.jpg","28"
"022420","12:07:58","36","36","5.0.14.0","2","22","trial1","naming","0","0","0","0","glue","0","4668","1","White_Screen.jpg","-2","46","Tube_Glue.jpg","-2"
"022420","12:07:58","36","36","5.0.14.0","2","23","trial1","naming","0","0","0","0","suitcase","0","3462","1","White_Screen.jpg","-1","165","Briefcase_Silver.jpg","-1"
"022420","12:07:58","36","36","5.0.14.0","2","24","trial1","naming","0","0","0","0","hose","0","5254","1","White_Screen.jpg","-1","174","Lock_Bike.jpg","-1"
"022420","12:07:58","36","36","5.0.14.0","2","25","trial1","naming","0","0","0","0","board","0","3575","1","White_Screen.jpg","40","77","SoundMixer_Blue.jpg","40"
"022420","12:07:58","36","36","5.0.14.0","2","26","trial1","naming","0","0","0","0","bowling ball","0","4604","1","White_Screen.jpg","-2","49","Ball_Bowling.jpg","-2"
"022420","12:07:58","36","36","5.0.14.0","2","27","trial1","naming","0","0","0","0","shelf","0","4625","1","White_Screen.jpg","-3","171","BookShelf.jpg","-3"
"022420","12:07:58","36","36","5.0.14.0","2","28","trial1","naming","0","0","0","0","","0","10000","1","White_Screen.jpg","-2","102","BicycleGear.jpg","-2"
"022420","12:07:58","36","36","5.0.14.0","2","29","trial1","naming","0","0","0","0","ice bucket","0","5587","1","White_Screen.jpg","29","4","Bucket_Ice.jpg","29"
"022420","12:07:58","36","36","5.0.14.0","2","30","trial1","naming","0","0","0","0","lens","0","1914","1","White_Screen.jpg","33","45","Lens_Camera.jpg","33"
