"date","time","group","subject","build","blocknum","trialnum","blockcode","trialcode","pretrialpause","posttrialpause","trialduration","trialtimeout","response","correct","latency","stimulusnumber1","stimulusitem1","stimulusonset1","stimulusnumber2","stimulusitem2","stimulusonset2"
"071519","12:56:36","1","1","5.0.14.0","2","1","trial1","naming","0","0","0","0","Enter Name","0","2472","1","White_Screen.jpg","51","166","Fork_Fondue.jpg","51"
"071519","12:56:36","1","1","5.0.14.0","2","2","trial1","naming","0","0","0","0","teeter totter","0","5146","1","White_Screen.jpg","18","106","Toy_SeeSaw.jpg","18"
"071519","12:56:36","1","1","5.0.14.0","2","3","trial1","naming","0","0","0","0","film reel","0","3584","1","White_Screen.jpg","18","167","Projector_Film.jpg","18"
"071519","12:56:36","1","1","5.0.14.0","2","4","trial1","naming","0","0","0","0","Ctrl+'Q'","1","5680","1","White_Screen.jpg","18","121","BicycleReflector.jpg","18"
"071519","15:01:50","2","2","5.0.14.0","2","1","trial1","naming","0","0","0","0","snowboard","0","9173","1","White_Screen.jpg","41","125","Snowboard.jpg","41"
"071519","15:01:50","2","2","5.0.14.0","2","2","trial1","naming","0","0","0","0","treats","0","5894","1","White_Screen.jpg","5","113","Jars_PetFood.jpg","5"
"071519","15:01:50","2","2","5.0.14.0","2","3","trial1","naming","0","0","0","0","trap","0","4279","1","White_Screen.jpg","9","105","Mousetrap.jpg","9"
"071519","15:01:50","2","2","5.0.14.0","2","4","trial1","naming","0","0","0","0","cup","0","2794","1","White_Screen.jpg","4","66","Mug_Ceramic.jpg","4"
"071519","15:01:50","2","2","5.0.14.0","2","5","trial1","naming","0","0","0","0","jacket","0","6726","1","White_Screen.jpg","7","14","Tuxedo.jpg","7"
"071519","15:01:50","2","2","5.0.14.0","2","6","trial1","naming","0","0","0","0","ginger","0","3335","1","White_Screen.jpg","4","22","Ginger.jpg","4"
"071519","15:01:50","2","2","5.0.14.0","2","7","trial1","naming","0","0","0","0","seal","0","3268","1","White_Screen.jpg","5","83","Seal_animal.jpg","5"
"071519","15:01:50","2","2","5.0.14.0","2","8","trial1","naming","0","0","0","0","battery","0","4039","1","White_Screen.jpg","7","132","Battery_AA.jpg","7"
"071519","15:01:50","2","2","5.0.14.0","2","9","trial1","naming","0","0","0","0","shakers","0","4715","1","White_Screen.jpg","5","7","Maraca.jpg","5"
"071519","15:01:50","2","2","5.0.14.0","2","10","trial1","naming","0","0","0","0","handle","0","6690","1","White_Screen.jpg","7","67","BicycleBrake.jpg","7"
"071519","15:01:50","2","2","5.0.14.0","2","11","trial1","naming","0","0","0","0","skull","0","3481","1","White_Screen.jpg","4","19","HumanSkull.jpg","4"
"071519","15:01:50","2","2","5.0.14.0","2","12","trial1","naming","0","0","0","0","chain","0","3016","1","White_Screen.jpg","5","159","MetalChain.jpg","5"
"071519","15:01:50","2","2","5.0.14.0","2","13","trial1","naming","0","0","0","0","bar","0","4803","1","White_Screen.jpg","5","100","AlcoholBar.jpg","5"
"071519","15:01:50","2","2","5.0.14.0","2","14","trial1","naming","0","0","0","0","burner","0","3481","1","White_Screen.jpg","4","39","Stove_Portable.jpg","4"
"071519","15:01:50","2","2","5.0.14.0","2","15","trial1","naming","0","0","0","0","alien","0","3308","1","White_Screen.jpg","6","198","Toy_Alien.jpg","6"
"071519","15:01:50","2","2","5.0.14.0","2","16","trial1","naming","0","0","0","0","shake","0","4166","1","White_Screen.jpg","6","104","Milkshake_StrawberryStraw.jpg","6"
"071519","15:01:50","2","2","5.0.14.0","2","17","trial1","naming","0","0","0","0","phone","0","4964","1","White_Screen.jpg","5","78","TelephoneJack.jpg","5"
"071519","15:01:50","2","2","5.0.14.0","2","18","trial1","naming","0","0","0","0","radio","0","3512","1","White_Screen.jpg","7","116","Radio_Vintage.jpg","7"
"071519","15:01:50","2","2","5.0.14.0","2","19","trial1","naming","0","0","0","0","doors","0","3810","1","White_Screen.jpg","6","131","Door_Blue.jpg","6"
"071519","15:01:50","2","2","5.0.14.0","2","20","trial1","naming","0","0","0","0","ghords","0","6146","1","White_Screen.jpg","7","25","Cornucopia.jpg","7"
"071519","15:01:50","2","2","5.0.14.0","2","21","trial1","naming","0","0","0","0","box","0","6354","1","White_Screen.jpg","4","61","PuppetTheatre_BlueRed.jpg","4"
"071519","15:01:50","2","2","5.0.14.0","2","22","trial1","naming","0","0","0","0","plate","0","2982","1","White_Screen.jpg","3","118","Plate_Ceramic.jpg","3"
"071519","15:01:50","2","2","5.0.14.0","2","23","trial1","naming","0","0","0","0","toy","0","2900","1","White_Screen.jpg","5","138","Toy_ElephantPlastic.jpg","5"
"071519","15:01:50","2","2","5.0.14.0","2","24","trial1","naming","0","0","0","0","olives","0","3645","1","White_Screen.jpg","4","13","Olives.jpg","4"
"071519","15:01:50","2","2","5.0.14.0","2","25","trial1","naming","0","0","0","0","bird house","0","5382","1","White_Screen.jpg","8","75","Birdhouse.jpg","8"
"071519","15:01:50","2","2","5.0.14.0","2","26","trial1","naming","0","0","0","0","lamp","0","4803","1","White_Screen.jpg","5","120","Light_Studio.jpg","5"
"071519","15:01:50","2","2","5.0.14.0","2","27","trial1","naming","0","0","0","0","rooster","0","3717","1","White_Screen.jpg","6","12","Toy_Rooster.jpg","6"
"071519","15:01:50","2","2","5.0.14.0","2","28","trial1","naming","0","0","0","0","gas","0","2852","1","White_Screen.jpg","4","160","GasStation.jpg","4"
"071519","15:01:50","2","2","5.0.14.0","2","29","trial1","naming","0","0","0","0","tree house","0","6567","1","White_Screen.jpg","5","88","TreeHouse.jpg","5"
"071519","15:01:50","2","2","5.0.14.0","2","30","trial1","naming","0","0","0","0","bear","0","3346","1","White_Screen.jpg","4","85","Toy_BearBlackPlastic.jpg","4"
"071519","15:01:50","2","2","5.0.14.0","2","31","trial1","naming","0","0","0","0","bone","0","5095","1","White_Screen.jpg","7","183","DogToy.jpg","7"
"071519","15:01:50","2","2","5.0.14.0","2","32","trial1","naming","0","0","0","0","ice cream","0","4182","1","White_Screen.jpg","6","197","IceCream_Chocolate.jpg","6"
"071519","15:01:50","2","2","5.0.14.0","2","33","trial1","naming","0","0","0","0","stamp","0","2975","1","White_Screen.jpg","5","98","Embosser.jpg","5"
"071519","15:01:50","2","2","5.0.14.0","2","34","trial1","naming","0","0","0","0","shake","0","2976","1","White_Screen.jpg","6","34","Milkshake_Strawberry.jpg","6"
"071519","15:01:50","2","2","5.0.14.0","2","35","trial1","naming","0","0","0","0","soup","0","5428","1","White_Screen.jpg","6","20","Guacamole.jpg","6"
"071519","15:01:50","2","2","5.0.14.0","2","36","trial1","naming","0","0","0","0","van","0","2808","1","White_Screen.jpg","6","44","Van.jpg","6"
"071519","15:01:50","2","2","5.0.14.0","2","37","trial1","naming","0","0","0","0","pyriamid","0","5092","1","White_Screen.jpg","5","188","Pyramid.jpg","5"
"071519","15:01:50","2","2","5.0.14.0","2","38","trial1","naming","0","0","0","0","milk","0","4811","1","White_Screen.jpg","5","5","Can_Milk.jpg","5"
"071519","15:01:50","2","2","5.0.14.0","2","39","trial1","naming","0","0","0","0","first aid","0","8028","1","White_Screen.jpg","6","84","Box_FirstAidOpen.jpg","6"
"071519","15:01:50","2","2","5.0.14.0","2","40","trial1","naming","0","0","0","0","potato","0","6339","1","White_Screen.jpg","7","112","Potato.jpg","7"
"071519","15:01:50","2","2","5.0.14.0","2","41","trial1","naming","0","0","0","0","peanut","0","3026","1","White_Screen.jpg","7","101","Nuts_Peanuts.jpg","7"
"071519","15:01:50","2","2","5.0.14.0","2","42","trial1","naming","0","0","0","0","chair","0","3252","1","White_Screen.jpg","7","31","Stool_Camping.jpg","7"
"071519","15:01:50","2","2","5.0.14.0","2","43","trial1","naming","0","0","0","0","container","0","4905","1","White_Screen.jpg","5","174","Lectern.jpg","5"
"071519","15:01:50","2","2","5.0.14.0","2","44","trial1","naming","0","0","0","0","lamb","0","2835","1","White_Screen.jpg","5","55","Toy_LambPlushie.jpg","5"
"071519","15:01:50","2","2","5.0.14.0","2","45","trial1","naming","0","0","0","0","candle","0","8200","1","White_Screen.jpg","3","71","LumiereBeautyBeast.jpg","3"
"071519","15:01:50","2","2","5.0.14.0","2","46","trial1","naming","0","0","0","0","shoes","0","6964","1","White_Screen.jpg","7","49","Shoes_Mould.jpg","7"
"071519","15:01:50","2","2","5.0.14.0","2","47","trial1","naming","0","0","0","0","steering wheel","0","4886","1","White_Screen.jpg","10","51","Wheel_Steering.jpg","10"
"071519","15:01:50","2","2","5.0.14.0","2","48","trial1","naming","0","0","0","0","nuts","0","3636","1","White_Screen.jpg","6","182","Nuts_PeanutsPeeled.jpg","6"
"071519","15:01:50","2","2","5.0.14.0","2","49","trial1","naming","0","0","0","0","projector","0","4945","1","White_Screen.jpg","5","167","Projector_Film.jpg","5"
"071519","15:01:50","2","2","5.0.14.0","2","50","trial1","naming","0","0","0","0","clippers","0","3437","1","White_Screen.jpg","5","43","HedgeShears.jpg","5"
"071519","15:01:50","2","2","5.0.14.0","2","52","trial1","naming","0","0","0","0","jack","0","3037","1","White_Screen.jpg","4","165","Jacks.jpg","4"
"071519","15:01:50","2","2","5.0.14.0","2","53","trial1","naming","0","0","0","0","saw","0","5160","1","White_Screen.jpg","5","8","Table_Saw.jpg","5"
"071519","15:01:50","2","2","5.0.14.0","2","54","trial1","naming","0","0","0","0","boat","0","3285","1","White_Screen.jpg","5","36","Boat_Colourful.jpg","5"
"071519","15:01:50","2","2","5.0.14.0","2","55","trial1","naming","0","0","0","0","clock","0","4076","1","White_Screen.jpg","4","59","Clock_Digital.jpg","4"
"071519","15:01:50","2","2","5.0.14.0","2","56","trial1","naming","0","0","0","0","siren","0","6995","1","White_Screen.jpg","5","121","BicycleReflector.jpg","5"
"071519","15:01:50","2","2","5.0.14.0","2","57","trial1","naming","0","0","0","0","answering machine","0","10000","1","White_Screen.jpg","4","37","AnsweringMachine.jpg","4"
"071519","15:01:50","2","2","5.0.14.0","2","58","trial1","naming","0","0","0","0","Enter Name","0","181","1","White_Screen.jpg","6","133","Ostrich.jpg","6"
"071519","15:01:50","2","2","5.0.14.0","2","59","trial1","naming","0","0","0","0","door","0","4598","1","White_Screen.jpg","8","109","FuseBox.jpg","8"
"071519","15:01:50","2","2","5.0.14.0","2","60","trial1","naming","0","0","0","0","helmet","0","5018","1","White_Screen.jpg","8","47","Helmet_Bicycle.jpg","8"
"071519","15:01:50","2","2","5.0.14.0","2","61","trial1","naming","0","0","0","0","box","0","4598","1","White_Screen.jpg","6","136","DVDPlayer.jpg","6"
"071519","15:01:50","2","2","5.0.14.0","2","62","trial1","naming","0","0","0","0","frog","0","2624","1","White_Screen.jpg","5","1","Toad.jpg","5"
"071519","15:01:50","2","2","5.0.14.0","2","63","trial1","naming","0","0","0","0","dog","0","3321","1","White_Screen.jpg","5","9","Dog_SaintBernard.jpg","5"
"071519","15:01:50","2","2","5.0.14.0","2","64","trial1","naming","0","0","0","0","jukebox","0","4617","1","White_Screen.jpg","6","147","JukeboxAntique.jpg","6"
"071519","15:01:50","2","2","5.0.14.0","2","65","trial1","naming","0","0","0","0","bird","0","3183","1","White_Screen.jpg","6","176","Bird_Toucan.jpg","6"
"071519","15:01:50","2","2","5.0.14.0","2","66","trial1","naming","0","0","0","0","grater","0","3462","1","White_Screen.jpg","8","129","Cheesegrater_Handheld.jpg","8"
"071519","15:01:50","2","2","5.0.14.0","2","67","trial1","naming","0","0","0","0","roll","0","3920","1","White_Screen.jpg","8","27","Bread_Melon.jpg","8"
"071519","15:01:50","2","2","5.0.14.0","2","68","trial1","naming","0","0","0","0","chocolate","0","3598","1","White_Screen.jpg","7","173","Egg_Chocolate.jpg","7"
"071519","15:01:50","2","2","5.0.14.0","2","69","trial1","naming","0","0","0","0","fork","0","4249","1","White_Screen.jpg","7","166","Fork_Fondue.jpg","7"
"071519","15:01:50","2","2","5.0.14.0","2","70","trial1","naming","0","0","0","0","berries","0","4214","1","White_Screen.jpg","4","126","Currants.jpg","4"
"071519","15:01:50","2","2","5.0.14.0","2","71","trial1","naming","0","0","0","0","shoe","0","3156","1","White_Screen.jpg","9","76","Shoe_Men.jpg","9"
"071519","15:01:50","2","2","5.0.14.0","2","72","trial1","naming","0","0","0","0","dice","0","3588","1","White_Screen.jpg","5","99","Tetrahedron.jpg","5"
"071519","15:01:50","2","2","5.0.14.0","2","73","trial1","naming","0","0","0","0","swan","0","3125","1","White_Screen.jpg","6","175","Swan.jpg","6"
"071519","15:01:50","2","2","5.0.14.0","2","74","trial1","naming","0","0","0","0","lamp post","0","5099","1","White_Screen.jpg","5","162","LampPost_ThreeBulbs.jpg","5"
"071519","15:01:50","2","2","5.0.14.0","2","75","trial1","naming","0","0","0","0","napkin","0","4476","1","White_Screen.jpg","8","82","KitchenCloth.jpg","8"
"071519","15:01:50","2","2","5.0.14.0","2","76","trial1","naming","0","0","0","0","vase","0","3145","1","White_Screen.jpg","6","193","Vase_EarthToned.jpg","6"
"071519","15:01:50","2","2","5.0.14.0","2","77","trial1","naming","0","0","0","0","masher","0","2980","1","White_Screen.jpg","7","4","PotatoMasher_Grate.jpg","7"
"071519","15:01:50","2","2","5.0.14.0","2","78","trial1","naming","0","0","0","0","triangle","0","4271","1","White_Screen.jpg","5","179","PyramidWooden.jpg","5"
"071519","15:01:50","2","2","5.0.14.0","2","79","trial1","naming","0","0","0","0","stairs","0","3353","1","White_Screen.jpg","4","58","Staircase_Curving.jpg","4"
"071519","15:01:50","2","2","5.0.14.0","2","80","trial1","naming","0","0","0","0","block","0","4680","1","White_Screen.jpg","6","128","CinderBlock.jpg","6"
"071519","15:01:50","2","2","5.0.14.0","2","81","trial1","naming","0","0","0","0","desk","0","2965","1","White_Screen.jpg","5","93","Desk_White.jpg","5"
"071519","15:01:50","2","2","5.0.14.0","2","82","trial1","naming","0","0","0","0","taxi sign","0","4636","1","White_Screen.jpg","6","156","Sign_Taxi.jpg","6"
"071519","15:01:50","2","2","5.0.14.0","2","83","trial1","naming","0","0","0","0","bells","0","4648","1","White_Screen.jpg","4","17","Cymbals.jpg","4"
"071519","15:01:50","2","2","5.0.14.0","2","84","trial1","naming","0","0","0","0","step","0","3101","1","White_Screen.jpg","5","191","Exercise_Stepper.jpg","5"
"071519","15:01:50","2","2","5.0.14.0","2","85","trial1","naming","0","0","0","0","crossant","0","7918","1","White_Screen.jpg","5","108","Croissant.jpg","5"
"071519","15:01:50","2","2","5.0.14.0","2","86","trial1","naming","0","0","0","0","ruler","0","2640","1","White_Screen.jpg","4","196","Ruler_Metal.jpg","4"
"071519","15:01:50","2","2","5.0.14.0","2","87","trial1","naming","0","0","0","0","chair","0","2871","1","White_Screen.jpg","6","64","Chair_Office.jpg","6"
"071519","15:01:50","2","2","5.0.14.0","2","88","trial1","naming","0","0","0","0","window","0","3849","1","White_Screen.jpg","7","124","DormerWindow.jpg","7"
"071519","15:01:50","2","2","5.0.14.0","2","89","trial1","naming","0","0","0","0","toaster","0","4842","1","White_Screen.jpg","4","172","Toaster_Antique.jpg","4"
"071519","15:01:50","2","2","5.0.14.0","2","90","trial1","naming","0","0","0","0","bionoculars","0","7608","1","White_Screen.jpg","7","186","OperaGlasses.jpg","7"
"071519","15:01:50","2","2","5.0.14.0","2","91","trial1","naming","0","0","0","0","bench","0","4132","1","White_Screen.jpg","6","86","Bench_Wooden.jpg","6"
"071519","15:01:50","2","2","5.0.14.0","2","92","trial1","naming","0","0","0","0","diving board","0","4065","1","White_Screen.jpg","8","115","DivingBoard.jpg","8"
"071519","15:01:50","2","2","5.0.14.0","2","93","trial1","naming","0","0","0","0","overhang","0","4256","1","White_Screen.jpg","4","6","Awning.jpg","4"
"071519","15:01:50","2","2","5.0.14.0","2","94","trial1","naming","0","0","0","0","espresso machine","0","6406","1","White_Screen.jpg","6","53","EspressoMachine.jpg","6"
"071519","15:01:50","2","2","5.0.14.0","2","95","trial1","naming","0","0","0","0","breifcase","0","5724","1","White_Screen.jpg","5","63","Bag_Computer.jpg","5"
"071519","15:01:50","2","2","5.0.14.0","2","96","trial1","naming","0","0","0","0","drum set","0","3540","1","White_Screen.jpg","5","72","Drum_Set.jpg","5"
"071519","15:01:50","2","2","5.0.14.0","2","97","trial1","naming","0","0","0","0","lights","0","3319","1","White_Screen.jpg","8","80","Light_Fixtures.jpg","8"
"071519","15:01:50","2","2","5.0.14.0","2","98","trial1","naming","0","0","0","0","radio","0","5286","1","White_Screen.jpg","6","143","Phone_Military.jpg","6"
"071519","15:01:50","2","2","5.0.14.0","2","99","trial1","naming","0","0","0","0","bumper car","0","6827","1","White_Screen.jpg","7","65","BumperCar.jpg","7"
"071519","15:01:50","2","2","5.0.14.0","2","100","trial1","naming","0","0","0","0","heater","0","5450","1","White_Screen.jpg","6","163","Heater_Infrared.jpg","6"
"071519","15:01:50","2","2","5.0.14.0","2","101","trial1","naming","0","0","0","0","funnel","0","4320","1","White_Screen.jpg","7","134","Funnel.jpg","7"
"071519","15:01:50","2","2","5.0.14.0","2","103","trial1","naming","0","0","0","0","lobster","0","3655","1","White_Screen.jpg","4","15","Lobster.jpg","4"
"071519","15:01:50","2","2","5.0.14.0","2","104","trial1","naming","0","0","0","0","temp c","0","10000","1","White_Screen.jpg","6","73","Thermostat_Digital.jpg","6"
"071519","15:01:50","2","2","5.0.14.0","2","105","trial1","naming","0","0","0","0","eggplant","0","4505","1","White_Screen.jpg","5","200","Eggplant.jpg","5"
"071519","15:01:50","2","2","5.0.14.0","2","106","trial1","naming","0","0","0","0","pancakes","0","5153","1","White_Screen.jpg","8","111","Pancakes.jpg","8"
"071519","15:01:50","2","2","5.0.14.0","2","107","trial1","naming","0","0","0","0","wraps","0","3768","1","White_Screen.jpg","7","150","Bandage_Wrap.jpg","7"
"071519","15:01:50","2","2","5.0.14.0","2","108","trial1","naming","0","0","0","0","berries","0","3712","1","White_Screen.jpg","3","24","Cranberry.jpg","3"
"071519","15:01:50","2","2","5.0.14.0","2","109","trial1","naming","0","0","0","0","candy","0","2948","1","White_Screen.jpg","5","18","Candy_Lozenge.jpg","5"
"071519","15:01:50","2","2","5.0.14.0","2","110","trial1","naming","0","0","0","0","shake","0","3371","1","White_Screen.jpg","6","3","Milkshake_Chocolate.jpg","6"
"071519","15:01:50","2","2","5.0.14.0","2","111","trial1","naming","0","0","0","0","honey","0","5231","1","White_Screen.jpg","6","192","AmberWithMosquito.jpg","6"
"071519","15:01:50","2","2","5.0.14.0","2","112","trial1","naming","0","0","0","0","monitor","0","3842","1","White_Screen.jpg","7","96","Monitor.jpg","7"
"071519","15:01:50","2","2","5.0.14.0","2","113","trial1","naming","0","0","0","0","blade","0","2933","1","White_Screen.jpg","5","140","Blade_Tablesaw.jpg","5"
"071519","15:01:50","2","2","5.0.14.0","2","114","trial1","naming","0","0","0","0","potty","0","5165","1","White_Screen.jpg","5","45","Outhouse.jpg","5"
"071519","15:01:50","2","2","5.0.14.0","2","115","trial1","naming","0","0","0","0","lizard","0","4304","1","White_Screen.jpg","5","21","Iguana.jpg","5"
"071519","15:01:50","2","2","5.0.14.0","2","116","trial1","naming","0","0","0","0","heart","0","3214","1","White_Screen.jpg","6","161","Pillow_Heart.jpg","6"
"071519","15:01:50","2","2","5.0.14.0","2","117","trial1","naming","0","0","0","0","jig","0","4484","1","White_Screen.jpg","6","41","Hook_Fish.jpg","6"
"071519","15:01:50","2","2","5.0.14.0","2","118","trial1","naming","0","0","0","0","canister","0","3824","1","White_Screen.jpg","7","97","Cannister_GasVintage.jpg","7"
"071519","15:01:50","2","2","5.0.14.0","2","119","trial1","naming","0","0","0","0","pot","0","3958","1","White_Screen.jpg","5","117","Pot_FlowerClay.jpg","5"
"071519","15:01:50","2","2","5.0.14.0","2","120","trial1","naming","0","0","0","0","carriage","0","4375","1","White_Screen.jpg","7","127","Toy_Stroller.jpg","7"
"071519","15:01:50","2","2","5.0.14.0","2","121","trial1","naming","0","0","0","0","art set","0","3840","1","White_Screen.jpg","5","151","ColoringSet.jpg","5"
"071519","15:01:50","2","2","5.0.14.0","2","122","trial1","naming","0","0","0","0","plier","0","4716","1","White_Screen.jpg","5","171","Pliers_NeedleNose.jpg","5"
"071519","15:01:50","2","2","5.0.14.0","2","123","trial1","naming","0","0","0","0","mattress","0","4002","1","White_Screen.jpg","8","69","Mattress.jpg","8"
"071519","15:01:50","2","2","5.0.14.0","2","124","trial1","naming","0","0","0","0","hat","0","3474","1","White_Screen.jpg","6","11","Hat_Beret.jpg","6"
"071519","15:01:50","2","2","5.0.14.0","2","125","trial1","naming","0","0","0","0","missle","0","4350","1","White_Screen.jpg","7","107","Torpedo.jpg","7"
"071519","15:01:50","2","2","5.0.14.0","2","126","trial1","naming","0","0","0","0","sippy cup","0","3573","1","White_Screen.jpg","4","32","Cup_sippy.jpg","4"
"071519","15:01:50","2","2","5.0.14.0","2","127","trial1","naming","0","0","0","0","cherry","0","4096","1","White_Screen.jpg","6","30","Cherry.jpg","6"
"071519","15:01:50","2","2","5.0.14.0","2","128","trial1","naming","0","0","0","0","checkers","0","4056","1","White_Screen.jpg","5","54","Boardgame_Checkers.jpg","5"
"071519","15:01:50","2","2","5.0.14.0","2","129","trial1","naming","0","0","0","0","stool","0","3059","1","White_Screen.jpg","6","114","Stool_Metal.jpg","6"
"071519","15:01:50","2","2","5.0.14.0","2","130","trial1","naming","0","0","0","0","toothbrush","0","4197","1","White_Screen.jpg","5","46","ToothBrush.jpg","5"
"071519","15:01:50","2","2","5.0.14.0","2","131","trial1","naming","0","0","0","0","lips","0","3867","1","White_Screen.jpg","6","92","Lips_Real.jpg","6"
"071519","15:01:50","2","2","5.0.14.0","2","132","trial1","naming","0","0","0","0","ruler","0","3265","1","White_Screen.jpg","9","62","Protractor.jpg","9"
"071519","15:01:50","2","2","5.0.14.0","2","133","trial1","naming","0","0","0","0","gate","0","2910","1","White_Screen.jpg","4","152","Fence_Wooden.jpg","4"
"071519","15:01:50","2","2","5.0.14.0","2","134","trial1","naming","0","0","0","0","tiera","0","6529","1","White_Screen.jpg","5","122","Tiara.jpg","5"
"071519","15:01:50","2","2","5.0.14.0","2","135","trial1","naming","0","0","0","0","doctor bag","0","6214","1","White_Screen.jpg","5","187","Bag_Doctor.jpg","5"
"071519","15:01:50","2","2","5.0.14.0","2","136","trial1","naming","0","0","0","0","olives","0","4928","1","White_Screen.jpg","6","60","Can_Olives.jpg","6"
"071519","15:01:50","2","2","5.0.14.0","2","137","trial1","naming","0","0","0","0","machine","0","5631","1","White_Screen.jpg","6","164","Machine_EKG.jpg","6"
"071519","15:01:50","2","2","5.0.14.0","2","138","trial1","naming","0","0","0","0","antlers","0","3461","1","White_Screen.jpg","5","94","ReindeerHeadband.jpg","5"
"071519","15:01:50","2","2","5.0.14.0","2","139","trial1","naming","0","0","0","0","chairs","0","3355","1","White_Screen.jpg","5","199","Chairs_Stacked.jpg","5"
"071519","15:01:50","2","2","5.0.14.0","2","140","trial1","naming","0","0","0","0","cap","0","2298","1","White_Screen.jpg","6","195","Hat_Baseball.jpg","6"
"071519","15:01:50","2","2","5.0.14.0","2","141","trial1","naming","0","0","0","0","plate","0","3596","1","White_Screen.jpg","6","144","CuttingBoard.jpg","6"
"071519","15:01:50","2","2","5.0.14.0","2","142","trial1","naming","0","0","0","0","keg","0","3121","1","White_Screen.jpg","8","145","Keg.jpg","8"
"071519","15:01:50","2","2","5.0.14.0","2","143","trial1","naming","0","0","0","0","usb pen","0","3690","1","White_Screen.jpg","6","169","USBKey.jpg","6"
"071519","15:01:50","2","2","5.0.14.0","2","144","trial1","naming","0","0","0","0","light","0","3390","1","White_Screen.jpg","6","155","Light_Halogen.jpg","6"
"071519","15:01:50","2","2","5.0.14.0","2","145","trial1","naming","0","0","0","0","counter","0","3853","1","White_Screen.jpg","5","56","Abacus.jpg","5"
"071519","15:01:50","2","2","5.0.14.0","2","146","trial1","naming","0","0","0","0","flute","0","3686","1","White_Screen.jpg","6","184","Clarinet.jpg","6"
"071519","15:01:50","2","2","5.0.14.0","2","147","trial1","naming","0","0","0","0","candle","0","3769","1","White_Screen.jpg","4","50","Candle_Blue.jpg","4"
"071519","15:01:50","2","2","5.0.14.0","2","148","trial1","naming","0","0","0","0","toaster","0","3685","1","White_Screen.jpg","5","139","Toaster_MetalSleek.jpg","5"
"071519","15:01:50","2","2","5.0.14.0","2","149","trial1","naming","0","0","0","0","strainer","0","3049","1","White_Screen.jpg","6","48","Steamer.jpg","6"
"071519","15:01:50","2","2","5.0.14.0","2","150","trial1","naming","0","0","0","0","plug","0","4092","1","White_Screen.jpg","6","177","ElectricOutlet.jpg","6"
"071519","15:01:50","2","2","5.0.14.0","2","151","trial1","naming","0","0","0","0","dog","0","3095","1","White_Screen.jpg","5","135","Dog_CockerSpaniel.jpg","5"
"071519","15:01:50","2","2","5.0.14.0","2","152","trial1","naming","0","0","0","0","slide","0","3138","1","White_Screen.jpg","6","95","Slide.jpg","6"
"071519","15:01:50","2","2","5.0.14.0","2","154","trial1","naming","0","0","0","0","bike","0","3173","1","White_Screen.jpg","4","180","Bicycle_Kids.jpg","4"
"071519","15:01:50","2","2","5.0.14.0","2","155","trial1","naming","0","0","0","0","seesawEnter Name","0","8903","1","White_Screen.jpg","6","106","Toy_SeeSaw.jpg","6"
"071519","15:01:50","2","2","5.0.14.0","2","156","trial1","naming","0","0","0","0","sushi","0","2877","1","White_Screen.jpg","6","77","Sushi.jpg","6"
"071519","15:01:50","2","2","5.0.14.0","2","157","trial1","naming","0","0","0","0","lemon","0","2742","1","White_Screen.jpg","6","90","Bowl_Lemons.jpg","6"
"071519","15:01:50","2","2","5.0.14.0","2","158","trial1","naming","0","0","0","0","pan","0","2686","1","White_Screen.jpg","6","70","PanCooking.jpg","6"
"071519","15:01:50","2","2","5.0.14.0","2","159","trial1","naming","0","0","0","0","enevelope","0","4850","1","White_Screen.jpg","5","153","LetterMail.jpg","5"
"071519","15:01:50","2","2","5.0.14.0","2","160","trial1","naming","0","0","0","0","chess","0","3866","1","White_Screen.jpg","7","68","ChessPiece_Bishop.jpg","7"
"071519","15:01:50","2","2","5.0.14.0","2","161","trial1","naming","0","0","0","0","sink","0","2771","1","White_Screen.jpg","6","102","Sink_Bathroom.jpg","6"
"071519","15:01:50","2","2","5.0.14.0","2","162","trial1","naming","0","0","0","0","stoker","0","3148","1","White_Screen.jpg","7","42","Bellows.jpg","7"
"071519","15:01:50","2","2","5.0.14.0","2","163","trial1","naming","0","0","0","0","ashtray","0","4212","1","White_Screen.jpg","5","2","Ashtray_Cigarettes.jpg","5"
"071519","15:01:50","2","2","5.0.14.0","2","164","trial1","naming","0","0","0","0","onion","0","4180","1","White_Screen.jpg","9","148","OnionRed.jpg","9"
"071519","15:01:50","2","2","5.0.14.0","2","165","trial1","naming","0","0","0","0","flint","0","4107","1","White_Screen.jpg","5","79","FlintIgniter.jpg","5"
"071519","15:01:50","2","2","5.0.14.0","2","166","trial1","naming","0","0","0","0","ploar bear","0","3383","1","White_Screen.jpg","5","110","BearPolar.jpg","5"
"071519","15:01:50","2","2","5.0.14.0","2","167","trial1","naming","0","0","0","0","staples","0","3086","1","White_Screen.jpg","5","38","Staples.jpg","5"
"071519","15:01:50","2","2","5.0.14.0","2","168","trial1","naming","0","0","0","0","spoon'","0","3686","1","White_Screen.jpg","4","168","Spoon_Serving.jpg","4"
"071519","15:01:50","2","2","5.0.14.0","2","169","trial1","naming","0","0","0","0","zucchini","0","4792","1","White_Screen.jpg","5","119","Cucumber.jpg","5"
"071519","15:01:50","2","2","5.0.14.0","2","170","trial1","naming","0","0","0","0","swing","0","3439","1","White_Screen.jpg","5","103","Swing_Child.jpg","5"
"071519","15:01:50","2","2","5.0.14.0","2","171","trial1","naming","0","0","0","0","flowers","0","3048","1","White_Screen.jpg","5","158","Flower_Orchid.jpg","5"
"071519","15:01:50","2","2","5.0.14.0","2","172","trial1","naming","0","0","0","0","nerf gun","0","4554","1","White_Screen.jpg","5","26","Gun_Nerf.jpg","5"
"071519","15:01:50","2","2","5.0.14.0","2","173","trial1","naming","0","0","0","0","deep fryer","0","5332","1","White_Screen.jpg","7","154","DeepFryer.jpg","7"
"071519","15:01:50","2","2","5.0.14.0","2","174","trial1","naming","0","0","0","0","earth","0","3124","1","White_Screen.jpg","9","40","Earth_Planet.jpg","9"
"071519","15:01:50","2","2","5.0.14.0","2","175","trial1","naming","0","0","0","0","window","0","3437","1","White_Screen.jpg","8","181","Window.jpg","8"
"071519","15:01:50","2","2","5.0.14.0","2","176","trial1","naming","0","0","0","0","blanket","0","4302","1","White_Screen.jpg","5","190","ClothRed.jpg","5"
"071519","15:01:50","2","2","5.0.14.0","2","177","trial1","naming","0","0","0","0","football","0","3723","1","White_Screen.jpg","5","123","Ball_Football.jpg","5"
"071519","15:01:50","2","2","5.0.14.0","2","178","trial1","naming","0","0","0","0","chainsaw","0","5849","1","White_Screen.jpg","6","52","Chainsaw.jpg","6"
"071519","15:01:50","2","2","5.0.14.0","2","179","trial1","naming","0","0","0","0","mixer","0","2916","1","White_Screen.jpg","7","23","Mixer_Hand.jpg","7"
"071519","15:01:50","2","2","5.0.14.0","2","180","trial1","naming","0","0","0","0","ice cubers","0","3697","1","White_Screen.jpg","7","178","IceCubes copy.jpg","7"
"071519","15:01:50","2","2","5.0.14.0","2","181","trial1","naming","0","0","0","0","horn","0","3958","1","White_Screen.jpg","6","74","Bugle.jpg","6"
"071519","15:01:50","2","2","5.0.14.0","2","182","trial1","naming","0","0","0","0","lizaed","0","3185","1","White_Screen.jpg","5","146","Gecko.jpg","5"
"071519","15:01:50","2","2","5.0.14.0","2","183","trial1","naming","0","0","0","0","ice cubes","0","4401","1","White_Screen.jpg","4","194","IceCubes.jpg","4"
"071519","15:01:50","2","2","5.0.14.0","2","184","trial1","naming","0","0","0","0","water gun","0","4644","1","White_Screen.jpg","7","91","WaterGun.jpg","7"
"071519","15:01:50","2","2","5.0.14.0","2","185","trial1","naming","0","0","0","0","teddy bear","0","3948","1","White_Screen.jpg","5","10","Toy_BearBrownPlushie.jpg","5"
"071519","15:01:50","2","2","5.0.14.0","2","186","trial1","naming","0","0","0","0","rake","0","2689","1","White_Screen.jpg","7","130","Toy_SandRake.jpg","7"
"071519","15:01:50","2","2","5.0.14.0","2","187","trial1","naming","0","0","0","0","moose","0","3416","1","White_Screen.jpg","6","142","Toy_Moose.jpg","6"
"071519","15:01:50","2","2","5.0.14.0","2","188","trial1","naming","0","0","0","0","gun","0","6637","1","White_Screen.jpg","6","89","Gun_Bazooka.jpg","6"
"071519","15:01:50","2","2","5.0.14.0","2","189","trial1","naming","0","0","0","0","poker board","0","4339","1","White_Screen.jpg","7","170","Table_Poker.jpg","7"
"071519","15:01:50","2","2","5.0.14.0","2","190","trial1","naming","0","0","0","0","makeup","0","3365","1","White_Screen.jpg","7","16","Makeup_Compact.jpg","7"
"071519","15:01:50","2","2","5.0.14.0","2","191","trial1","naming","0","0","0","0","truck","0","4333","1","White_Screen.jpg","8","57","Truck_Army.jpg","8"
"071519","15:01:50","2","2","5.0.14.0","2","192","trial1","naming","0","0","0","0","clip","0","3416","1","White_Screen.jpg","4","33","Clip_Binder.jpg","4"
"071519","15:01:50","2","2","5.0.14.0","2","193","trial1","naming","0","0","0","0","party hat","0","4081","1","White_Screen.jpg","6","141","Hat_Party.jpg","6"
"071519","15:01:50","2","2","5.0.14.0","2","194","trial1","naming","0","0","0","0","egg crate","0","3782","1","White_Screen.jpg","5","81","Foam_Accoustic.jpg","5"
"071519","15:01:50","2","2","5.0.14.0","2","195","trial1","naming","0","0","0","0","glue","0","3992","1","White_Screen.jpg","6","87","EyeDrops.jpg","6"
"071519","15:01:50","2","2","5.0.14.0","2","196","trial1","naming","0","0","0","0","hose","0","3034","1","White_Screen.jpg","8","149","Hose_Garden.jpg","8"
"071519","15:01:50","2","2","5.0.14.0","2","197","trial1","naming","0","0","0","0","brush","0","3120","1","White_Screen.jpg","4","28","Brush_Windshield.jpg","4"
"071519","15:01:50","2","2","5.0.14.0","2","198","trial1","naming","0","0","0","0","off roader","0","6149","1","White_Screen.jpg","4","157","AllTerrain.jpg","4"
"071519","15:01:50","2","2","5.0.14.0","2","199","trial1","naming","0","0","0","0","cactus pear","0","5347","1","White_Screen.jpg","8","137","Fruit_Cactus.jpg","8"
"071519","15:01:50","2","2","5.0.14.0","2","200","trial1","naming","0","0","0","0","golf clubs","0","6753","1","White_Screen.jpg","6","29","Golf_Bag.jpg","6"
"071519","15:01:50","2","2","5.0.14.0","2","201","trial1","naming","0","0","0","0","movie record","0","9652","1","White_Screen.jpg","4","189","MovieSlate.jpg","4"
"071519","15:01:50","2","2","5.0.14.0","2","202","trial1","naming","0","0","0","0","lighter","0","6667","1","White_Screen.jpg","4","185","CarLighter.jpg","4"
"071519","15:01:50","2","2","5.0.14.0","2","203","trial1","naming","0","0","0","0","tricycle","0","4698","1","White_Screen.jpg","4","35","Tricycle.jpg","4"
"071519","15:01:50","2","2","5.0.14.0","3","1","demographics_block","gender","0","0","0","0","Female","1","16578","0","0","0","0","0","0"
"071519","15:01:50","2","2","5.0.14.0","3","1","demographics_block","age","0","0","0","0","37","1","16578","0","0","0","0","0","0"
"071519","15:01:50","2","2","5.0.14.0","3","1","demographics_block","education","0","0","0","0","16","1","16578","0","0","0","0","0","0"
"071519","15:01:50","2","2","5.0.14.0","3","2","demographics_block","left_right_handed","0","0","0","0","Right","1","5205","0","0","0","0","0","0"
"071519","15:01:50","2","2","5.0.14.0","3","2","demographics_block","raceoption1","0","0","0","0","0","1","5205","0","0","0","0","0","0"
"071519","15:01:50","2","2","5.0.14.0","3","2","demographics_block","raceoption2","0","0","0","0","","1","5205","0","0","0","0","0","0"
"071519","15:01:50","2","2","5.0.14.0","3","2","demographics_block","raceoption3","0","0","0","0","","1","5205","0","0","0","0","0","0"
"071519","15:01:50","2","2","5.0.14.0","3","2","demographics_block","raceoption4","0","0","0","0","","1","5205","0","0","0","0","0","0"
"071519","15:01:50","2","2","5.0.14.0","3","2","demographics_block","raceoption5","0","0","0","0","","1","5205","0","0","0","0","0","0"
"071519","15:01:50","2","2","5.0.14.0","3","2","demographics_block","raceoption6","0","0","0","0","","1","5205","0","0","0","0","0","0"
"071519","15:01:50","2","2","5.0.14.0","3","2","demographics_block","raceoption7","0","0","0","0","","1","5205","0","0","0","0","0","0"
"071519","15:01:50","2","2","5.0.14.0","3","2","demographics_block","raceoption8","0","0","0","0","","1","5205","0","0","0","0","0","0"
"071519","15:01:50","2","2","5.0.14.0","3","2","demographics_block","raceoption9","0","0","0","0","","1","5205","0","0","0","0","0","0"
"071519","15:01:50","2","2","5.0.14.0","3","2","demographics_block","raceother","0","0","0","0","","1","5205","0","0","0","0","0","0"
"071519","15:01:50","2","2","5.0.14.0","3","2","demographics_block","raceother","0","0","0","0","","1","5205","0","0","0","0","0","0"
"071519","15:01:50","2","2","5.0.14.0","3","2","demographics_block","english_language","0","0","0","0","Yes","1","5205","0","0","0","0","0","0"
"071519","15:01:50","2","2","5.0.14.0","3","2","demographics_block","english_languageother","0","0","0","0","","1","5205","0","0","0","0","0","0"
"071519","15:01:50","2","2","5.0.14.0","3","3","demographics_block","eyesight","0","0","0","0","Yes","1","7111","0","0","0","0","0","0"
"071519","15:01:50","2","2","5.0.14.0","3","3","demographics_block","colorblind","0","0","0","0","No","1","7111","0","0","0","0","0","0"
"071519","15:01:50","2","2","5.0.14.0","4","1","worker_id_block","worker_id_textbox","0","0","0","0","A2EI9E6EBZEZO1","1","6600","0","0","0","0","0","0"
"072419","15:58:50","3","3","5.0.14.0","2","1","trial1","naming","0","0","0","0","fence","0","4505","1","White_Screen.jpg","21","152","Fence_Wooden.jpg","21"
"072419","15:58:50","3","3","5.0.14.0","2","2","trial1","naming","0","0","0","0","pyarmid","0","5469","1","White_Screen.jpg","5","188","Pyramid.jpg","5"
"072419","15:58:50","3","3","5.0.14.0","2","3","trial1","naming","0","0","0","0","wood","0","6145","1","White_Screen.jpg","4","144","CuttingBoard.jpg","4"
"072419","15:58:50","3","3","5.0.14.0","2","4","trial1","naming","0","0","0","0","grapes","0","4339","1","White_Screen.jpg","5","24","Cranberry.jpg","5"
"072419","15:58:50","3","3","5.0.14.0","2","5","trial1","naming","0","0","0","0","lemons","0","4908","1","White_Screen.jpg","5","90","Bowl_Lemons.jpg","5"
"072419","15:58:50","3","3","5.0.14.0","2","6","trial1","naming","0","0","0","0","taxi light","0","6968","1","White_Screen.jpg","5","156","Sign_Taxi.jpg","5"
"072419","15:58:50","3","3","5.0.14.0","2","7","trial1","naming","0","0","0","0","thermostate","0","5085","1","White_Screen.jpg","5","37","AnsweringMachine.jpg","5"
"072419","15:58:50","3","3","5.0.14.0","2","8","trial1","naming","0","0","0","0","heart monitor","0","7719","1","White_Screen.jpg","5","164","Machine_EKG.jpg","5"
"072419","15:58:50","3","3","5.0.14.0","2","9","trial1","naming","0","0","0","0","desk","0","3358","1","White_Screen.jpg","12","100","AlcoholBar.jpg","12"
"072419","15:58:50","3","3","5.0.14.0","2","10","trial1","naming","0","0","0","0","candy","0","2237","1","White_Screen.jpg","4","18","Candy_Lozenge.jpg","4"
"072419","15:58:50","3","3","5.0.14.0","2","11","trial1","naming","0","0","0","0","trumpet","0","2718","1","White_Screen.jpg","11","74","Bugle.jpg","11"
"072419","15:58:50","3","3","5.0.14.0","2","12","trial1","naming","0","0","0","0","stapler","0","5912","1","White_Screen.jpg","5","98","Embosser.jpg","5"
"072419","15:58:50","3","3","5.0.14.0","2","13","trial1","naming","0","0","0","0","wash cloth","0","3454","1","White_Screen.jpg","5","82","KitchenCloth.jpg","5"
"072419","15:58:50","3","3","5.0.14.0","2","14","trial1","naming","0","0","0","0","seal","0","1854","1","White_Screen.jpg","5","83","Seal_animal.jpg","5"
"072419","15:58:50","3","3","5.0.14.0","2","15","trial1","naming","0","0","0","0","chairs","0","1999","1","White_Screen.jpg","5","199","Chairs_Stacked.jpg","5"
"072419","15:58:50","3","3","5.0.14.0","2","16","trial1","naming","0","0","0","0","pelican","0","4013","1","White_Screen.jpg","5","176","Bird_Toucan.jpg","5"
"072419","15:58:50","3","3","5.0.14.0","2","17","trial1","naming","0","0","0","0","plant pot","0","4076","1","White_Screen.jpg","5","117","Pot_FlowerClay.jpg","5"
"072419","15:58:50","3","3","5.0.14.0","2","18","trial1","naming","0","0","0","0","peanuts","0","3664","1","White_Screen.jpg","5","182","Nuts_PeanutsPeeled.jpg","5"
"072419","15:58:50","3","3","5.0.14.0","2","19","trial1","naming","0","0","0","0","seasaw","0","2258","1","White_Screen.jpg","5","106","Toy_SeeSaw.jpg","5"
"072419","15:58:50","3","3","5.0.14.0","2","20","trial1","naming","0","0","0","0","bike handle","0","4025","1","White_Screen.jpg","5","67","BicycleBrake.jpg","5"
"072419","15:58:50","3","3","5.0.14.0","2","21","trial1","naming","0","0","0","0","icecream maker","0","5115","1","White_Screen.jpg","5","53","EspressoMachine.jpg","5"
"072419","15:58:50","3","3","5.0.14.0","2","22","trial1","naming","0","0","0","0","frier","0","8669","1","White_Screen.jpg","5","4","PotatoMasher_Grate.jpg","5"
"072419","15:58:50","3","3","5.0.14.0","2","23","trial1","naming","0","0","0","0","milk can","0","4932","1","White_Screen.jpg","5","5","Can_Milk.jpg","5"
"072419","15:58:50","3","3","5.0.14.0","2","24","trial1","naming","0","0","0","0","pumpkin holder","0","6503","1","White_Screen.jpg","5","25","Cornucopia.jpg","5"
"072419","15:58:50","3","3","5.0.14.0","2","25","trial1","naming","0","0","0","0","water gun","0","3541","1","White_Screen.jpg","5","91","WaterGun.jpg","5"
"072419","15:58:50","3","3","5.0.14.0","2","26","trial1","naming","0","0","0","0","guacamole","0","4755","1","White_Screen.jpg","5","20","Guacamole.jpg","5"
"072419","15:58:50","3","3","5.0.14.0","2","27","trial1","naming","0","0","0","0","ostrache","0","4052","1","White_Screen.jpg","5","133","Ostrich.jpg","5"
"072419","15:58:50","3","3","5.0.14.0","2","28","trial1","naming","0","0","0","0","baby bottle","0","3815","1","White_Screen.jpg","5","87","EyeDrops.jpg","5"
"072419","15:58:50","3","3","5.0.14.0","2","29","trial1","naming","0","0","0","0","drum set","0","2499","1","White_Screen.jpg","4","72","Drum_Set.jpg","4"
"072419","15:58:50","3","3","5.0.14.0","2","30","trial1","naming","0","0","0","0","four wheeler","0","2693","1","White_Screen.jpg","6","157","AllTerrain.jpg","6"
"072419","15:58:50","3","3","5.0.14.0","2","31","trial1","naming","0","0","0","0","baby carage","0","10000","1","White_Screen.jpg","5","127","Toy_Stroller.jpg","5"
"072419","15:58:50","3","3","5.0.14.0","2","32","trial1","naming","0","0","0","0","Enter Name","0","123","1","White_Screen.jpg","5","116","Radio_Vintage.jpg","5"
"072419","15:58:50","3","3","5.0.14.0","2","33","trial1","naming","0","0","0","0","ruler","0","3717","1","White_Screen.jpg","5","196","Ruler_Metal.jpg","5"
"072419","15:58:50","3","3","5.0.14.0","2","34","trial1","naming","0","0","0","0","checker board","0","3962","1","White_Screen.jpg","5","54","Boardgame_Checkers.jpg","5"
"072419","15:58:50","3","3","5.0.14.0","2","35","trial1","naming","0","0","0","0","pot","0","4201","1","White_Screen.jpg","4","193","Vase_EarthToned.jpg","4"
"072419","15:58:50","3","3","5.0.14.0","2","36","trial1","naming","0","0","0","0","candle stand","0","4167","1","White_Screen.jpg","5","71","LumiereBeautyBeast.jpg","5"
"072419","15:58:50","3","3","5.0.14.0","2","37","trial1","naming","0","0","0","0","drums","0","4910","1","White_Screen.jpg","4","17","Cymbals.jpg","4"
"072419","15:58:50","3","3","5.0.14.0","2","38","trial1","naming","0","0","0","0","rooster","0","2139","1","White_Screen.jpg","5","12","Toy_Rooster.jpg","5"
"072419","15:58:50","3","3","5.0.14.0","2","39","trial1","naming","0","0","0","0","bike light","0","3889","1","White_Screen.jpg","5","121","BicycleReflector.jpg","5"
"072419","15:58:50","3","3","5.0.14.0","2","40","trial1","naming","0","0","0","0","mail","0","2071","1","White_Screen.jpg","5","153","LetterMail.jpg","5"
"072419","15:58:50","3","3","5.0.14.0","2","41","trial1","naming","0","0","0","0","seat","0","6620","1","White_Screen.jpg","5","165","Jacks.jpg","5"
"072419","15:58:50","3","3","5.0.14.0","2","42","trial1","naming","0","0","0","0","smoothie","0","2482","1","White_Screen.jpg","5","34","Milkshake_Strawberry.jpg","5"
"072419","15:58:50","3","3","5.0.14.0","2","43","trial1","naming","0","0","0","0","pineapple","0","3874","1","White_Screen.jpg","4","137","Fruit_Cactus.jpg","4"
"072419","15:58:50","3","3","5.0.14.0","2","44","trial1","naming","0","0","0","0","chair","0","7399","1","White_Screen.jpg","5","68","ChessPiece_Bishop.jpg","5"
"072419","15:58:50","3","3","5.0.14.0","2","45","trial1","naming","0","0","0","0","alien toy","0","4558","1","White_Screen.jpg","7","198","Toy_Alien.jpg","7"
"072419","15:58:50","3","3","5.0.14.0","2","46","trial1","naming","0","0","0","0","car washer","0","4105","1","White_Screen.jpg","4","28","Brush_Windshield.jpg","4"
"072419","15:58:50","3","3","5.0.14.0","2","47","trial1","naming","0","0","0","0","hat","0","1496","1","White_Screen.jpg","5","195","Hat_Baseball.jpg","5"
"072419","15:58:50","3","3","5.0.14.0","2","48","trial1","naming","0","0","0","0","sheep","0","1941","1","White_Screen.jpg","5","55","Toy_LambPlushie.jpg","5"
"072419","15:58:50","3","3","5.0.14.0","2","49","trial1","naming","0","0","0","0","swan","0","1986","1","White_Screen.jpg","5","175","Swan.jpg","5"
"072419","15:58:50","3","3","5.0.14.0","2","50","trial1","naming","0","0","0","0","staircase","0","2339","1","White_Screen.jpg","5","58","Staircase_Curving.jpg","5"
"072419","15:58:50","3","3","5.0.14.0","2","52","trial1","naming","0","0","0","0","lizard","0","2220","1","White_Screen.jpg","5","146","Gecko.jpg","5"
"072419","15:58:50","3","3","5.0.14.0","2","53","trial1","naming","0","0","0","0","cigarettes","0","3589","1","White_Screen.jpg","5","2","Ashtray_Cigarettes.jpg","5"
"072419","15:58:50","3","3","5.0.14.0","2","54","trial1","naming","0","0","0","0","video tape","0","5496","1","White_Screen.jpg","6","167","Projector_Film.jpg","6"
"072419","15:58:50","3","3","5.0.14.0","2","55","trial1","naming","0","0","0","0","gas pump","0","3085","1","White_Screen.jpg","5","160","GasStation.jpg","5"
"072419","15:58:50","3","3","5.0.14.0","2","56","trial1","naming","0","0","0","0","bird house","0","3199","1","White_Screen.jpg","5","75","Birdhouse.jpg","5"
"072419","15:58:50","3","3","5.0.14.0","2","57","trial1","naming","0","0","0","0","smoothie","0","4343","1","White_Screen.jpg","5","3","Milkshake_Chocolate.jpg","5"
"072419","15:58:50","3","3","5.0.14.0","2","58","trial1","naming","0","0","0","0","music player","0","3712","1","White_Screen.jpg","5","147","JukeboxAntique.jpg","5"
"072419","15:58:50","3","3","5.0.14.0","2","59","trial1","naming","0","0","0","0","fish bait","0","3512","1","White_Screen.jpg","5","41","Hook_Fish.jpg","5"
"072419","15:58:50","3","3","5.0.14.0","2","60","trial1","naming","0","0","0","0","zapper","0","3898","1","White_Screen.jpg","5","8","Table_Saw.jpg","5"
"072419","15:58:50","3","3","5.0.14.0","2","61","trial1","naming","0","0","0","0","tv","0","2292","1","White_Screen.jpg","5","96","Monitor.jpg","5"
"072419","15:58:50","3","3","5.0.14.0","2","62","trial1","naming","0","0","0","0","wackers","0","6198","1","White_Screen.jpg","5","43","HedgeShears.jpg","5"
"072419","15:58:50","3","3","5.0.14.0","2","63","trial1","naming","0","0","0","0","glass","0","3537","1","White_Screen.jpg","4","66","Mug_Ceramic.jpg","4"
"072419","15:58:50","3","3","5.0.14.0","2","64","trial1","naming","0","0","0","0","stand","0","4662","1","White_Screen.jpg","5","61","PuppetTheatre_BlueRed.jpg","5"
"072419","15:58:50","3","3","5.0.14.0","2","65","trial1","naming","0","0","0","0","hat","0","1886","1","White_Screen.jpg","5","11","Hat_Beret.jpg","5"
"072419","15:58:50","3","3","5.0.14.0","2","66","trial1","naming","0","0","0","0","lamp","0","2032","1","White_Screen.jpg","5","162","LampPost_ThreeBulbs.jpg","5"
"072419","15:58:50","3","3","5.0.14.0","2","67","trial1","naming","0","0","0","0","cannon","0","2078","1","White_Screen.jpg","5","186","OperaGlasses.jpg","5"
"072419","15:58:50","3","3","5.0.14.0","2","68","trial1","naming","0","0","0","0","hat","0","1650","1","White_Screen.jpg","5","141","Hat_Party.jpg","5"
"072419","15:58:50","3","3","5.0.14.0","2","69","trial1","naming","0","0","0","0","window","0","2026","1","White_Screen.jpg","6","124","DormerWindow.jpg","6"
"072419","15:58:50","3","3","5.0.14.0","2","70","trial1","naming","0","0","0","0","shoe","0","1795","1","White_Screen.jpg","5","76","Shoe_Men.jpg","5"
"072419","15:58:50","3","3","5.0.14.0","2","71","trial1","naming","0","0","0","0","spiral","0","7245","1","White_Screen.jpg","6","140","Blade_Tablesaw.jpg","6"
"072419","15:58:50","3","3","5.0.14.0","2","72","trial1","naming","0","0","0","0","casino table","0","4918","1","White_Screen.jpg","5","170","Table_Poker.jpg","5"
"072419","15:58:50","3","3","5.0.14.0","2","73","trial1","naming","0","0","0","0","bench","0","2381","1","White_Screen.jpg","5","86","Bench_Wooden.jpg","5"
"072419","15:58:50","3","3","5.0.14.0","2","74","trial1","naming","0","0","0","0","skull","0","3622","1","White_Screen.jpg","5","19","HumanSkull.jpg","5"
"072419","15:58:50","3","3","5.0.14.0","2","75","trial1","naming","0","0","0","0","macrocos","0","7599","1","White_Screen.jpg","4","7","Maraca.jpg","4"
"072419","15:58:50","3","3","5.0.14.0","2","76","trial1","naming","0","0","0","0","chainsaw","0","4025","1","White_Screen.jpg","5","52","Chainsaw.jpg","5"
"072419","15:58:50","3","3","5.0.14.0","2","77","trial1","naming","0","0","0","0","bug zapper","0","4654","1","White_Screen.jpg","5","163","Heater_Infrared.jpg","5"
"072419","15:58:50","3","3","5.0.14.0","2","78","trial1","naming","0","0","0","0","chain","0","2018","1","White_Screen.jpg","5","159","MetalChain.jpg","5"
"072419","15:58:50","3","3","5.0.14.0","2","79","trial1","naming","0","0","0","0","playdo","0","4187","1","White_Screen.jpg","5","22","Ginger.jpg","5"
"072419","15:58:50","3","3","5.0.14.0","2","80","trial1","naming","0","0","0","0","phone","0","3082","1","White_Screen.jpg","5","143","Phone_Military.jpg","5"
"072419","15:58:50","3","3","5.0.14.0","2","81","trial1","naming","0","0","0","0","bee","0","2700","1","White_Screen.jpg","5","192","AmberWithMosquito.jpg","5"
"072419","15:58:50","3","3","5.0.14.0","2","82","trial1","naming","0","0","0","0","dog bone","0","2048","1","White_Screen.jpg","5","183","DogToy.jpg","5"
"072419","15:58:50","3","3","5.0.14.0","2","83","trial1","naming","0","0","0","0","scale","0","2396","1","White_Screen.jpg","5","191","Exercise_Stepper.jpg","5"
"072419","15:58:50","3","3","5.0.14.0","2","84","trial1","naming","0","0","0","0","dice","0","2357","1","White_Screen.jpg","5","99","Tetrahedron.jpg","5"
"072419","15:58:50","3","3","5.0.14.0","2","85","trial1","naming","0","0","0","0","chair","0","2071","1","White_Screen.jpg","5","31","Stool_Camping.jpg","5"
"072419","15:58:50","3","3","5.0.14.0","2","86","trial1","naming","0","0","0","0","cherry","0","2081","1","White_Screen.jpg","5","30","Cherry.jpg","5"
"072419","15:58:50","3","3","5.0.14.0","2","87","trial1","naming","0","0","0","0","toothbrush","0","3307","1","White_Screen.jpg","5","46","ToothBrush.jpg","5"
"072419","15:58:50","3","3","5.0.14.0","2","88","trial1","naming","0","0","0","0","dvd player","0","3689","1","White_Screen.jpg","5","136","DVDPlayer.jpg","5"
"072419","15:58:50","3","3","5.0.14.0","2","89","trial1","naming","0","0","0","0","peanuts","0","2337","1","White_Screen.jpg","5","101","Nuts_Peanuts.jpg","5"
"072419","15:58:50","3","3","5.0.14.0","2","90","trial1","naming","0","0","0","0","chair","0","1909","1","White_Screen.jpg","5","114","Stool_Metal.jpg","5"
"072419","15:58:50","3","3","5.0.14.0","2","91","trial1","naming","0","0","0","0","earth","0","1758","1","White_Screen.jpg","5","40","Earth_Planet.jpg","5"
"072419","15:58:50","3","3","5.0.14.0","2","92","trial1","naming","0","0","0","0","toaster","0","4134","1","White_Screen.jpg","5","139","Toaster_MetalSleek.jpg","5"
"072419","15:58:50","3","3","5.0.14.0","2","93","trial1","naming","0","0","0","0","staples","0","2642","1","White_Screen.jpg","5","38","Staples.jpg","5"
"072419","15:58:50","3","3","5.0.14.0","2","94","trial1","naming","0","0","0","0","meat sticker","0","6850","1","White_Screen.jpg","5","166","Fork_Fondue.jpg","5"
"072419","15:58:50","3","3","5.0.14.0","2","95","trial1","naming","0","0","0","0","desk","0","1839","1","White_Screen.jpg","5","93","Desk_White.jpg","5"
"072419","15:58:50","3","3","5.0.14.0","2","96","trial1","naming","0","0","0","0","hose","0","1582","1","White_Screen.jpg","12","149","Hose_Garden.jpg","12"
"072419","15:58:50","3","3","5.0.14.0","2","97","trial1","naming","0","0","0","0","reindeer hat","0","4448","1","White_Screen.jpg","12","94","ReindeerHeadband.jpg","12"
"072419","15:58:50","3","3","5.0.14.0","2","98","trial1","naming","0","0","0","0","potato","0","2115","1","White_Screen.jpg","5","112","Potato.jpg","5"
"072419","15:58:50","3","3","5.0.14.0","2","99","trial1","naming","0","0","0","0","frier","0","1868","1","White_Screen.jpg","5","154","DeepFryer.jpg","5"
"072419","15:58:50","3","3","5.0.14.0","2","100","trial1","naming","0","0","0","0","medical kit","0","3042","1","White_Screen.jpg","5","84","Box_FirstAidOpen.jpg","5"
"072419","15:58:50","3","3","5.0.14.0","2","101","trial1","naming","0","0","0","0","lips","0","2003","1","White_Screen.jpg","5","92","Lips_Real.jpg","5"
"072419","15:58:50","3","3","5.0.14.0","2","103","trial1","naming","0","0","0","0","plate","0","3133","1","White_Screen.jpg","6","118","Plate_Ceramic.jpg","6"
"072419","15:58:50","3","3","5.0.14.0","2","104","trial1","naming","0","0","0","0","bathroom","0","4408","1","White_Screen.jpg","5","45","Outhouse.jpg","5"
"072419","15:58:50","3","3","5.0.14.0","2","105","trial1","naming","0","0","0","0","rake","0","3731","1","White_Screen.jpg","5","130","Toy_SandRake.jpg","5"
"072419","15:58:50","3","3","5.0.14.0","2","106","trial1","naming","0","0","0","0","grapes","0","3777","1","White_Screen.jpg","4","60","Can_Olives.jpg","4"
"072419","15:58:50","3","3","5.0.14.0","2","107","trial1","naming","0","0","0","0","nerf gun","0","2725","1","White_Screen.jpg","5","26","Gun_Nerf.jpg","5"
"072419","15:58:50","3","3","5.0.14.0","2","108","trial1","naming","0","0","0","0","rug","0","2999","1","White_Screen.jpg","4","150","Bandage_Wrap.jpg","4"
"072419","15:58:50","3","3","5.0.14.0","2","109","trial1","naming","0","0","0","0","trumpet","0","3432","1","White_Screen.jpg","6","184","Clarinet.jpg","6"
"072419","15:58:50","3","3","5.0.14.0","2","110","trial1","naming","0","0","0","0","bazooka","0","3097","1","White_Screen.jpg","5","89","Gun_Bazooka.jpg","5"
"072419","15:58:50","3","3","5.0.14.0","2","111","trial1","naming","0","0","0","0","outlet","0","5314","1","White_Screen.jpg","5","172","Toaster_Antique.jpg","5"
"072419","15:58:50","3","3","5.0.14.0","2","112","trial1","naming","0","0","0","0","onion","0","2274","1","White_Screen.jpg","5","148","OnionRed.jpg","5"
"072419","15:58:50","3","3","5.0.14.0","2","113","trial1","naming","0","0","0","0","window","0","1608","1","White_Screen.jpg","5","181","Window.jpg","5"
"072419","15:58:50","3","3","5.0.14.0","2","114","trial1","naming","0","0","0","0","frog","0","1719","1","White_Screen.jpg","5","1","Toad.jpg","5"
"072419","15:58:50","3","3","5.0.14.0","2","115","trial1","naming","0","0","0","0","snowboard","0","2204","1","White_Screen.jpg","5","125","Snowboard.jpg","5"
"072419","15:58:50","3","3","5.0.14.0","2","116","trial1","naming","0","0","0","0","icecream","0","2300","1","White_Screen.jpg","5","197","IceCream_Chocolate.jpg","5"
"072419","15:58:50","3","3","5.0.14.0","2","117","trial1","naming","0","0","0","0","water container","0","3102","1","White_Screen.jpg","5","145","Keg.jpg","5"
"072419","15:58:50","3","3","5.0.14.0","2","118","trial1","naming","0","0","0","0","makeup kit","0","4618","1","White_Screen.jpg","6","151","ColoringSet.jpg","6"
"072419","15:58:50","3","3","5.0.14.0","2","119","trial1","naming","0","0","0","0","sink","0","1523","1","White_Screen.jpg","4","102","Sink_Bathroom.jpg","4"
"072419","15:58:50","3","3","5.0.14.0","2","120","trial1","naming","0","0","0","0","onion","0","5686","1","White_Screen.jpg","5","200","Eggplant.jpg","5"
"072419","15:58:50","3","3","5.0.14.0","2","121","trial1","naming","0","0","0","0","crown","0","1905","1","White_Screen.jpg","4","122","Tiara.jpg","4"
"072419","15:58:50","3","3","5.0.14.0","2","122","trial1","naming","0","0","0","0","van","0","2160","1","White_Screen.jpg","4","44","Van.jpg","4"
"072419","15:58:50","3","3","5.0.14.0","2","123","trial1","naming","0","0","0","0","grapes","0","1578","1","White_Screen.jpg","5","126","Currants.jpg","5"
"072419","15:58:50","3","3","5.0.14.0","2","124","trial1","naming","0","0","0","0","icecubes","0","2443","1","White_Screen.jpg","5","194","IceCubes.jpg","5"
"072419","15:58:50","3","3","5.0.14.0","2","125","trial1","naming","0","0","0","0","water container","0","3763","1","White_Screen.jpg","5","134","Funnel.jpg","5"
"072419","15:58:50","3","3","5.0.14.0","2","126","trial1","naming","0","0","0","0","chocolate","0","3289","1","White_Screen.jpg","5","173","Egg_Chocolate.jpg","5"
"072419","15:58:50","3","3","5.0.14.0","2","127","trial1","naming","0","0","0","0","bread","0","3586","1","White_Screen.jpg","5","27","Bread_Melon.jpg","5"
"072419","15:58:50","3","3","5.0.14.0","2","128","trial1","naming","0","0","0","0","door handle","0","2953","1","White_Screen.jpg","6","185","CarLighter.jpg","6"
"072419","15:58:50","3","3","5.0.14.0","2","129","trial1","naming","0","0","0","0","pyramid","0","2318","1","White_Screen.jpg","5","179","PyramidWooden.jpg","5"
"072419","15:58:50","3","3","5.0.14.0","2","130","trial1","naming","0","0","0","0","bread","0","3427","1","White_Screen.jpg","5","108","Croissant.jpg","5"
"072419","15:58:50","3","3","5.0.14.0","2","131","trial1","naming","0","0","0","0","polar bear","0","2442","1","White_Screen.jpg","5","110","BearPolar.jpg","5"
"072419","15:58:50","3","3","5.0.14.0","2","132","trial1","naming","0","0","0","0","chair","0","1331","1","White_Screen.jpg","5","64","Chair_Office.jpg","5"
"072419","15:58:50","3","3","5.0.14.0","2","133","trial1","naming","0","0","0","0","swingset","0","2291","1","White_Screen.jpg","5","103","Swing_Child.jpg","5"
"072419","15:58:50","3","3","5.0.14.0","2","134","trial1","naming","0","0","0","0","mattress topper","0","6749","1","White_Screen.jpg","5","81","Foam_Accoustic.jpg","5"
"072419","15:58:50","3","3","5.0.14.0","2","135","trial1","naming","0","0","0","0","clock","0","6274","1","White_Screen.jpg","5","59","Clock_Digital.jpg","5"
"072419","15:58:50","3","3","5.0.14.0","2","136","trial1","naming","0","0","0","0","thermostate","0","2471","1","White_Screen.jpg","5","73","Thermostat_Digital.jpg","5"
"072419","15:58:50","3","3","5.0.14.0","2","137","trial1","naming","0","0","0","0","bear","0","1877","1","White_Screen.jpg","4","85","Toy_BearBlackPlastic.jpg","4"
"072419","15:58:50","3","3","5.0.14.0","2","138","trial1","naming","0","0","0","0","boat","0","1440","1","White_Screen.jpg","5","36","Boat_Colourful.jpg","5"
"072419","15:58:50","3","3","5.0.14.0","2","139","trial1","naming","0","0","0","0","topper","0","4022","1","White_Screen.jpg","6","6","Awning.jpg","6"
"072419","15:58:50","3","3","5.0.14.0","2","140","trial1","naming","0","0","0","0","pillow","0","2726","1","White_Screen.jpg","5","161","Pillow_Heart.jpg","5"
"072419","15:58:50","3","3","5.0.14.0","2","141","trial1","naming","0","0","0","0","grapes","0","1827","1","White_Screen.jpg","9","13","Olives.jpg","9"
"072419","15:58:50","3","3","5.0.14.0","2","142","trial1","naming","0","0","0","0","spatcha","0","4045","1","White_Screen.jpg","6","129","Cheesegrater_Handheld.jpg","6"
"072419","15:58:50","3","3","5.0.14.0","2","143","trial1","naming","0","0","0","0","toy","0","4443","1","White_Screen.jpg","6","138","Toy_ElephantPlastic.jpg","6"
"072419","15:58:50","3","3","5.0.14.0","2","144","trial1","naming","0","0","0","0","lights","0","1659","1","White_Screen.jpg","5","80","Light_Fixtures.jpg","5"
"072419","15:58:50","3","3","5.0.14.0","2","145","trial1","naming","0","0","0","0","flowers","0","1575","1","White_Screen.jpg","5","158","Flower_Orchid.jpg","5"
"072419","15:58:50","3","3","5.0.14.0","2","146","trial1","naming","0","0","0","0","clip","0","2292","1","White_Screen.jpg","5","33","Clip_Binder.jpg","5"
"072419","15:58:50","3","3","5.0.14.0","2","147","trial1","naming","0","0","0","0","pot","0","1360","1","White_Screen.jpg","5","48","Steamer.jpg","5"
"072419","15:58:50","3","3","5.0.14.0","2","148","trial1","naming","0","0","0","0","dog","0","1328","1","White_Screen.jpg","5","135","Dog_CockerSpaniel.jpg","5"
"072419","15:58:50","3","3","5.0.14.0","2","149","trial1","naming","0","0","0","0","light","0","1596","1","White_Screen.jpg","4","155","Light_Halogen.jpg","4"
"072419","15:58:50","3","3","5.0.14.0","2","150","trial1","naming","0","0","0","0","mattress","0","1900","1","White_Screen.jpg","4","69","Mattress.jpg","4"
"072419","15:58:50","3","3","5.0.14.0","2","151","trial1","naming","0","0","0","0","dog","0","1173","1","White_Screen.jpg","6","9","Dog_SaintBernard.jpg","6"
"072419","15:58:50","3","3","5.0.14.0","2","152","trial1","naming","0","0","0","0","treats","0","3053","1","White_Screen.jpg","5","113","Jars_PetFood.jpg","5"
"072419","15:58:50","3","3","5.0.14.0","2","154","trial1","naming","0","0","0","0","diving board","0","3770","1","White_Screen.jpg","12","115","DivingBoard.jpg","12"
"072419","15:58:50","3","3","5.0.14.0","2","155","trial1","naming","0","0","0","0","beanbag","0","3926","1","White_Screen.jpg","5","190","ClothRed.jpg","5"
"072419","15:58:50","3","3","5.0.14.0","2","156","trial1","naming","0","0","0","0","sushi","0","1944","1","White_Screen.jpg","5","77","Sushi.jpg","5"
"072419","15:58:50","3","3","5.0.14.0","2","157","trial1","naming","0","0","0","0","bike","0","3879","1","White_Screen.jpg","5","35","Tricycle.jpg","5"
"072419","15:58:50","3","3","5.0.14.0","2","158","trial1","naming","0","0","0","0","blender","0","1883","1","White_Screen.jpg","5","23","Mixer_Hand.jpg","5"
"072419","15:58:50","3","3","5.0.14.0","2","159","trial1","naming","0","0","0","0","slide","0","3574","1","White_Screen.jpg","5","95","Slide.jpg","5"
"072419","15:58:50","3","3","5.0.14.0","2","160","trial1","naming","0","0","0","0","spoon","0","3468","1","White_Screen.jpg","8","168","Spoon_Serving.jpg","8"
"072419","15:58:50","3","3","5.0.14.0","2","161","trial1","naming","0","0","0","0","tree house","0","3586","1","White_Screen.jpg","5","88","TreeHouse.jpg","5"
"072419","15:58:50","3","3","5.0.14.0","2","162","trial1","naming","0","0","0","0","plant pot","0","5410","1","White_Screen.jpg","4","97","Cannister_GasVintage.jpg","4"
"072419","15:58:50","3","3","5.0.14.0","2","163","trial1","naming","0","0","0","0","torpedo","0","2964","1","White_Screen.jpg","5","107","Torpedo.jpg","5"
"072419","15:58:50","3","3","5.0.14.0","2","164","trial1","naming","0","0","0","0","frying pan","0","3564","1","White_Screen.jpg","5","70","PanCooking.jpg","5"
"072419","15:58:50","3","3","5.0.14.0","2","165","trial1","naming","0","0","0","0","class desk","0","3522","1","White_Screen.jpg","5","174","Lectern.jpg","5"
"072419","15:58:50","3","3","5.0.14.0","2","166","trial1","naming","0","0","0","0","iguana","0","2886","1","White_Screen.jpg","5","21","Iguana.jpg","5"
"072419","15:58:50","3","3","5.0.14.0","2","167","trial1","naming","0","0","0","0","reindeer","0","3352","1","White_Screen.jpg","6","142","Toy_Moose.jpg","6"
"072419","15:58:50","3","3","5.0.14.0","2","168","trial1","naming","0","0","0","0","pliers","0","4668","1","White_Screen.jpg","5","171","Pliers_NeedleNose.jpg","5"
"072419","15:58:50","3","3","5.0.14.0","2","169","trial1","naming","0","0","0","0","cement block","0","3939","1","White_Screen.jpg","6","128","CinderBlock.jpg","6"
"072419","15:58:50","3","3","5.0.14.0","2","170","trial1","naming","0","0","0","0","battery","0","2362","1","White_Screen.jpg","5","132","Battery_AA.jpg","5"
"072419","15:58:50","3","3","5.0.14.0","2","171","trial1","naming","0","0","0","0","cooking","0","8179","1","White_Screen.jpg","4","79","FlintIgniter.jpg","4"
"072419","15:58:50","3","3","5.0.14.0","2","172","trial1","naming","0","0","0","0","protractor","0","3156","1","White_Screen.jpg","5","62","Protractor.jpg","5"
"072419","15:58:50","3","3","5.0.14.0","2","173","trial1","naming","0","0","0","0","truck","0","2369","1","White_Screen.jpg","5","57","Truck_Army.jpg","5"
"072419","15:58:50","3","3","5.0.14.0","2","174","trial1","naming","0","0","0","0","lobster","0","2183","1","White_Screen.jpg","5","15","Lobster.jpg","5"
"072419","15:58:50","3","3","5.0.14.0","2","175","trial1","naming","0","0","0","0","briefcase","0","5109","1","White_Screen.jpg","5","63","Bag_Computer.jpg","5"
"072419","15:58:50","3","3","5.0.14.0","2","176","trial1","naming","0","0","0","0","usb drive","0","2409","1","White_Screen.jpg","4","169","USBKey.jpg","4"
"072419","15:58:50","3","3","5.0.14.0","2","177","trial1","naming","0","0","0","0","smoothie","0","3866","1","White_Screen.jpg","5","104","Milkshake_StrawberryStraw.jpg","5"
"072419","15:58:50","3","3","5.0.14.0","2","178","trial1","naming","0","0","0","0","go kart","0","5653","1","White_Screen.jpg","5","65","BumperCar.jpg","5"
"072419","15:58:50","3","3","5.0.14.0","2","179","trial1","naming","0","0","0","0","brief case","0","3625","1","White_Screen.jpg","5","187","Bag_Doctor.jpg","5"
"072419","15:58:50","3","3","5.0.14.0","2","180","trial1","naming","0","0","0","0","outlet","0","1655","1","White_Screen.jpg","5","177","ElectricOutlet.jpg","5"
"072419","15:58:50","3","3","5.0.14.0","2","181","trial1","naming","0","0","0","0","game","0","3367","1","White_Screen.jpg","4","56","Abacus.jpg","4"
"072419","15:58:50","3","3","5.0.14.0","2","182","trial1","naming","0","0","0","0","candle","0","1599","1","White_Screen.jpg","5","50","Candle_Blue.jpg","5"
"072419","15:58:50","3","3","5.0.14.0","2","183","trial1","naming","0","0","0","0","light","0","2244","1","White_Screen.jpg","5","78","TelephoneJack.jpg","5"
"072419","15:58:50","3","3","5.0.14.0","2","184","trial1","naming","0","0","0","0","stove","0","1734","1","White_Screen.jpg","5","39","Stove_Portable.jpg","5"
"072419","15:58:50","3","3","5.0.14.0","2","185","trial1","naming","0","0","0","0","plunger","0","4757","1","White_Screen.jpg","5","42","Bellows.jpg","5"
"072419","15:58:50","3","3","5.0.14.0","2","186","trial1","naming","0","0","0","0","helmet","0","2085","1","White_Screen.jpg","5","47","Helmet_Bicycle.jpg","5"
"072419","15:58:50","3","3","5.0.14.0","2","187","trial1","naming","0","0","0","0","makeup","0","2333","1","White_Screen.jpg","4","16","Makeup_Compact.jpg","4"
"072419","15:58:50","3","3","5.0.14.0","2","188","trial1","naming","0","0","0","0","movie set","0","8024","1","White_Screen.jpg","5","189","MovieSlate.jpg","5"
"072419","15:58:50","3","3","5.0.14.0","2","189","trial1","naming","0","0","0","0","bike","0","2458","1","White_Screen.jpg","5","180","Bicycle_Kids.jpg","5"
"072419","15:58:50","3","3","5.0.14.0","2","190","trial1","naming","0","0","0","0","mouse trap","0","2554","1","White_Screen.jpg","5","105","Mousetrap.jpg","5"
"072419","15:58:50","3","3","5.0.14.0","2","191","trial1","naming","0","0","0","0","pancake","0","2262","1","White_Screen.jpg","5","111","Pancakes.jpg","5"
"072419","15:58:50","3","3","5.0.14.0","2","192","trial1","naming","0","0","0","0","show","0","1624","1","White_Screen.jpg","5","49","Shoes_Mould.jpg","5"
"072419","15:58:50","3","3","5.0.14.0","2","193","trial1","naming","0","0","0","0","football","0","3895","1","White_Screen.jpg","4","123","Ball_Football.jpg","4"
"072419","15:58:50","3","3","5.0.14.0","2","194","trial1","naming","0","0","0","0","light","0","1570","1","White_Screen.jpg","5","120","Light_Studio.jpg","5"
"072419","15:58:50","3","3","5.0.14.0","2","195","trial1","naming","0","0","0","0","golf club","0","1942","1","White_Screen.jpg","5","29","Golf_Bag.jpg","5"
"072419","15:58:50","3","3","5.0.14.0","2","196","trial1","naming","0","0","0","0","suit","0","1281","1","White_Screen.jpg","5","14","Tuxedo.jpg","5"
"072419","15:58:50","3","3","5.0.14.0","2","197","trial1","naming","0","0","0","0","doorway entrance","0","3715","1","White_Screen.jpg","5","131","Door_Blue.jpg","5"
"072419","15:58:50","3","3","5.0.14.0","2","198","trial1","naming","0","0","0","0","cucumber","0","2922","1","White_Screen.jpg","5","119","Cucumber.jpg","5"
"072419","15:58:50","3","3","5.0.14.0","2","199","trial1","naming","0","0","0","0","steering wheel","0","3336","1","White_Screen.jpg","5","51","Wheel_Steering.jpg","5"
"072419","15:58:50","3","3","5.0.14.0","2","200","trial1","naming","0","0","0","0","electric station","0","8187","1","White_Screen.jpg","4","109","FuseBox.jpg","4"
"072419","15:58:50","3","3","5.0.14.0","2","201","trial1","naming","0","0","0","0","bear","0","1328","1","White_Screen.jpg","5","10","Toy_BearBrownPlushie.jpg","5"
"072419","15:58:50","3","3","5.0.14.0","2","202","trial1","naming","0","0","0","0","icecube","0","1879","1","White_Screen.jpg","5","178","IceCubes copy.jpg","5"
"072419","15:58:50","3","3","5.0.14.0","2","203","trial1","naming","0","0","0","0","bottle","0","1916","1","White_Screen.jpg","6","32","Cup_sippy.jpg","6"
"072419","15:58:50","3","3","5.0.14.0","3","1","demographics_block","gender","0","0","0","0","Male","1","6515","0","0","0","0","0","0"
"072419","15:58:50","3","3","5.0.14.0","3","1","demographics_block","age","0","0","0","0","21","1","6515","0","0","0","0","0","0"
"072419","15:58:50","3","3","5.0.14.0","3","1","demographics_block","education","0","0","0","0","14","1","6515","0","0","0","0","0","0"
"072419","15:58:50","3","3","5.0.14.0","3","2","demographics_block","left_right_handed","0","0","0","0","Right","1","3741","0","0","0","0","0","0"
"072419","15:58:50","3","3","5.0.14.0","3","2","demographics_block","raceoption1","0","0","0","0","0","1","3741","0","0","0","0","0","0"
"072419","15:58:50","3","3","5.0.14.0","3","2","demographics_block","raceoption2","0","0","0","0","","1","3741","0","0","0","0","0","0"
"072419","15:58:50","3","3","5.0.14.0","3","2","demographics_block","raceoption3","0","0","0","0","","1","3741","0","0","0","0","0","0"
"072419","15:58:50","3","3","5.0.14.0","3","2","demographics_block","raceoption4","0","0","0","0","","1","3741","0","0","0","0","0","0"
"072419","15:58:50","3","3","5.0.14.0","3","2","demographics_block","raceoption5","0","0","0","0","","1","3741","0","0","0","0","0","0"
"072419","15:58:50","3","3","5.0.14.0","3","2","demographics_block","raceoption6","0","0","0","0","","1","3741","0","0","0","0","0","0"
"072419","15:58:50","3","3","5.0.14.0","3","2","demographics_block","raceoption7","0","0","0","0","","1","3741","0","0","0","0","0","0"
"072419","15:58:50","3","3","5.0.14.0","3","2","demographics_block","raceoption8","0","0","0","0","","1","3741","0","0","0","0","0","0"
"072419","15:58:50","3","3","5.0.14.0","3","2","demographics_block","raceoption9","0","0","0","0","","1","3741","0","0","0","0","0","0"
"072419","15:58:50","3","3","5.0.14.0","3","2","demographics_block","raceother","0","0","0","0","","1","3741","0","0","0","0","0","0"
"072419","15:58:50","3","3","5.0.14.0","3","2","demographics_block","raceother","0","0","0","0","","1","3741","0","0","0","0","0","0"
"072419","15:58:50","3","3","5.0.14.0","3","2","demographics_block","english_language","0","0","0","0","Yes","1","3741","0","0","0","0","0","0"
"072419","15:58:50","3","3","5.0.14.0","3","2","demographics_block","english_languageother","0","0","0","0","","1","3741","0","0","0","0","0","0"
"072419","15:58:50","3","3","5.0.14.0","3","3","demographics_block","eyesight","0","0","0","0","Yes","1","5666","0","0","0","0","0","0"
"072419","15:58:50","3","3","5.0.14.0","3","3","demographics_block","colorblind","0","0","0","0","No","1","5666","0","0","0","0","0","0"
"072419","15:58:50","3","3","5.0.14.0","4","1","worker_id_block","worker_id_textbox","0","0","0","0","AFA77JJROHLHZ","1","2727","0","0","0","0","0","0"
"072419","13:02:14","4","4","5.0.14.0","2","1","trial1","naming","0","0","0","0","peanuts","0","7737","1","White_Screen.jpg","148","101","Nuts_Peanuts.jpg","148"
"072419","13:02:14","4","4","5.0.14.0","2","2","trial1","naming","0","0","0","0","flower","0","6856","1","White_Screen.jpg","9","158","Flower_Orchid.jpg","9"
"072419","13:02:14","4","4","5.0.14.0","2","3","trial1","naming","0","0","0","0","moose","0","3971","1","White_Screen.jpg","10","142","Toy_Moose.jpg","10"
"072419","13:02:14","4","4","5.0.14.0","2","4","trial1","naming","0","0","0","0","pyramid","0","3164","1","White_Screen.jpg","10","179","PyramidWooden.jpg","10"
"072419","13:02:14","4","4","5.0.14.0","2","5","trial1","naming","0","0","0","0","seesaw","0","3694","1","White_Screen.jpg","8","106","Toy_SeeSaw.jpg","8"
"072419","13:02:14","4","4","5.0.14.0","2","6","trial1","naming","0","0","0","0","window","0","3057","1","White_Screen.jpg","9","181","Window.jpg","9"
"072419","13:02:14","4","4","5.0.14.0","2","7","trial1","naming","0","0","0","0","mattress","0","4417","1","White_Screen.jpg","9","69","Mattress.jpg","9"
"072419","13:02:14","4","4","5.0.14.0","2","8","trial1","naming","0","0","0","0","toad","0","2894","1","White_Screen.jpg","8","1","Toad.jpg","8"
"072419","13:02:14","4","4","5.0.14.0","2","9","trial1","naming","0","0","0","0","grater","0","3299","1","White_Screen.jpg","8","129","Cheesegrater_Handheld.jpg","8"
"072419","13:02:14","4","4","5.0.14.0","2","10","trial1","naming","0","0","0","0","Enter Name","0","10000","1","White_Screen.jpg","8","17","Cymbals.jpg","8"
"072419","13:02:14","4","4","5.0.14.0","2","11","trial1","naming","0","0","0","0","drums","0","3495","1","White_Screen.jpg","9","72","Drum_Set.jpg","9"
"072419","13:02:14","4","4","5.0.14.0","2","12","trial1","naming","0","0","0","0","almonds","0","3434","1","White_Screen.jpg","8","182","Nuts_PeanutsPeeled.jpg","8"
"072419","13:02:14","4","4","5.0.14.0","2","13","trial1","naming","0","0","0","0","alarm clock","0","3417","1","White_Screen.jpg","8","59","Clock_Digital.jpg","8"
"072419","13:02:14","4","4","5.0.14.0","2","14","trial1","naming","0","0","0","0","slide","0","2422","1","White_Screen.jpg","8","95","Slide.jpg","8"
"072419","13:02:14","4","4","5.0.14.0","2","15","trial1","naming","0","0","0","0","milkshake","0","4922","1","White_Screen.jpg","8","3","Milkshake_Chocolate.jpg","8"
"072419","13:02:14","4","4","5.0.14.0","2","16","trial1","naming","0","0","0","0","necklace","0","3521","1","White_Screen.jpg","8","159","MetalChain.jpg","8"
"072419","13:02:14","4","4","5.0.14.0","2","17","trial1","naming","0","0","0","0","lemons","0","3696","1","White_Screen.jpg","7","90","Bowl_Lemons.jpg","7"
"072419","13:02:14","4","4","5.0.14.0","2","18","trial1","naming","0","0","0","0","fidget toy","0","5277","1","White_Screen.jpg","8","165","Jacks.jpg","8"
"072419","13:02:14","4","4","5.0.14.0","2","19","trial1","naming","0","0","0","0","clay pot","0","3320","1","White_Screen.jpg","8","117","Pot_FlowerClay.jpg","8"
"072419","13:02:14","4","4","5.0.14.0","2","20","trial1","naming","0","0","0","0","gourds","0","3561","1","White_Screen.jpg","9","25","Cornucopia.jpg","9"
"072419","13:02:14","4","4","5.0.14.0","2","21","trial1","naming","0","0","0","0","pancakes","0","2582","1","White_Screen.jpg","9","111","Pancakes.jpg","9"
"072419","13:02:14","4","4","5.0.14.0","2","22","trial1","naming","0","0","0","0","bike grip","0","6201","1","White_Screen.jpg","10","67","BicycleBrake.jpg","10"
"072419","13:02:14","4","4","5.0.14.0","2","23","trial1","naming","0","0","0","0","hose","0","2450","1","White_Screen.jpg","9","149","Hose_Garden.jpg","9"
"072419","13:02:14","4","4","5.0.14.0","2","24","trial1","naming","0","0","0","0","skillet","0","3784","1","White_Screen.jpg","8","70","PanCooking.jpg","8"
"072419","13:02:14","4","4","5.0.14.0","2","25","trial1","naming","0","0","0","0","bread","0","3390","1","White_Screen.jpg","8","27","Bread_Melon.jpg","8"
"072419","13:02:14","4","4","5.0.14.0","2","26","trial1","naming","0","0","0","0","blender","0","4569","1","White_Screen.jpg","8","23","Mixer_Hand.jpg","8"
"072419","13:02:14","4","4","5.0.14.0","2","27","trial1","naming","0","0","0","0","fun house","0","4476","1","White_Screen.jpg","11","61","PuppetTheatre_BlueRed.jpg","11"
"072419","13:02:14","4","4","5.0.14.0","2","28","trial1","naming","0","0","0","0","recorder","0","6632","1","White_Screen.jpg","9","167","Projector_Film.jpg","9"
"072419","13:02:14","4","4","5.0.14.0","2","29","trial1","naming","0","0","0","0","light","0","4249","1","White_Screen.jpg","9","155","Light_Halogen.jpg","9"
"072419","13:02:14","4","4","5.0.14.0","2","30","trial1","naming","0","0","0","0","nerf gun","0","3483","1","White_Screen.jpg","9","26","Gun_Nerf.jpg","9"
"072419","13:02:14","4","4","5.0.14.0","2","31","trial1","naming","0","0","0","0","skateboard","0","4609","1","White_Screen.jpg","8","125","Snowboard.jpg","8"
"072419","13:02:14","4","4","5.0.14.0","2","32","trial1","naming","0","0","0","0","dice","0","4634","1","White_Screen.jpg","8","99","Tetrahedron.jpg","8"
"072419","13:02:14","4","4","5.0.14.0","2","33","trial1","naming","0","0","0","0","olives","0","3289","1","White_Screen.jpg","8","60","Can_Olives.jpg","8"
"072419","13:02:14","4","4","5.0.14.0","2","34","trial1","naming","0","0","0","0","vending machine","0","6112","1","White_Screen.jpg","8","147","JukeboxAntique.jpg","8"
"072419","13:02:14","4","4","5.0.14.0","2","35","trial1","naming","0","0","0","0","toothbrush","0","3311","1","White_Screen.jpg","9","46","ToothBrush.jpg","9"
"072419","13:02:14","4","4","5.0.14.0","2","36","trial1","naming","0","0","0","0","toaster","0","6948","1","White_Screen.jpg","8","172","Toaster_Antique.jpg","8"
"072419","13:02:14","4","4","5.0.14.0","2","37","trial1","naming","0","0","0","0","ashtray","0","4373","1","White_Screen.jpg","9","2","Ashtray_Cigarettes.jpg","9"
"072419","13:02:14","4","4","5.0.14.0","2","38","trial1","naming","0","0","0","0","tricycle","0","3598","1","White_Screen.jpg","9","35","Tricycle.jpg","9"
"072419","13:02:14","4","4","5.0.14.0","2","39","trial1","naming","0","0","0","0","plate","0","2930","1","White_Screen.jpg","10","118","Plate_Ceramic.jpg","10"
"072419","13:02:14","4","4","5.0.14.0","2","40","trial1","naming","0","0","0","0","stool","0","4358","1","White_Screen.jpg","9","8","Table_Saw.jpg","9"
"072419","13:02:14","4","4","5.0.14.0","2","41","trial1","naming","0","0","0","0","skull","0","2216","1","White_Screen.jpg","8","19","HumanSkull.jpg","8"
"072419","13:02:14","4","4","5.0.14.0","2","42","trial1","naming","0","0","0","0","poker table","0","5603","1","White_Screen.jpg","8","170","Table_Poker.jpg","8"
"072419","13:02:14","4","4","5.0.14.0","2","43","trial1","naming","0","0","0","0","elephant","0","3008","1","White_Screen.jpg","8","138","Toy_ElephantPlastic.jpg","8"
"072419","13:02:14","4","4","5.0.14.0","2","44","trial1","naming","0","0","0","0","golf clubs","0","4155","1","White_Screen.jpg","9","29","Golf_Bag.jpg","9"
"072419","13:02:14","4","4","5.0.14.0","2","45","trial1","naming","0","0","0","0","olives","0","3415","1","White_Screen.jpg","9","13","Olives.jpg","9"
"072419","13:02:14","4","4","5.0.14.0","2","46","trial1","naming","0","0","0","0","swan","0","2953","1","White_Screen.jpg","8","175","Swan.jpg","8"
"072419","13:02:14","4","4","5.0.14.0","2","47","trial1","naming","0","0","0","0","table","0","3550","1","White_Screen.jpg","8","86","Bench_Wooden.jpg","8"
"072419","13:02:14","4","4","5.0.14.0","2","48","trial1","naming","0","0","0","0","foundation","0","4228","1","White_Screen.jpg","9","16","Makeup_Compact.jpg","9"
"072419","13:02:14","4","4","5.0.14.0","2","49","trial1","naming","0","0","0","0","gas station","0","5545","1","White_Screen.jpg","8","160","GasStation.jpg","8"
"072419","13:02:14","4","4","5.0.14.0","2","50","trial1","naming","0","0","0","0","fruit","0","5015","1","White_Screen.jpg","9","137","Fruit_Cactus.jpg","9"
"072419","13:02:14","4","4","5.0.14.0","2","52","trial1","naming","0","0","0","0","binder clip","0","3424","1","White_Screen.jpg","9","33","Clip_Binder.jpg","9"
"072419","13:02:14","4","4","5.0.14.0","2","53","trial1","naming","0","0","0","0","bike light","0","4072","1","White_Screen.jpg","8","121","BicycleReflector.jpg","8"
"072419","13:02:14","4","4","5.0.14.0","2","54","trial1","naming","0","0","0","0","door knob","0","7047","1","White_Screen.jpg","10","185","CarLighter.jpg","10"
"072419","13:02:14","4","4","5.0.14.0","2","55","trial1","naming","0","0","0","0","concrete block","0","3898","1","White_Screen.jpg","9","128","CinderBlock.jpg","9"
"072419","13:02:14","4","4","5.0.14.0","2","56","trial1","naming","0","0","0","0","chair","0","2561","1","White_Screen.jpg","7","64","Chair_Office.jpg","7"
"072419","13:02:14","4","4","5.0.14.0","2","57","trial1","naming","0","0","0","0","guacamole","0","3736","1","White_Screen.jpg","7","20","Guacamole.jpg","7"
"072419","13:02:14","4","4","5.0.14.0","2","58","trial1","naming","0","0","0","0","tambourines","0","4609","1","White_Screen.jpg","8","7","Maraca.jpg","8"
"072419","13:02:14","4","4","5.0.14.0","2","59","trial1","naming","0","0","0","0","polar bear","0","2521","1","White_Screen.jpg","8","110","BearPolar.jpg","8"
"072419","13:02:14","4","4","5.0.14.0","2","60","trial1","naming","0","0","0","0","clogs","0","2690","1","White_Screen.jpg","7","49","Shoes_Mould.jpg","7"
"072419","13:02:14","4","4","5.0.14.0","2","61","trial1","naming","0","0","0","0","pliers","0","3402","1","White_Screen.jpg","8","171","Pliers_NeedleNose.jpg","8"
"072419","13:02:14","4","4","5.0.14.0","2","62","trial1","naming","0","0","0","0","mug","0","1893","1","White_Screen.jpg","8","66","Mug_Ceramic.jpg","8"
"072419","13:02:14","4","4","5.0.14.0","2","63","trial1","naming","0","0","0","0","awning","0","3062","1","White_Screen.jpg","8","6","Awning.jpg","8"
"072419","13:02:14","4","4","5.0.14.0","2","64","trial1","naming","0","0","0","0","battery","0","3783","1","White_Screen.jpg","7","132","Battery_AA.jpg","7"
"072419","13:02:14","4","4","5.0.14.0","2","65","trial1","naming","0","0","0","0","baby carriet","0","5691","1","White_Screen.jpg","8","127","Toy_Stroller.jpg","8"
"072419","13:02:14","4","4","5.0.14.0","2","66","trial1","naming","0","0","0","0","strawberry milkshake","0","7611","1","White_Screen.jpg","8","104","Milkshake_StrawberryStraw.jpg","8"
"072419","13:02:14","4","4","5.0.14.0","2","67","trial1","naming","0","0","0","0","street lights","0","4397","1","White_Screen.jpg","8","162","LampPost_ThreeBulbs.jpg","8"
"072419","13:02:14","4","4","5.0.14.0","2","68","trial1","naming","0","0","0","0","bike","0","1678","1","White_Screen.jpg","7","180","Bicycle_Kids.jpg","7"
"072419","13:02:14","4","4","5.0.14.0","2","69","trial1","naming","0","0","0","0","ladle","0","1948","1","White_Screen.jpg","9","168","Spoon_Serving.jpg","9"
"072419","13:02:14","4","4","5.0.14.0","2","70","trial1","naming","0","0","0","0","mouse trap","0","3597","1","White_Screen.jpg","8","105","Mousetrap.jpg","8"
"072419","13:02:14","4","4","5.0.14.0","2","71","trial1","naming","0","0","0","0","black bear","0","3501","1","White_Screen.jpg","7","85","Toy_BearBlackPlastic.jpg","7"
"072419","13:02:14","4","4","5.0.14.0","2","72","trial1","naming","0","0","0","0","milkshake maker","0","8562","1","White_Screen.jpg","7","53","EspressoMachine.jpg","7"
"072419","13:02:14","4","4","5.0.14.0","2","73","trial1","naming","0","0","0","0","flame toy","0","8075","1","White_Screen.jpg","9","71","LumiereBeautyBeast.jpg","9"
"072419","13:02:14","4","4","5.0.14.0","2","74","trial1","naming","0","0","0","0","chair","0","4650","1","White_Screen.jpg","9","31","Stool_Camping.jpg","9"
"072419","13:02:14","4","4","5.0.14.0","2","75","trial1","naming","0","0","0","0","truck","0","3867","1","White_Screen.jpg","9","57","Truck_Army.jpg","9"
"072419","13:02:14","4","4","5.0.14.0","2","76","trial1","naming","0","0","0","0","tongs","0","9587","1","White_Screen.jpg","8","166","Fork_Fondue.jpg","8"
"072419","13:02:14","4","4","5.0.14.0","2","77","trial1","naming","0","0","0","0","caramel","0","3393","1","White_Screen.jpg","8","18","Candy_Lozenge.jpg","8"
"072419","13:02:14","4","4","5.0.14.0","2","78","trial1","naming","0","0","0","0","lobster","0","2242","1","White_Screen.jpg","8","15","Lobster.jpg","8"
"072419","13:02:14","4","4","5.0.14.0","2","79","trial1","naming","0","0","0","0","computer screen","0","4283","1","White_Screen.jpg","7","96","Monitor.jpg","7"
"072419","13:02:14","4","4","5.0.14.0","2","80","trial1","naming","0","0","0","0","flood light","0","4470","1","White_Screen.jpg","8","120","Light_Studio.jpg","8"
"072419","13:02:14","4","4","5.0.14.0","2","81","trial1","naming","0","0","0","0","light","0","9290","1","White_Screen.jpg","7","134","Funnel.jpg","7"
"072419","13:02:14","4","4","5.0.14.0","2","82","trial1","naming","0","0","0","0","emu","0","4075","1","White_Screen.jpg","8","133","Ostrich.jpg","8"
"072419","13:02:14","4","4","5.0.14.0","2","83","trial1","naming","0","0","0","0","birdhouse","0","3952","1","White_Screen.jpg","9","75","Birdhouse.jpg","9"
"072419","13:02:14","4","4","5.0.14.0","2","84","trial1","naming","0","0","0","0","taxi light","0","5918","1","White_Screen.jpg","9","156","Sign_Taxi.jpg","9"
"072419","13:02:14","4","4","5.0.14.0","2","85","trial1","naming","0","0","0","0","swing","0","2665","1","White_Screen.jpg","9","103","Swing_Child.jpg","9"
"072419","13:02:14","4","4","5.0.14.0","2","86","trial1","naming","0","0","0","0","sippy cup","0","5632","1","White_Screen.jpg","9","32","Cup_sippy.jpg","9"
"072419","13:02:14","4","4","5.0.14.0","2","87","trial1","naming","0","0","0","0","ginger","0","2465","1","White_Screen.jpg","8","22","Ginger.jpg","8"
"072419","13:02:14","4","4","5.0.14.0","2","88","trial1","naming","0","0","0","0","dog","0","2704","1","White_Screen.jpg","9","9","Dog_SaintBernard.jpg","9"
"072419","13:02:14","4","4","5.0.14.0","2","89","trial1","naming","0","0","0","0","tape player","0","8572","1","White_Screen.jpg","10","164","Machine_EKG.jpg","10"
"072419","13:02:14","4","4","5.0.14.0","2","90","trial1","naming","0","0","0","0","briefcase","0","4524","1","White_Screen.jpg","9","63","Bag_Computer.jpg","9"
"072419","13:02:14","4","4","5.0.14.0","2","91","trial1","naming","0","0","0","0","ruler","0","2130","1","White_Screen.jpg","8","196","Ruler_Metal.jpg","8"
"072419","13:02:14","4","4","5.0.14.0","2","92","trial1","naming","0","0","0","0","treehouse","0","3914","1","White_Screen.jpg","8","88","TreeHouse.jpg","8"
"072419","13:02:14","4","4","5.0.14.0","2","93","trial1","naming","0","0","0","0","tiara","0","2384","1","White_Screen.jpg","7","122","Tiara.jpg","7"
"072419","13:02:14","4","4","5.0.14.0","2","94","trial1","naming","0","0","0","0","melty thing","0","9418","1","White_Screen.jpg","7","79","FlintIgniter.jpg","7"
"072419","13:02:14","4","4","5.0.14.0","2","95","trial1","naming","0","0","0","0","first aid kit","0","4147","1","White_Screen.jpg","8","84","Box_FirstAidOpen.jpg","8"
"072419","13:02:14","4","4","5.0.14.0","2","96","trial1","naming","0","0","0","0","moose headband","0","6867","1","White_Screen.jpg","8","94","ReindeerHeadband.jpg","8"
"072419","13:02:14","4","4","5.0.14.0","2","97","trial1","naming","0","0","0","0","steering wheel","0","3255","1","White_Screen.jpg","9","51","Wheel_Steering.jpg","9"
"072419","13:02:14","4","4","5.0.14.0","2","98","trial1","naming","0","0","0","0","alien toy","0","4404","1","White_Screen.jpg","8","198","Toy_Alien.jpg","8"
"072419","13:02:14","4","4","5.0.14.0","2","99","trial1","naming","0","0","0","0","phone","0","7210","1","White_Screen.jpg","10","191","Exercise_Stepper.jpg","10"
"072419","13:02:14","4","4","5.0.14.0","2","100","trial1","naming","0","0","0","0","clothes","0","5938","1","White_Screen.jpg","9","190","ClothRed.jpg","9"
"072419","13:02:14","4","4","5.0.14.0","2","101","trial1","naming","0","0","0","0","English cucumber","0","6116","1","White_Screen.jpg","9","119","Cucumber.jpg","9"
"072419","13:02:14","4","4","5.0.14.0","2","103","trial1","naming","0","0","0","0","macaw","0","2937","1","White_Screen.jpg","8","176","Bird_Toucan.jpg","8"
"072419","13:02:14","4","4","5.0.14.0","2","104","trial1","naming","0","0","0","0","baby bottle","0","4118","1","White_Screen.jpg","8","87","EyeDrops.jpg","8"
"072419","13:02:14","4","4","5.0.14.0","2","105","trial1","naming","0","0","0","0","ice cream","0","2626","1","White_Screen.jpg","8","197","IceCream_Chocolate.jpg","8"
"072419","13:02:14","4","4","5.0.14.0","2","106","trial1","naming","0","0","0","0","abacus","0","4661","1","White_Screen.jpg","7","56","Abacus.jpg","7"
"072419","13:02:14","4","4","5.0.14.0","2","107","trial1","naming","0","0","0","0","sheep plush","0","4256","1","White_Screen.jpg","9","55","Toy_LambPlushie.jpg","9"
"072419","13:02:14","4","4","5.0.14.0","2","108","trial1","naming","0","0","0","0","pyramid","0","4891","1","White_Screen.jpg","8","188","Pyramid.jpg","8"
"072419","13:02:14","4","4","5.0.14.0","2","109","trial1","naming","0","0","0","0","coloring kit","0","5232","1","White_Screen.jpg","10","151","ColoringSet.jpg","10"
"072419","13:02:14","4","4","5.0.14.0","2","110","trial1","naming","0","0","0","0","ham radio","0","4118","1","White_Screen.jpg","9","143","Phone_Military.jpg","9"
"072419","13:02:14","4","4","5.0.14.0","2","111","trial1","naming","0","0","0","0","fishi","0","10000","1","White_Screen.jpg","9","41","Hook_Fish.jpg","9"
"072419","13:02:14","4","4","5.0.14.0","2","112","trial1","naming","0","0","0","0","grapes","0","4739","1","White_Screen.jpg","9","126","Currants.jpg","9"
"072419","13:02:14","4","4","5.0.14.0","2","113","trial1","naming","0","0","0","0","desk","0","3912","1","White_Screen.jpg","8","93","Desk_White.jpg","8"
"072419","13:02:14","4","4","5.0.14.0","2","114","trial1","naming","0","0","0","0","phone","0","6676","1","White_Screen.jpg","7","37","AnsweringMachine.jpg","7"
"072419","13:02:14","4","4","5.0.14.0","2","115","trial1","naming","0","0","0","0","canteen","0","4677","1","White_Screen.jpg","9","97","Cannister_GasVintage.jpg","9"
"072419","13:02:14","4","4","5.0.14.0","2","116","trial1","naming","0","0","0","0","movie take","0","9207","1","White_Screen.jpg","8","189","MovieSlate.jpg","8"
"072419","13:02:14","4","4","5.0.14.0","2","117","trial1","naming","0","0","0","0","bike helmet","0","4045","1","White_Screen.jpg","8","47","Helmet_Bicycle.jpg","8"
"072419","13:02:14","4","4","5.0.14.0","2","118","trial1","naming","0","0","0","0","power out","0","10000","1","White_Screen.jpg","8","177","ElectricOutlet.jpg","8"
"072419","13:02:14","4","4","5.0.14.0","2","119","trial1","naming","0","0","0","0","stool","0","4662","1","White_Screen.jpg","7","114","Stool_Metal.jpg","7"
"072419","13:02:14","4","4","5.0.14.0","2","120","trial1","naming","0","0","0","0","seal","0","2531","1","White_Screen.jpg","8","83","Seal_animal.jpg","8"
"072419","13:02:14","4","4","5.0.14.0","2","121","trial1","naming","0","0","0","0","diving board","0","4538","1","White_Screen.jpg","8","115","DivingBoard.jpg","8"
"072419","13:02:14","4","4","5.0.14.0","2","122","trial1","naming","0","0","0","0","ice cubes","0","4085","1","White_Screen.jpg","7","178","IceCubes copy.jpg","7"
"072419","13:02:14","4","4","5.0.14.0","2","123","trial1","naming","0","0","0","0","dog toy","0","2932","1","White_Screen.jpg","9","183","DogToy.jpg","9"
"072419","13:02:14","4","4","5.0.14.0","2","124","trial1","naming","0","0","0","0","radio","0","3645","1","White_Screen.jpg","8","116","Radio_Vintage.jpg","8"
"072419","13:02:14","4","4","5.0.14.0","2","125","trial1","naming","0","0","0","0","phone charger","0","9843","1","White_Screen.jpg","7","78","TelephoneJack.jpg","7"
"072419","13:02:14","4","4","5.0.14.0","2","126","trial1","naming","0","0","0","0","record player","0","8105","1","White_Screen.jpg","7","39","Stove_Portable.jpg","7"
"072419","13:02:14","4","4","5.0.14.0","2","127","trial1","naming","0","0","0","0","canned milk","0","7464","1","White_Screen.jpg","8","5","Can_Milk.jpg","8"
"072419","13:02:14","4","4","5.0.14.0","2","128","trial1","naming","0","0","0","0","croissant","0","3329","1","White_Screen.jpg","8","108","Croissant.jpg","8"
"072419","13:02:14","4","4","5.0.14.0","2","129","trial1","naming","0","0","0","0","candle","0","2647","1","White_Screen.jpg","9","50","Candle_Blue.jpg","9"
"072419","13:02:14","4","4","5.0.14.0","2","130","trial1","naming","0","0","0","0","toy ATV","0","8647","1","White_Screen.jpg","31","157","AllTerrain.jpg","31"
"072419","13:02:14","4","4","5.0.14.0","2","131","trial1","naming","0","0","0","0","maracas","0","5288","1","White_Screen.jpg","9","42","Bellows.jpg","9"
"072419","13:02:14","4","4","5.0.14.0","2","132","trial1","naming","0","0","0","0","red onion","0","2999","1","White_Screen.jpg","8","148","OnionRed.jpg","8"
"072419","13:02:14","4","4","5.0.14.0","2","133","trial1","naming","0","0","0","0","spokes","0","10000","1","White_Screen.jpg","9","140","Blade_Tablesaw.jpg","9"
"072419","13:02:14","4","4","5.0.14.0","2","134","trial1","naming","0","0","0","0","Enter Name","0","212","1","White_Screen.jpg","10","54","Boardgame_Checkers.jpg","10"
"072419","13:02:14","4","4","5.0.14.0","2","135","trial1","naming","0","0","0","0","dvd player","0","7613","1","White_Screen.jpg","8","136","DVDPlayer.jpg","8"
"072419","13:02:14","4","4","5.0.14.0","2","136","trial1","naming","0","0","0","0","stair knob","0","9717","1","White_Screen.jpg","9","68","ChessPiece_Bishop.jpg","9"
"072419","13:02:14","4","4","5.0.14.0","2","137","trial1","naming","0","0","0","0","drill","0","3293","1","White_Screen.jpg","9","52","Chainsaw.jpg","9"
"072419","13:02:14","4","4","5.0.14.0","2","138","trial1","naming","0","0","0","0","safe","0","9735","1","White_Screen.jpg","8","109","FuseBox.jpg","8"
"072419","13:02:14","4","4","5.0.14.0","2","139","trial1","naming","0","0","0","0","towels","0","4316","1","White_Screen.jpg","8","150","Bandage_Wrap.jpg","8"
"072419","13:02:14","4","4","5.0.14.0","2","140","trial1","naming","0","0","0","0","ent","0","10000","1","White_Screen.jpg","8","100","AlcoholBar.jpg","8"
"072419","13:02:14","4","4","5.0.14.0","2","141","trial1","naming","0","0","0","0","purse","0","2899","1","White_Screen.jpg","9","187","Bag_Doctor.jpg","9"
"072419","13:02:14","4","4","5.0.14.0","2","142","trial1","naming","0","0","0","0","rooster statue","0","6354","1","White_Screen.jpg","9","12","Toy_Rooster.jpg","9"
"072419","13:02:14","4","4","5.0.14.0","2","143","trial1","naming","0","0","0","0","stairs","0","3179","1","White_Screen.jpg","9","58","Staircase_Curving.jpg","9"
"072419","13:02:14","4","4","5.0.14.0","2","144","trial1","naming","0","0","0","0","eggplant","0","2777","1","White_Screen.jpg","9","200","Eggplant.jpg","9"
"072419","13:02:14","4","4","5.0.14.0","2","145","trial1","naming","0","0","0","0","sink","0","2053","1","White_Screen.jpg","7","102","Sink_Bathroom.jpg","7"
"072419","13:02:14","4","4","5.0.14.0","2","146","trial1","naming","0","0","0","0","usb drive","0","3580","1","White_Screen.jpg","7","169","USBKey.jpg","7"
"072419","13:02:14","4","4","5.0.14.0","2","147","trial1","naming","0","0","0","0","dish towel","0","3265","1","White_Screen.jpg","8","82","KitchenCloth.jpg","8"
"072419","13:02:14","4","4","5.0.14.0","2","148","trial1","naming","0","0","0","0","coaster","0","3545","1","White_Screen.jpg","8","144","CuttingBoard.jpg","8"
"072419","13:02:14","4","4","5.0.14.0","2","149","trial1","naming","0","0","0","0","earth","0","2730","1","White_Screen.jpg","8","40","Earth_Planet.jpg","8"
"072419","13:02:14","4","4","5.0.14.0","2","150","trial1","naming","0","0","0","0","suit jacket","0","5089","1","White_Screen.jpg","8","14","Tuxedo.jpg","8"
"072419","13:02:14","4","4","5.0.14.0","2","151","trial1","naming","0","0","0","0","lips","0","2426","1","White_Screen.jpg","7","92","Lips_Real.jpg","7"
"072419","13:02:14","4","4","5.0.14.0","2","152","trial1","naming","0","0","0","0","fossilized ant","0","8557","1","White_Screen.jpg","7","192","AmberWithMosquito.jpg","7"
"072419","13:02:14","4","4","5.0.14.0","2","154","trial1","naming","0","0","0","0","rocket","0","5057","1","White_Screen.jpg","8","107","Torpedo.jpg","8"
"072419","13:02:14","4","4","5.0.14.0","2","155","trial1","naming","0","0","0","0","protractor","0","3673","1","White_Screen.jpg","8","62","Protractor.jpg","8"
"072419","13:02:14","4","4","5.0.14.0","2","156","trial1","naming","0","0","0","0","flute","0","2986","1","White_Screen.jpg","9","184","Clarinet.jpg","9"
"072419","13:02:14","4","4","5.0.14.0","2","157","trial1","naming","0","0","0","0","heart pillow","0","3750","1","White_Screen.jpg","9","161","Pillow_Heart.jpg","9"
"072419","13:02:14","4","4","5.0.14.0","2","158","trial1","naming","0","0","0","0","music thing","0","8861","1","White_Screen.jpg","6","163","Heater_Infrared.jpg","6"
"072419","13:02:14","4","4","5.0.14.0","2","159","trial1","naming","0","0","0","0","canoe","0","3098","1","White_Screen.jpg","8","36","Boat_Colourful.jpg","8"
"072419","13:02:14","4","4","5.0.14.0","2","160","trial1","naming","0","0","0","0","mattress pad","0","4807","1","White_Screen.jpg","6","81","Foam_Accoustic.jpg","6"
"072419","13:02:14","4","4","5.0.14.0","2","161","trial1","naming","0","0","0","0","baseball cap","0","3014","1","White_Screen.jpg","9","195","Hat_Baseball.jpg","9"
"072419","13:02:14","4","4","5.0.14.0","2","162","trial1","naming","0","0","0","0","strawberry milkshake","0","4871","1","White_Screen.jpg","9","34","Milkshake_Strawberry.jpg","9"
"072419","13:02:14","4","4","5.0.14.0","2","163","trial1","naming","0","0","0","0","chairs","0","2816","1","White_Screen.jpg","9","199","Chairs_Stacked.jpg","9"
"072419","13:02:14","4","4","5.0.14.0","2","164","trial1","naming","0","0","0","0","berries","0","6372","1","White_Screen.jpg","9","24","Cranberry.jpg","9"
"072419","13:02:14","4","4","5.0.14.0","2","165","trial1","naming","0","0","0","0","steamer pot","0","5702","1","White_Screen.jpg","8","48","Steamer.jpg","8"
"072419","13:02:14","4","4","5.0.14.0","2","166","trial1","naming","0","0","0","0","nerf gun","0","5135","1","White_Screen.jpg","7","91","WaterGun.jpg","7"
"072419","13:02:14","4","4","5.0.14.0","2","167","trial1","naming","0","0","0","0","door","0","6204","1","White_Screen.jpg","10","131","Door_Blue.jpg","10"
"072419","13:02:14","4","4","5.0.14.0","2","168","trial1","naming","0","0","0","0","moving van","0","3157","1","White_Screen.jpg","8","44","Van.jpg","8"
"072419","13:02:14","4","4","5.0.14.0","2","169","trial1","naming","0","0","0","0","keg","0","2790","1","White_Screen.jpg","8","145","Keg.jpg","8"
"072419","13:02:14","4","4","5.0.14.0","2","170","trial1","naming","0","0","0","0","urn","0","4349","1","White_Screen.jpg","7","193","Vase_EarthToned.jpg","7"
"072419","13:02:14","4","4","5.0.14.0","2","171","trial1","naming","0","0","0","0","fryer","0","3908","1","White_Screen.jpg","7","154","DeepFryer.jpg","7"
"072419","13:02:14","4","4","5.0.14.0","2","172","trial1","naming","0","0","0","0","staples","0","3052","1","White_Screen.jpg","7","38","Staples.jpg","7"
"072419","13:02:14","4","4","5.0.14.0","2","173","trial1","naming","0","0","0","0","fence","0","2535","1","White_Screen.jpg","9","152","Fence_Wooden.jpg","9"
"072419","13:02:14","4","4","5.0.14.0","2","174","trial1","naming","0","0","0","0","chocolate egg","0","5725","1","White_Screen.jpg","6","173","Egg_Chocolate.jpg","6"
"072419","13:02:14","4","4","5.0.14.0","2","175","trial1","naming","0","0","0","0","ice cubes","0","2610","1","White_Screen.jpg","7","194","IceCubes.jpg","7"
"072419","13:02:14","4","4","5.0.14.0","2","176","trial1","naming","0","0","0","0","t","0","10000","1","White_Screen.jpg","6","65","BumperCar.jpg","6"
"072419","13:02:14","4","4","5.0.14.0","2","177","trial1","naming","0","0","0","0","shed","0","4886","1","White_Screen.jpg","9","45","Outhouse.jpg","9"
"072419","13:02:14","4","4","5.0.14.0","2","178","trial1","naming","0","0","0","0","iguana","0","2809","1","White_Screen.jpg","8","21","Iguana.jpg","8"
"072419","13:02:14","4","4","5.0.14.0","2","179","trial1","naming","0","0","0","0","rifle","0","6260","1","White_Screen.jpg","8","89","Gun_Bazooka.jpg","8"
"072419","13:02:14","4","4","5.0.14.0","2","180","trial1","naming","0","0","0","0","sushi","0","2183","1","White_Screen.jpg","8","77","Sushi.jpg","8"
"072419","13:02:14","4","4","5.0.14.0","2","181","trial1","naming","0","0","0","0","hat","0","6272","1","White_Screen.jpg","8","11","Hat_Beret.jpg","8"
"072419","13:02:14","4","4","5.0.14.0","2","182","trial1","naming","0","0","0","0","lizard","0","2965","1","White_Screen.jpg","11","146","Gecko.jpg","11"
"072419","13:02:14","4","4","5.0.14.0","2","183","trial1","naming","0","0","0","0","potato","0","2433","1","White_Screen.jpg","7","112","Potato.jpg","7"
"072419","13:02:14","4","4","5.0.14.0","2","184","trial1","naming","0","0","0","0","toaster","0","2230","1","White_Screen.jpg","9","139","Toaster_MetalSleek.jpg","9"
"072419","13:02:14","4","4","5.0.14.0","2","185","trial1","naming","0","0","0","0","teddy bear","0","2586","1","White_Screen.jpg","9","10","Toy_BearBrownPlushie.jpg","9"
"072419","13:02:14","4","4","5.0.14.0","2","186","trial1","naming","0","0","0","0","scooper","0","5515","1","White_Screen.jpg","7","130","Toy_SandRake.jpg","7"
"072419","13:02:14","4","4","5.0.14.0","2","187","trial1","naming","0","0","0","0","mason jars","0","3781","1","White_Screen.jpg","8","113","Jars_PetFood.jpg","8"
"072419","13:02:14","4","4","5.0.14.0","2","188","trial1","naming","0","0","0","0","window","0","2605","1","White_Screen.jpg","8","124","DormerWindow.jpg","8"
"072419","13:02:14","4","4","5.0.14.0","2","189","trial1","naming","0","0","0","0","football","0","4039","1","White_Screen.jpg","7","123","Ball_Football.jpg","7"
"072419","13:02:14","4","4","5.0.14.0","2","190","trial1","naming","0","0","0","0","shears","0","2643","1","White_Screen.jpg","9","43","HedgeShears.jpg","9"
