"date","time","group","subject","build","blocknum","trialnum","blockcode","trialcode","pretrialpause","posttrialpause","trialduration","trialtimeout","response","correct","latency","stimulusnumber1","stimulusitem1","stimulusonset1","stimulusnumber2","stimulusitem2","stimulusonset2"
"091219","11:30:54","18","18","5.0.14.0","2","1","trial1","naming","0","0","0","0","","0","10000","1","White_Screen.jpg","80","87","Hat_Cowboy.jpg","80"
"091219","11:30:54","18","18","5.0.14.0","2","2","trial1","naming","0","0","0","0","candyEnter Name","0","4441","1","White_Screen.jpg","22","58","Box_Chocolate.jpg","22"
"091219","11:30:54","18","18","5.0.14.0","2","3","trial1","naming","0","0","0","0","speakerEnter Name","0","3815","1","White_Screen.jpg","24","176","Speakers_Theatre.jpg","24"
"091219","11:30:54","18","18","5.0.14.0","2","4","trial1","naming","0","0","0","0","toyEnter Name","0","3482","1","White_Screen.jpg","14","77","Toy_StackingRing.jpg","14"
"091219","11:30:54","18","18","5.0.14.0","2","5","trial1","naming","0","0","0","0","rulerEnter Name","0","2239","1","White_Screen.jpg","13","126","Ruler_Wooden.jpg","13"
"091219","11:30:54","18","18","5.0.14.0","2","6","trial1","naming","0","0","0","0","stoveEnter Name","0","3692","1","White_Screen.jpg","14","69","Fireplace_Outdoor.jpg","14"
"091219","11:30:54","18","18","5.0.14.0","2","7","trial1","naming","0","0","0","0","hammerEnter Name","0","1893","1","White_Screen.jpg","18","74","SledgeHammer.jpg","18"
"091219","11:30:54","18","18","5.0.14.0","2","8","trial1","naming","0","0","0","0","lanternEnter Name","0","4384","1","White_Screen.jpg","14","189","Pot_TurkishCoffee.jpg","14"
"091219","11:30:54","18","18","5.0.14.0","2","9","trial1","naming","0","0","0","0","knifeEnter Name","0","3827","1","White_Screen.jpg","16","81","Knife_Kitchen.jpg","16"
"091219","11:30:54","18","18","5.0.14.0","2","10","trial1","naming","0","0","0","0","dolphinEnter Name","0","2564","1","White_Screen.jpg","13","163","Dolphine.jpg","13"
"091219","11:30:54","18","18","5.0.14.0","2","11","trial1","naming","0","0","0","0","tableEnter Name","0","8374","1","White_Screen.jpg","16","27","Table_Conference.jpg","16"
"091219","11:30:54","18","18","5.0.14.0","2","12","trial1","naming","0","0","0","0","envelopeEnter Name","0","3257","1","White_Screen.jpg","15","151","Envelope_Manila.jpg","15"
"091219","11:30:54","18","18","5.0.14.0","2","13","trial1","naming","0","0","0","0","dart boardEnter Name","0","3242","1","White_Screen.jpg","19","118","DartBoard.jpg","19"
"091219","11:30:54","18","18","5.0.14.0","2","14","trial1","naming","0","0","0","0","guitar caseEnter Name","0","5714","1","White_Screen.jpg","14","175","Guitarcase.jpg","14"
"091219","11:30:54","18","18","5.0.14.0","2","15","trial1","naming","0","0","0","0","tools","0","10000","1","White_Screen.jpg","17","131","Toolbox_BlackOpen.jpg","17"
"091219","11:30:54","18","18","5.0.14.0","2","16","trial1","naming","0","0","0","0","tin canEnter Name","0","4621","1","White_Screen.jpg","20","64","Canister_Tea.jpg","20"
"091219","11:30:54","18","18","5.0.14.0","2","17","trial1","naming","0","0","0","0","recorderEnter Name","0","3572","1","White_Screen.jpg","20","149","RecorderInstrument.jpg","20"
"091219","11:30:54","18","18","5.0.14.0","2","18","trial1","naming","0","0","0","0","butterfly netEnter Name","0","8320","1","White_Screen.jpg","21","43","NetButterfly.jpg","21"
"091219","11:30:54","18","18","5.0.14.0","2","19","trial1","naming","0","0","0","0","tapeEnter Name","0","3686","1","White_Screen.jpg","15","183","Tape_Clear.jpg","15"
"091219","11:30:54","18","18","5.0.14.0","2","20","trial1","naming","0","0","0","0","screenerEnter Name","0","6459","1","White_Screen.jpg","15","16","ScannerShoplifting.jpg","15"
"091219","11:30:54","18","18","5.0.14.0","2","21","trial1","naming","0","0","0","0","plantEnter Name","0","3773","1","White_Screen.jpg","13","3","HerbsInBag.jpg","13"
"091219","11:30:54","18","18","5.0.14.0","2","22","trial1","naming","0","0","0","0","knifeEnter Name","0","8212","1","White_Screen.jpg","15","136","Cleaver_Meat.jpg","15"
"091219","11:30:54","18","18","5.0.14.0","2","23","trial1","naming","0","0","0","0","gumsEnter Name","0","4906","1","White_Screen.jpg","13","171","TeethMould.jpg","13"
"091219","11:30:54","18","18","5.0.14.0","2","24","trial1","naming","0","0","0","0","glovesEnter Name","0","3220","1","White_Screen.jpg","22","63","Gloves_Winter.jpg","22"
"091219","11:30:54","18","18","5.0.14.0","2","25","trial1","naming","0","0","0","0","helmetEnter Name","0","3911","1","White_Screen.jpg","15","125","Helmet_Football.jpg","15"
"091219","11:30:54","18","18","5.0.14.0","2","26","trial1","naming","0","0","0","0","sinkEnter Name","0","4198","1","White_Screen.jpg","14","141","Sink_Kitchen.jpg","14"
"091219","11:30:54","18","18","5.0.14.0","2","27","trial1","naming","0","0","0","0","ramEnter Name","0","1831","1","White_Screen.jpg","21","26","RamAnimal.jpg","21"
"091219","11:30:54","18","18","5.0.14.0","2","28","trial1","naming","0","0","0","0","scrub brushEnter Name","0","5041","1","White_Screen.jpg","14","104","Brush_Nail.jpg","14"
"091219","11:30:54","18","18","5.0.14.0","2","29","trial1","naming","0","0","0","0","ribbonEnter Name","0","5588","1","White_Screen.jpg","15","135","Tape_Washi.jpg","15"
"091219","11:30:54","18","18","5.0.14.0","2","30","trial1","naming","0","0","0","0","sleeping baEnter Name","0","5973","1","White_Screen.jpg","15","187","InflatableSleepingBag.jpg","15"
"091219","11:30:54","18","18","5.0.14.0","2","31","trial1","naming","0","0","0","0","traffic signEnter Name","0","4722","1","White_Screen.jpg","14","45","sign_traffic.jpg","14"
"091219","11:30:54","18","18","5.0.14.0","2","32","trial1","naming","0","0","0","0","truckEnter Name","0","3380","1","White_Screen.jpg","14","17","PickupTruck.jpg","14"
"091219","11:30:54","18","18","5.0.14.0","2","33","trial1","naming","0","0","0","0","keyboardEnter Name","0","4075","1","White_Screen.jpg","16","62","ControlPanel.jpg","16"
"091219","11:30:54","18","18","5.0.14.0","2","34","trial1","naming","0","0","0","0","cuEnter Name","0","2989","1","White_Screen.jpg","14","34","Cup_Styrofoam.jpg","14"
"091219","11:30:54","18","18","5.0.14.0","2","35","trial1","naming","0","0","0","0","coolerEnter Name","0","3226","1","White_Screen.jpg","16","9","Cooler.jpg","16"
"091219","11:30:54","18","18","5.0.14.0","2","36","trial1","naming","0","0","0","0","boxEnter Name","0","2274","1","White_Screen.jpg","14","14","Case_WoodenOrnate.jpg","14"
"091219","11:30:54","18","18","5.0.14.0","2","37","trial1","naming","0","0","0","0","bowlEnter Name","0","1795","1","White_Screen.jpg","13","67","Bowl_Glass.jpg","13"
"091219","11:30:54","18","18","5.0.14.0","2","38","trial1","naming","0","0","0","0","radio boardEnter Name","0","5998","1","White_Screen.jpg","21","4","SoundMixer_White.jpg","21"
"091219","11:30:54","18","18","5.0.14.0","2","39","trial1","naming","0","0","0","0","nooseEnter Name","0","1960","1","White_Screen.jpg","21","180","Noose.jpg","21"
"091219","11:30:54","18","18","5.0.14.0","2","40","trial1","naming","0","0","0","0","ventEnter Name","0","2376","1","White_Screen.jpg","14","103","AirVent.jpg","14"
"091219","11:30:54","18","18","5.0.14.0","2","41","trial1","naming","0","0","0","0","airplaneEnter Name","0","2522","1","White_Screen.jpg","15","182","Airplane_Fighter.jpg","15"
"091219","11:30:54","18","18","5.0.14.0","2","42","trial1","naming","0","0","0","0","appleEnter Name","0","2362","1","White_Screen.jpg","20","177","Apple_RedAndGreen.jpg","20"
"091219","11:30:54","18","18","5.0.14.0","2","43","trial1","naming","0","0","0","0","coffee mugEnter Name","0","4487","1","White_Screen.jpg","14","33","Mug_Travel.jpg","14"
"091219","11:30:54","18","18","5.0.14.0","2","44","trial1","naming","0","0","0","0","keychainEnter Name","0","3775","1","White_Screen.jpg","15","11","Keychain_Leather.jpg","15"
"091219","11:30:54","18","18","5.0.14.0","2","45","trial1","naming","0","0","0","0","acropolisEnter Name","0","6367","1","White_Screen.jpg","16","181","Colosseum.jpg","16"
"091219","11:30:54","18","18","5.0.14.0","2","46","trial1","naming","0","0","0","0","double deckEnter Name","0","5517","1","White_Screen.jpg","14","122","Bus_DoubleDecker.jpg","14"
"091219","11:30:54","18","18","5.0.14.0","2","47","trial1","naming","0","0","0","0","humidifierEnter Name","0","5951","1","White_Screen.jpg","15","82","Humidifier.jpg","15"
"091219","11:30:54","18","18","5.0.14.0","2","48","trial1","naming","0","0","0","0","racetrackEnter Name","0","4366","1","White_Screen.jpg","15","129","Toy_RaceTrack.jpg","15"
"091219","11:30:54","18","18","5.0.14.0","2","49","trial1","naming","0","0","0","0","canteloupeEnter Name","0","5230","1","White_Screen.jpg","19","142","Cantaloupe.jpg","19"
"091219","11:30:54","18","18","5.0.14.0","2","50","trial1","naming","0","0","0","0","thermos","0","6483","1","White_Screen.jpg","32","115","Thermos_Decorated.jpg","32"
"091219","11:30:54","18","18","5.0.14.0","2","52","trial1","naming","0","0","0","0","hand","0","10000","1","White_Screen.jpg","12","50","Hand.jpg","12"
"091219","11:30:54","18","18","5.0.14.0","2","53","trial1","naming","0","0","0","0","donald duckEnter Name","0","3912","1","White_Screen.jpg","22","134","DonaldDuck_Toy.jpg","22"
"091219","11:30:54","18","18","5.0.14.0","2","54","trial1","naming","0","0","0","0","cushionEnter Name","0","6339","1","White_Screen.jpg","14","60","Stool_Foot.jpg","14"
"091219","11:30:54","18","18","5.0.14.0","2","55","trial1","naming","0","0","0","0","cameraEnter Name","0","2559","1","White_Screen.jpg","15","123","Camera_Antique.jpg","15"
"091219","11:30:54","18","18","5.0.14.0","2","56","trial1","naming","0","0","0","0","blocksEnter Name","0","2105","1","White_Screen.jpg","13","35","Toy_BlocksLetter.jpg","13"
"091219","11:30:54","18","18","5.0.14.0","2","57","trial1","naming","0","0","0","0","plungerEnter Name","0","2866","1","White_Screen.jpg","47","194","Plunger.jpg","47"
"091219","11:30:54","18","18","5.0.14.0","2","58","trial1","naming","0","0","0","0","signEnter Name","0","2822","1","White_Screen.jpg","13","7","Sign_HumpBridgeAhead.jpg","13"
"091219","11:30:54","18","18","5.0.14.0","2","59","trial1","naming","0","0","0","0","concreteEnter Name","0","5504","1","White_Screen.jpg","17","101","PedestalGreek.jpg","17"
"091219","11:30:54","18","18","5.0.14.0","2","60","trial1","naming","0","0","0","0","screwEnter Name","0","2598","1","White_Screen.jpg","15","48","Bolt_WithNut.jpg","15"
"091219","11:30:54","18","18","5.0.14.0","2","61","trial1","naming","0","0","0","0","headphonesEnter Name","0","2732","1","White_Screen.jpg","15","150","Headphones.jpg","15"
"091219","11:30:54","18","18","5.0.14.0","2","62","trial1","naming","0","0","0","0","heat lampEnter Name","0","5757","1","White_Screen.jpg","14","56","Heater_Outdoor.jpg","14"
"091219","11:30:54","18","18","5.0.14.0","2","63","trial1","naming","0","0","0","0","toolEnter Name","0","6741","1","White_Screen.jpg","15","68","Carbiner_Ascender.jpg","15"
"091219","11:30:54","18","18","5.0.14.0","2","64","trial1","naming","0","0","0","0","keyboardEnter Name","0","8130","1","White_Screen.jpg","17","93","DJMixer.jpg","17"
"091219","11:30:54","18","18","5.0.14.0","2","65","trial1","naming","0","0","0","0","chinese hoeEnter Name","0","10000","1","White_Screen.jpg","16","124","BuildingChinese.jpg","16"
"091219","11:30:54","18","18","5.0.14.0","2","66","trial1","naming","0","0","0","0","strainerEnter Name","0","3391","1","White_Screen.jpg","18","116","Sieve_SideView.jpg","18"
"091219","11:30:54","18","18","5.0.14.0","2","67","trial1","naming","0","0","0","0","combEnter Name","0","2071","1","White_Screen.jpg","18","98","Comb_1.jpg","18"
"091219","11:30:54","18","18","5.0.14.0","2","68","trial1","naming","0","0","0","0","kangarooEnter Name","0","3857","1","White_Screen.jpg","16","44","Kangaroo.jpg","16"
"091219","11:30:54","18","18","5.0.14.0","2","69","trial1","naming","0","0","0","0","onion","0","7068","1","White_Screen.jpg","16","42","Lychee.jpg","16"
"091219","11:30:54","18","18","5.0.14.0","2","70","trial1","naming","0","0","0","0","boxEnter Name","0","3361","1","White_Screen.jpg","16","54","Container_RedPlastic.jpg","16"
"091219","11:30:54","18","18","5.0.14.0","2","71","trial1","naming","0","0","0","0","tomatoeEnter Name","0","6291","1","White_Screen.jpg","15","61","TomatoSauce.jpg","15"
"091219","11:30:54","18","18","5.0.14.0","2","72","trial1","naming","0","0","0","0","eagleEnter Name","0","2762","1","White_Screen.jpg","19","72","Bird_Falcon.jpg","19"
"091219","11:30:54","18","18","5.0.14.0","2","73","trial1","naming","0","0","0","0","oysterEnter Name","0","5012","1","White_Screen.jpg","16","108","Oyster.jpg","16"
"091219","11:30:54","18","18","5.0.14.0","2","74","trial1","naming","0","0","0","0","juice boxEnter Name","0","3322","1","White_Screen.jpg","15","186","JuiceBox.jpg","15"
"091219","11:30:54","18","18","5.0.14.0","2","75","trial1","naming","0","0","0","0","headbandEnter Name","0","2793","1","White_Screen.jpg","14","24","HairBand.jpg","14"
"091219","11:30:54","18","18","5.0.14.0","2","76","trial1","naming","0","0","0","0","eiffel towerEnter Name","0","3586","1","White_Screen.jpg","21","120","TowerEiffel.jpg","21"
"091219","11:30:54","18","18","5.0.14.0","2","77","trial1","naming","0","0","0","0","harmonicaEnter Name","0","3056","1","White_Screen.jpg","18","46","Harmonica.jpg","18"
"091219","11:30:54","18","18","5.0.14.0","2","78","trial1","naming","0","0","0","0","kiteEnter Name","0","1647","1","White_Screen.jpg","14","66","Kite_Rainbow.jpg","14"
"091219","11:30:54","18","18","5.0.14.0","2","79","trial1","naming","0","0","0","0","wheelbarroEnter Name","0","3979","1","White_Screen.jpg","14","148","Wheelbarrow_Green.jpg","14"
"091219","11:30:54","18","18","5.0.14.0","2","80","trial1","naming","0","0","0","0","coffee grindEnter Name","0","5340","1","White_Screen.jpg","17","38","ProcessorFood_Old.jpg","17"
"091219","11:30:54","18","18","5.0.14.0","2","81","trial1","naming","0","0","0","0","malletEnter Name","0","1932","1","White_Screen.jpg","14","76","Mallet.jpg","14"
"091219","11:30:54","18","18","5.0.14.0","2","82","trial1","naming","0","0","0","0","canonEnter Name","0","2065","1","White_Screen.jpg","15","199","Cannon.jpg","15"
"091219","11:30:54","18","18","5.0.14.0","2","83","trial1","naming","0","0","0","0","clockEnter Name","0","2409","1","White_Screen.jpg","21","130","Clock_Wall.jpg","21"
"091219","11:30:54","18","18","5.0.14.0","2","84","trial1","naming","0","0","0","0","birdEnter Name","0","5195","1","White_Screen.jpg","14","113","Puffin.jpg","14"
"091219","11:30:54","18","18","5.0.14.0","2","85","trial1","naming","0","0","0","0","lockerEnter Name","0","2597","1","White_Screen.jpg","13","19","ElectricSwitchboard.jpg","13"
"091219","11:30:54","18","18","5.0.14.0","2","86","trial1","naming","0","0","0","0","element tablEnter Name","0","5928","1","White_Screen.jpg","13","178","PeriodicTable.jpg","13"
"091219","11:30:54","18","18","5.0.14.0","2","87","trial1","naming","0","0","0","0","breadEnter Name","0","5824","1","White_Screen.jpg","38","156","Bread_Roll.jpg","38"
"091219","11:30:54","18","18","5.0.14.0","2","88","trial1","naming","0","0","0","0","lettuceEnter Name","0","3024","1","White_Screen.jpg","13","102","Lettuce_Romaine.jpg","13"
"091219","11:30:54","18","18","5.0.14.0","2","89","trial1","naming","0","0","0","0","alexaEnter Name","0","3352","1","White_Screen.jpg","21","92","Hockey_Puck.jpg","21"
"091219","11:30:54","18","18","5.0.14.0","2","90","trial1","naming","0","0","0","0","fortune cookie","0","10000","1","White_Screen.jpg","14","107","FortuneCookie.jpg","14"
"091219","11:30:54","18","18","5.0.14.0","2","91","trial1","naming","0","0","0","0","Enter Name","0","280","1","White_Screen.jpg","14","154","Knife_Butter.jpg","14"
"091219","11:30:54","18","18","5.0.14.0","2","92","trial1","naming","0","0","0","0","shoeEnter Name","0","3267","1","White_Screen.jpg","15","197","Shoe_Sneaker.jpg","15"
"091219","11:30:54","18","18","5.0.14.0","2","93","trial1","naming","0","0","0","0","nailEnter Name","0","1995","1","White_Screen.jpg","15","75","Nail.jpg","15"
"091219","11:30:54","18","18","5.0.14.0","2","94","trial1","naming","0","0","0","0","turkeyEnter Name","0","4681","1","White_Screen.jpg","14","99","Chicken_Raw.jpg","14"
"091219","11:30:54","18","18","5.0.14.0","2","95","trial1","naming","0","0","0","0","babydollEnter Name","0","3475","1","White_Screen.jpg","15","132","Toy_Babydoll.jpg","15"
"091219","11:30:54","18","18","5.0.14.0","2","96","trial1","naming","0","0","0","0","fish pinEnter Name","0","5777","1","White_Screen.jpg","15","170","Brooch_Fish.jpg","15"
"091219","11:30:54","18","18","5.0.14.0","2","97","trial1","naming","0","0","0","0","boEnter Name","0","10000","1","White_Screen.jpg","14","49","Flask_Metal.jpg","14"
"091219","11:30:54","18","18","5.0.14.0","2","98","trial1","naming","0","0","0","0","cement mixEnter Name","0","5120","1","White_Screen.jpg","14","32","Mixer_Cement.jpg","14"
"091219","11:30:54","18","18","5.0.14.0","2","99","trial1","naming","0","0","0","0","breadEnter Name","0","1901","1","White_Screen.jpg","15","138","Bread_Carrot.jpg","15"
"091219","11:30:54","18","18","5.0.14.0","2","100","trial1","naming","0","0","0","0","water bottleEnter Name","0","4191","1","White_Screen.jpg","27","30","Bottle_Plastic.jpg","27"
"091219","11:30:54","18","18","5.0.14.0","2","101","trial1","naming","0","0","0","0","bedEnter Name","0","2156","1","White_Screen.jpg","16","157","Bed_ChildBirch.jpg","16"
"091219","11:30:54","18","18","5.0.14.0","2","103","trial1","naming","0","0","0","0","ladleEnter Name","0","5430","1","White_Screen.jpg","16","159","Ladle.jpg","16"
"091219","11:30:54","18","18","5.0.14.0","2","104","trial1","naming","0","0","0","0","soup bowlEnter Name","0","4734","1","White_Screen.jpg","20","139","Bowl_Cereal.jpg","20"
"091219","11:30:54","18","18","5.0.14.0","2","105","trial1","naming","0","0","0","0","canned Enter Name","0","10000","1","White_Screen.jpg","17","110","Jar_Strawberry.jpg","17"
"091219","11:30:54","18","18","5.0.14.0","2","106","trial1","naming","0","0","0","0","drumEnter Name","0","2855","1","White_Screen.jpg","18","94","Drum_Conga.jpg","18"
"091219","11:30:54","18","18","5.0.14.0","2","107","trial1","naming","0","0","0","0","evergreenEnter Name","0","4156","1","White_Screen.jpg","18","137","Shrub_Cedar.jpg","18"
"091219","11:30:54","18","18","5.0.14.0","2","108","trial1","naming","0","0","0","0","slinkyEnter Name","0","2283","1","White_Screen.jpg","19","96","Toy_Slinky.jpg","19"
"091219","11:30:54","18","18","5.0.14.0","2","109","trial1","naming","0","0","0","0","geodeEnter Name","0","3828","1","White_Screen.jpg","18","6","Rock_Agate.jpg","18"
"091219","11:30:54","18","18","5.0.14.0","2","110","trial1","naming","0","0","0","0","columnEnter Name","0","5381","1","White_Screen.jpg","18","198","ColumnMarble.jpg","18"
"091219","11:30:54","18","18","5.0.14.0","2","111","trial1","naming","0","0","0","0","play drillEnter Name","0","3864","1","White_Screen.jpg","20","200","Toy_Drill.jpg","20"
"091219","11:30:54","18","18","5.0.14.0","2","112","trial1","naming","0","0","0","0","tapeEnter Name","0","4317","1","White_Screen.jpg","18","146","Tape_Scotch.jpg","18"
"091219","11:30:54","18","18","5.0.14.0","2","113","trial1","naming","0","0","0","0","wireEnter Name","0","3823","1","White_Screen.jpg","20","100","Wire_Soldering.jpg","20"
"091219","11:30:54","18","18","5.0.14.0","2","114","trial1","naming","0","0","0","0","toolEnter Name","0","4231","1","White_Screen.jpg","18","168","JumpingJack.jpg","18"
"091219","11:30:54","18","18","5.0.14.0","2","115","trial1","naming","0","0","0","0","dogEnter Name","0","2226","1","White_Screen.jpg","21","147","Dog_Bulldog.jpg","21"
"091219","11:30:54","18","18","5.0.14.0","2","116","trial1","naming","0","0","0","0","signEnter Name","0","4656","1","White_Screen.jpg","18","188","Sign_Caution.jpg","18"
"091219","11:30:54","18","18","5.0.14.0","2","117","trial1","naming","0","0","0","0","carEnter Name","0","2374","1","White_Screen.jpg","19","179","Car_Sedan.jpg","19"
"091219","11:30:54","18","18","5.0.14.0","2","118","trial1","naming","0","0","0","0","dollEnter Name","0","2072","1","White_Screen.jpg","17","40","Toy_DollHomeMade.jpg","17"
"091219","11:30:54","18","18","5.0.14.0","2","119","trial1","naming","0","0","0","0","presentEnter Name","0","2109","1","White_Screen.jpg","15","79","Box_GiftTopView.jpg","15"
"091219","11:30:54","18","18","5.0.14.0","2","120","trial1","naming","0","0","0","0","viking hatEnter Name","0","4595","1","White_Screen.jpg","15","57","Mask_Viking.jpg","15"
"091219","11:30:54","18","18","5.0.14.0","2","121","trial1","naming","0","0","0","0","hoola hoopEnter Name","0","4550","1","White_Screen.jpg","18","85","Hulahoop.jpg","18"
"091219","11:30:54","18","18","5.0.14.0","2","122","trial1","naming","0","0","0","0","mealEnter Name","0","2737","1","White_Screen.jpg","18","88","Chicken_Dinner.jpg","18"
"091219","11:30:54","18","18","5.0.14.0","2","123","trial1","naming","0","0","0","0","clock insideEnter Name","0","5795","1","White_Screen.jpg","19","172","Clock_Interior.jpg","19"
"091219","11:30:54","18","18","5.0.14.0","2","124","trial1","naming","0","0","0","0","maskEnter Name","0","2664","1","White_Screen.jpg","14","173","Mask_Masquerade.jpg","14"
"091219","11:30:54","18","18","5.0.14.0","2","125","trial1","naming","0","0","0","0","planeEnter Name","0","4684","1","White_Screen.jpg","21","161","Jet.jpg","21"
"091219","11:30:54","18","18","5.0.14.0","2","126","trial1","naming","0","0","0","0","key holderEnter Name","0","3119","1","White_Screen.jpg","15","153","KeyHook_Occupied.jpg","15"
"091219","11:30:54","18","18","5.0.14.0","2","127","trial1","naming","0","0","0","0","gourdEnter Name","0","3453","1","White_Screen.jpg","18","71","Squash_Pumpkin.jpg","18"
"091219","11:30:54","18","18","5.0.14.0","2","128","trial1","naming","0","0","0","0","mandolin\Enter Name","0","3615","1","White_Screen.jpg","16","83","Balalaika.jpg","16"
"091219","11:30:54","18","18","5.0.14.0","2","129","trial1","naming","0","0","0","0","puzzleEnter Name","0","3556","1","White_Screen.jpg","22","47","Toy_Shapesorter.jpg","22"
"091219","11:30:54","18","18","5.0.14.0","2","130","trial1","naming","0","0","0","0","bombEnter Name","0","2295","1","White_Screen.jpg","15","1","Bomb.jpg","15"
"091219","11:30:54","18","18","5.0.14.0","2","131","trial1","naming","0","0","0","0","shark toyEnter Name","0","4849","1","White_Screen.jpg","22","160","Toy_Shark.jpg","22"
"091219","11:30:54","18","18","5.0.14.0","2","132","trial1","naming","0","0","0","0","cameraEnter Name","0","2130","1","White_Screen.jpg","15","114","Camera_Digital.jpg","15"
"091219","11:30:54","18","18","5.0.14.0","2","133","trial1","naming","0","0","0","0","dowelEnter Name","0","3808","1","White_Screen.jpg","17","51","MassageRoller.jpg","17"
"091219","11:30:54","18","18","5.0.14.0","2","134","trial1","naming","0","0","0","0","strainerEnter Name","0","2569","1","White_Screen.jpg","14","5","DryRack_Dishes.jpg","14"
"091219","11:30:54","18","18","5.0.14.0","2","135","trial1","naming","0","0","0","0","dubkEnter Name","0","1953","1","White_Screen.jpg","14","10","Bird_CanadianGoose.jpg","14"
"091219","11:30:54","18","18","5.0.14.0","2","136","trial1","naming","0","0","0","0","lemonEnter Name","0","2978","1","White_Screen.jpg","15","191","Lemon.jpg","15"
"091219","11:30:54","18","18","5.0.14.0","2","137","trial1","naming","0","0","0","0","shelEnter Name","0","1960","1","White_Screen.jpg","14","31","Seashell_RoseMurex.jpg","14"
"091219","11:30:54","18","18","5.0.14.0","2","138","trial1","naming","0","0","0","0","ambulanceEnter Name","0","3507","1","White_Screen.jpg","16","65","Ambulance.jpg","16"
"091219","11:30:54","18","18","5.0.14.0","2","139","trial1","naming","0","0","0","0","radioEnter Name","0","2043","1","White_Screen.jpg","15","158","Boombox.jpg","15"
"091219","11:30:54","18","18","5.0.14.0","2","140","trial1","naming","0","0","0","0","carrotsEnter Name","0","2395","1","White_Screen.jpg","20","95","Carrot.jpg","20"
"091219","11:30:54","18","18","5.0.14.0","2","141","trial1","naming","0","0","0","0","lanternEnter Name","0","2837","1","White_Screen.jpg","16","117","Light_PostIsolated.jpg","16"
"091219","11:30:54","18","18","5.0.14.0","2","142","trial1","naming","0","0","0","0","water fountaEnter Name","0","4380","1","White_Screen.jpg","15","127","WaterFountain.jpg","15"
"091219","11:30:54","18","18","5.0.14.0","2","143","trial1","naming","0","0","0","0","wood toyEnter Name","0","6763","1","White_Screen.jpg","19","8","Dreidel.jpg","19"
"091219","11:30:54","18","18","5.0.14.0","2","144","trial1","naming","0","0","0","0","bootsEnter Name","0","3359","1","White_Screen.jpg","16","195","Boots_KneeHigh.jpg","16"
"091219","11:30:54","18","18","5.0.14.0","2","145","trial1","naming","0","0","0","0","pumpkinEnter Name","0","3210","1","White_Screen.jpg","18","167","Pumpkin.jpg","18"
"091219","11:30:54","18","18","5.0.14.0","2","146","trial1","naming","0","0","0","0","blocksEnter Name","0","4388","1","White_Screen.jpg","14","145","Toy_BlocksPlastic Colourful.jpg","14"
"091219","11:30:54","18","18","5.0.14.0","2","147","trial1","naming","0","0","0","0","perfumeEnter Name","0","4036","1","White_Screen.jpg","16","155","Cologne.jpg","16"
"091219","11:30:54","18","18","5.0.14.0","2","148","trial1","naming","0","0","0","0","sculptureEnter Name","0","3872","1","White_Screen.jpg","17","121","SculptureMetalFish.jpg","17"
"091219","11:30:54","18","18","5.0.14.0","2","149","trial1","naming","0","0","0","0","compactEnter Name","0","2859","1","White_Screen.jpg","16","174","Compact_Powder.jpg","16"
"091219","11:30:54","18","18","5.0.14.0","2","150","trial1","naming","0","0","0","0","bowlEnter Name","0","4329","1","White_Screen.jpg","17","140","Pot_BlackOld.jpg","17"
"091219","11:30:54","18","18","5.0.14.0","2","151","trial1","naming","0","0","0","0","bridgeEnter Name","0","3626","1","White_Screen.jpg","15","185","BridgeWooden.jpg","15"
"091219","11:30:54","18","18","5.0.14.0","2","152","trial1","naming","0","0","0","0","candleEnter Name","0","2470","1","White_Screen.jpg","21","70","Candle_ChristmasDecor.jpg","21"
"091219","11:30:54","18","18","5.0.14.0","2","154","trial1","naming","0","0","0","0","bootsEnter Name","0","1672","1","White_Screen.jpg","12","29","Shoes_WomenBoots.jpg","12"
"091219","11:30:54","18","18","5.0.14.0","2","155","trial1","naming","0","0","0","0","fanEnter Name","0","1609","1","White_Screen.jpg","17","128","Fan_Blades.jpg","17"
"091219","11:30:54","18","18","5.0.14.0","2","156","trial1","naming","0","0","0","0","bootsEnter Name","0","2239","1","White_Screen.jpg","21","143","Shoes_Snowboarding.jpg","21"
"091219","11:30:54","18","18","5.0.14.0","2","157","trial1","naming","0","0","0","0","canteenEnter Name","0","4146","1","White_Screen.jpg","17","112","Lunchbox.jpg","17"
"091219","11:30:54","18","18","5.0.14.0","2","158","trial1","naming","0","0","0","0","hotplateEnter Name","0","3174","1","White_Screen.jpg","18","21","Grill_Electric.jpg","18"
"091219","11:30:54","18","18","5.0.14.0","2","159","trial1","naming","0","0","0","0","licoriceEnter Name","0","2862","1","White_Screen.jpg","19","18","Licorice.jpg","19"
"091219","11:30:54","18","18","5.0.14.0","2","160","trial1","naming","0","0","0","0","bikeEnter Name","0","1733","1","White_Screen.jpg","21","91","Bicycle_Adult.jpg","21"
"091219","11:30:54","18","18","5.0.14.0","2","161","trial1","naming","0","0","0","0","tablesEnter Name","0","5453","1","White_Screen.jpg","18","20","Altar.jpg","18"
"091219","11:30:54","18","18","5.0.14.0","2","162","trial1","naming","0","0","0","0","leaf blowerEnter Name","0","4587","1","White_Screen.jpg","19","12","LeafBlower.jpg","19"
"091219","11:30:54","18","18","5.0.14.0","2","163","trial1","naming","0","0","0","0","scooterEnter Name","0","4024","1","White_Screen.jpg","18","169","Scooter.jpg","18"
"091219","11:30:54","18","18","5.0.14.0","2","164","trial1","naming","0","0","0","0","jetEnter Name","0","1780","1","White_Screen.jpg","17","133","Airplane_Commercial.jpg","17"
"091219","11:30:54","18","18","5.0.14.0","2","165","trial1","naming","0","0","0","0","panrsEnter Name","0","1865","1","White_Screen.jpg","18","80","Pants.jpg","18"
"091219","11:30:54","18","18","5.0.14.0","2","166","trial1","naming","0","0","0","0","beer steinEnter Name","0","5094","1","White_Screen.jpg","16","184","Glass_Beer.jpg","16"
"091219","11:30:54","18","18","5.0.14.0","2","167","trial1","naming","0","0","0","0","detectorEnter Name","0","8017","1","White_Screen.jpg","18","165","MetalDetector.jpg","18"
"091219","11:30:54","18","18","5.0.14.0","2","168","trial1","naming","0","0","0","0","squashEnter Name","0","3636","1","White_Screen.jpg","16","164","Zucchini.jpg","16"
"091219","11:30:54","18","18","5.0.14.0","2","169","trial1","naming","0","0","0","0","flagEnter Name","0","2604","1","White_Screen.jpg","19","52","PirateFlag.jpg","19"
"091219","11:30:54","18","18","5.0.14.0","2","170","trial1","naming","0","0","0","0","pitcher glasEnter Name","0","8693","1","White_Screen.jpg","22","192","MilkPitcher.jpg","22"
"091219","11:30:54","18","18","5.0.14.0","2","171","trial1","naming","0","0","0","0","timerEnter Name","0","1855","1","White_Screen.jpg","15","15","TimerKitchen.jpg","15"
"091219","11:30:54","18","18","5.0.14.0","2","172","trial1","naming","0","0","0","0","grateEnter Name","0","2064","1","White_Screen.jpg","15","28","ManholeCover.jpg","15"
"091219","11:30:54","18","18","5.0.14.0","2","173","trial1","naming","0","0","0","0","lightbulbEnter Name","0","3916","1","White_Screen.jpg","17","73","LightBulb_White.jpg","17"
"091219","11:30:54","18","18","5.0.14.0","2","174","trial1","naming","0","0","0","0","chainEnter Name","0","4975","1","White_Screen.jpg","14","193","Keychain_Metal.jpg","14"
"091219","11:30:54","18","18","5.0.14.0","2","175","trial1","naming","0","0","0","0","brushEnter Name","0","1939","1","White_Screen.jpg","21","25","Brush_Shoe.jpg","21"
"091219","11:30:54","18","18","5.0.14.0","2","176","trial1","naming","0","0","0","0","pineappleEnter Name","0","3615","1","White_Screen.jpg","15","84","Pineapple.jpg","15"
"091219","11:30:54","18","18","5.0.14.0","2","177","trial1","naming","0","0","0","0","flowerEnter Name","0","2513","1","White_Screen.jpg","14","144","Flower_Crane.jpg","14"
"091219","11:30:54","18","18","5.0.14.0","2","178","trial1","naming","0","0","0","0","hatEnter Name","0","1300","1","White_Screen.jpg","16","190","Hat_Tuque.jpg","16"
"091219","11:30:54","18","18","5.0.14.0","2","179","trial1","naming","0","0","0","0","key holderEnter Name","0","3201","1","White_Screen.jpg","16","36","KeyHook_Empty.jpg","16"
"091219","11:30:54","18","18","5.0.14.0","2","180","trial1","naming","0","0","0","0","lawn mowerEnter Name","0","3219","1","White_Screen.jpg","18","41","LawnMower.jpg","18"
"091219","11:30:54","18","18","5.0.14.0","2","181","trial1","naming","0","0","0","0","matchesEnter Name","0","3222","1","White_Screen.jpg","15","86","MatchBook.jpg","15"
"091219","11:30:54","18","18","5.0.14.0","2","182","trial1","naming","0","0","0","0","chairEnter Name","0","2397","1","White_Screen.jpg","14","111","Chair_PlasticGreen.jpg","14"
"091219","11:30:54","18","18","5.0.14.0","2","183","trial1","naming","0","0","0","0","lightEnter Name","0","1986","1","White_Screen.jpg","15","13","LampPost_WhiteOrnate.jpg","15"
"091219","11:30:54","18","18","5.0.14.0","2","184","trial1","naming","0","0","0","0","bustEnter Name","0","3956","1","White_Screen.jpg","15","78","Statue_Head.jpg","15"
"091219","11:30:54","18","18","5.0.14.0","2","185","trial1","naming","0","0","0","0","lightEnter Name","0","2493","1","White_Screen.jpg","15","90","FlashlightHeadBand.jpg","15"
"091219","11:30:54","18","18","5.0.14.0","2","186","trial1","naming","0","0","0","0","spiderEnter Name","0","2984","1","White_Screen.jpg","19","106","Spider.jpg","19"
"091219","11:30:54","18","18","5.0.14.0","2","187","trial1","naming","0","0","0","0","helicopter tyEnter Name","0","5741","1","White_Screen.jpg","17","109","Toy_Helicopter.jpg","17"
"091219","11:30:54","18","18","5.0.14.0","2","188","trial1","naming","0","0","0","0","rulerEnter Name","0","3851","1","White_Screen.jpg","19","55","Ruler_Digital.jpg","19"
"091219","11:30:54","18","18","5.0.14.0","2","189","trial1","naming","0","0","0","0","socksEnter Name","0","2027","1","White_Screen.jpg","14","162","Socks_Winter.jpg","14"
"091219","11:30:54","18","18","5.0.14.0","2","190","trial1","naming","0","0","0","0","matEnter Name","0","1541","1","White_Screen.jpg","15","22","Mat_Door.jpg","15"
"091219","11:30:54","18","18","5.0.14.0","2","191","trial1","naming","0","0","0","0","forkEnter Name","0","1693","1","White_Screen.jpg","15","37","Fork_Regular.jpg","15"
"091219","11:30:54","18","18","5.0.14.0","2","192","trial1","naming","0","0","0","0","appleEnter Name","0","2264","1","White_Screen.jpg","15","89","Plum.jpg","15"
"091219","11:30:54","18","18","5.0.14.0","2","193","trial1","naming","0","0","0","0","fire extingisEnter Name","0","6191","1","White_Screen.jpg","16","166","FireExtinguisher.jpg","16"
"091219","11:30:54","18","18","5.0.14.0","2","194","trial1","naming","0","0","0","0","bath toyEnter Name","0","8359","1","White_Screen.jpg","22","97","Toy_Octopus.jpg","22"
"091219","11:30:54","18","18","5.0.14.0","2","195","trial1","naming","0","0","0","0","snailEnter Name","0","2233","1","White_Screen.jpg","15","2","Fossil.jpg","15"
"091219","11:30:54","18","18","5.0.14.0","2","196","trial1","naming","0","0","0","0","screwdriverEnter Name","0","3182","1","White_Screen.jpg","15","196","ScrewDriver.jpg","15"
"091219","11:30:54","18","18","5.0.14.0","2","197","trial1","naming","0","0","0","0","hard hatEnter Name","0","3580","1","White_Screen.jpg","14","59","Hat_Hard.jpg","14"
"091219","11:30:54","18","18","5.0.14.0","2","198","trial1","naming","0","0","0","0","play horseEnter Name","0","2763","1","White_Screen.jpg","15","53","Toy_RockingHorseBlack.jpg","15"
"091219","11:30:54","18","18","5.0.14.0","2","199","trial1","naming","0","0","0","0","casette tapeEnter Name","0","4777","1","White_Screen.jpg","19","152","Cassette_Audio.jpg","19"
"091219","11:30:54","18","18","5.0.14.0","2","200","trial1","naming","0","0","0","0","breadEnter Name","0","2390","1","White_Screen.jpg","17","39","Basket_Bread.jpg","17"
"091219","11:30:54","18","18","5.0.14.0","2","201","trial1","naming","0","0","0","0","garminEnter Name","0","3486","1","White_Screen.jpg","21","23","GPS.jpg","21"
"091219","11:30:54","18","18","5.0.14.0","2","202","trial1","naming","0","0","0","0","note holderEnter Name","0","6229","1","White_Screen.jpg","15","105","MemoPaperSpike.jpg","15"
"091219","11:30:54","18","18","5.0.14.0","2","203","trial1","naming","0","0","0","0","instrumentEnter Name","0","6415","1","White_Screen.jpg","14","119","Cabasa.jpg","14"
"091219","11:30:54","18","18","5.0.14.0","3","1","demographics_block","gender","0","0","0","0","female","1","15025","0","0","0","0","0","0"
"091219","11:30:54","18","18","5.0.14.0","3","1","demographics_block","age","0","0","0","0","59","1","15025","0","0","0","0","0","0"
"091219","11:30:54","18","18","5.0.14.0","3","1","demographics_block","education","0","0","0","0","16","1","15025","0","0","0","0","0","0"
"091219","11:30:54","18","18","5.0.14.0","3","2","demographics_block","left_right_handed","0","0","0","0","Right","1","9947","0","0","0","0","0","0"
"091219","11:30:54","18","18","5.0.14.0","3","2","demographics_block","raceoption1","0","0","0","0","0","1","9947","0","0","0","0","0","0"
"091219","11:30:54","18","18","5.0.14.0","3","2","demographics_block","raceoption2","0","0","0","0","","1","9947","0","0","0","0","0","0"
"091219","11:30:54","18","18","5.0.14.0","3","2","demographics_block","raceoption3","0","0","0","0","","1","9947","0","0","0","0","0","0"
"091219","11:30:54","18","18","5.0.14.0","3","2","demographics_block","raceoption4","0","0","0","0","","1","9947","0","0","0","0","0","0"
"091219","11:30:54","18","18","5.0.14.0","3","2","demographics_block","raceoption5","0","0","0","0","","1","9947","0","0","0","0","0","0"
"091219","11:30:54","18","18","5.0.14.0","3","2","demographics_block","raceoption6","0","0","0","0","","1","9947","0","0","0","0","0","0"
"091219","11:30:54","18","18","5.0.14.0","3","2","demographics_block","raceoption7","0","0","0","0","","1","9947","0","0","0","0","0","0"
"091219","11:30:54","18","18","5.0.14.0","3","2","demographics_block","raceoption8","0","0","0","0","","1","9947","0","0","0","0","0","0"
"091219","11:30:54","18","18","5.0.14.0","3","2","demographics_block","raceoption9","0","0","0","0","","1","9947","0","0","0","0","0","0"
"091219","11:30:54","18","18","5.0.14.0","3","2","demographics_block","raceother","0","0","0","0","","1","9947","0","0","0","0","0","0"
"091219","11:30:54","18","18","5.0.14.0","3","2","demographics_block","raceother","0","0","0","0","","1","9947","0","0","0","0","0","0"
"091219","11:30:54","18","18","5.0.14.0","3","2","demographics_block","english_language","0","0","0","0","Yes","1","9947","0","0","0","0","0","0"
"091219","11:30:54","18","18","5.0.14.0","3","2","demographics_block","english_languageother","0","0","0","0","","1","9947","0","0","0","0","0","0"
"091219","11:30:54","18","18","5.0.14.0","3","3","demographics_block","eyesight","0","0","0","0","Yes","1","9250","0","0","0","0","0","0"
"091219","11:30:54","18","18","5.0.14.0","3","3","demographics_block","colorblind","0","0","0","0","No","1","9250","0","0","0","0","0","0"
"091219","11:30:54","18","18","5.0.14.0","4","1","worker_id_block","worker_id_textbox","0","0","0","0","A2KROBPV0YPE4A","1","4713","0","0","0","0","0","0"
"date","time","group","subject","build","blocknum","trialnum","blockcode","trialcode","pretrialpause","posttrialpause","trialduration","trialtimeout","response","correct","latency","stimulusnumber1","stimulusitem1","stimulusonset1","stimulusnumber2","stimulusitem2","stimulusonset2"
"091219","11:32:53","19","19","5.0.14.0","2","1","trial1","naming","0","0","0","0","firepit","0","6627","1","White_Screen.jpg","129","69","Fireplace_Outdoor.jpg","129"
"091219","11:32:53","19","19","5.0.14.0","2","2","trial1","naming","0","0","0","0","coffee grinder","0","6079","1","White_Screen.jpg","10","38","ProcessorFood_Old.jpg","10"
"091219","11:32:53","19","19","5.0.14.0","2","3","trial1","naming","0","0","0","0","lamp post","0","4784","1","White_Screen.jpg","10","13","LampPost_WhiteOrnate.jpg","10"
"091219","11:32:53","19","19","5.0.14.0","2","4","trial1","naming","0","0","0","0","keychain","0","5827","1","White_Screen.jpg","8","11","Keychain_Leather.jpg","8"
"091219","11:32:53","19","19","5.0.14.0","2","5","trial1","naming","0","0","0","0","apple","0","4909","1","White_Screen.jpg","9","89","Plum.jpg","9"
"091219","11:32:53","19","19","5.0.14.0","2","6","trial1","naming","0","0","0","0","boston terrier","0","4151","1","White_Screen.jpg","9","147","Dog_Bulldog.jpg","9"
"091219","11:32:53","19","19","5.0.14.0","2","7","trial1","naming","0","0","0","0","scrub brush","0","3848","1","White_Screen.jpg","10","104","Brush_Nail.jpg","10"
"091219","11:32:53","19","19","5.0.14.0","2","8","trial1","naming","0","0","0","0","chinese building","0","4573","1","White_Screen.jpg","10","124","BuildingChinese.jpg","10"
"091219","11:32:53","19","19","5.0.14.0","2","9","trial1","naming","0","0","0","0","booties","0","3299","1","White_Screen.jpg","9","29","Shoes_WomenBoots.jpg","9"
"091219","11:32:53","19","19","5.0.14.0","2","10","trial1","naming","0","0","0","0","centerpiece","0","4140","1","White_Screen.jpg","11","70","Candle_ChristmasDecor.jpg","11"
"091219","11:32:53","19","19","5.0.14.0","2","11","trial1","naming","0","0","0","0","apple","0","3139","1","White_Screen.jpg","7","177","Apple_RedAndGreen.jpg","7"
"091219","11:32:53","19","19","5.0.14.0","2","12","trial1","naming","0","0","0","0","bridge sign","0","5803","1","White_Screen.jpg","10","7","Sign_HumpBridgeAhead.jpg","10"
"091219","11:32:53","19","19","5.0.14.0","2","13","trial1","naming","0","0","0","0","coatrack","0","6629","1","White_Screen.jpg","10","36","KeyHook_Empty.jpg","10"
"091219","11:32:53","19","19","5.0.14.0","2","14","trial1","naming","0","0","0","0","plane","0","3672","1","White_Screen.jpg","10","161","Jet.jpg","10"
"091219","11:32:53","19","19","5.0.14.0","2","15","trial1","naming","0","0","0","0","bicycle","0","4867","1","White_Screen.jpg","9","91","Bicycle_Adult.jpg","9"
"091219","11:32:53","19","19","5.0.14.0","2","16","trial1","naming","0","0","0","0","metal detector","0","5216","1","White_Screen.jpg","9","16","ScannerShoplifting.jpg","9"
"091219","11:32:53","19","19","5.0.14.0","2","17","trial1","naming","0","0","0","0","plant","0","3920","1","White_Screen.jpg","10","3","HerbsInBag.jpg","10"
"091219","11:32:53","19","19","5.0.14.0","2","18","trial1","naming","0","0","0","0","gears","0","4130","1","White_Screen.jpg","9","172","Clock_Interior.jpg","9"
"091219","11:32:53","19","19","5.0.14.0","2","19","trial1","naming","0","0","0","0","ambulance","0","3410","1","White_Screen.jpg","10","65","Ambulance.jpg","10"
"091219","11:32:53","19","19","5.0.14.0","2","20","trial1","naming","0","0","0","0","beanie","0","4275","1","White_Screen.jpg","12","190","Hat_Tuque.jpg","12"
"091219","11:32:53","19","19","5.0.14.0","2","21","trial1","naming","0","0","0","0","wire spool","0","5515","1","White_Screen.jpg","12","100","Wire_Soldering.jpg","12"
"091219","11:32:53","19","19","5.0.14.0","2","22","trial1","naming","0","0","0","0","fork","0","2996","1","White_Screen.jpg","12","37","Fork_Regular.jpg","12"
"091219","11:32:53","19","19","5.0.14.0","2","23","trial1","naming","0","0","0","0","wet floor sign","0","7069","1","White_Screen.jpg","12","188","Sign_Caution.jpg","12"
"091219","11:32:53","19","19","5.0.14.0","2","24","trial1","naming","0","0","0","0","poker","0","7499","1","White_Screen.jpg","12","105","MemoPaperSpike.jpg","12"
"091219","11:32:53","19","19","5.0.14.0","2","25","trial1","naming","0","0","0","0","kangaroo","0","3482","1","White_Screen.jpg","12","44","Kangaroo.jpg","12"
"091219","11:32:53","19","19","5.0.14.0","2","26","trial1","naming","0","0","0","0","stacking toy","0","4068","1","White_Screen.jpg","10","77","Toy_StackingRing.jpg","10"
"091219","11:32:53","19","19","5.0.14.0","2","27","trial1","naming","0","0","0","0","tin","0","2264","1","White_Screen.jpg","13","64","Canister_Tea.jpg","13"
"091219","11:32:53","19","19","5.0.14.0","2","28","trial1","naming","0","0","0","0","flower","0","2825","1","White_Screen.jpg","13","144","Flower_Crane.jpg","13"
"091219","11:32:53","19","19","5.0.14.0","2","29","trial1","naming","0","0","0","0","sewer grate","0","5388","1","White_Screen.jpg","12","28","ManholeCover.jpg","12"
"091219","11:32:53","19","19","5.0.14.0","2","30","trial1","naming","0","0","0","0","head lamp","0","4482","1","White_Screen.jpg","10","90","FlashlightHeadBand.jpg","10"
"091219","11:32:53","19","19","5.0.14.0","2","31","trial1","naming","0","0","0","0","sledgehammer","0","4256","1","White_Screen.jpg","12","74","SledgeHammer.jpg","12"
"091219","11:32:53","19","19","5.0.14.0","2","32","trial1","naming","0","0","0","0","blocks","0","3423","1","White_Screen.jpg","12","145","Toy_BlocksPlastic Colourful.jpg","12"
"091219","11:32:53","19","19","5.0.14.0","2","33","trial1","naming","0","0","0","0","traffic sign","0","6777","1","White_Screen.jpg","12","45","sign_traffic.jpg","12"
"091219","11:32:53","19","19","5.0.14.0","2","34","trial1","naming","0","0","0","0","sleeping bag","0","3771","1","White_Screen.jpg","10","187","InflatableSleepingBag.jpg","10"
"091219","11:32:53","19","19","5.0.14.0","2","35","trial1","naming","0","0","0","0","bread","0","2383","1","White_Screen.jpg","11","138","Bread_Carrot.jpg","11"
"091219","11:32:53","19","19","5.0.14.0","2","36","trial1","naming","0","0","0","0","sieve","0","2541","1","White_Screen.jpg","11","116","Sieve_SideView.jpg","11"
"091219","11:32:53","19","19","5.0.14.0","2","37","trial1","naming","0","0","0","0","airplane","0","3556","1","White_Screen.jpg","9","133","Airplane_Commercial.jpg","9"
"091219","11:32:53","19","19","5.0.14.0","2","38","trial1","naming","0","0","0","0","cup","0","2841","1","White_Screen.jpg","12","34","Cup_Styrofoam.jpg","12"
"091219","11:32:53","19","19","5.0.14.0","2","39","trial1","naming","0","0","0","0","fruit","0","7635","1","White_Screen.jpg","12","42","Lychee.jpg","12"
"091219","11:32:53","19","19","5.0.14.0","2","40","trial1","naming","0","0","0","0","calipers","0","4739","1","White_Screen.jpg","12","55","Ruler_Digital.jpg","12"
"091219","11:32:53","19","19","5.0.14.0","2","41","trial1","naming","0","0","0","0","helmet","0","6733","1","White_Screen.jpg","13","125","Helmet_Football.jpg","13"
"091219","11:32:53","19","19","5.0.14.0","2","42","trial1","naming","0","0","0","0","butcher knife","0","3478","1","White_Screen.jpg","11","136","Cleaver_Meat.jpg","11"
"091219","11:32:53","19","19","5.0.14.0","2","43","trial1","naming","0","0","0","0","fire extinguisher","0","4514","1","White_Screen.jpg","12","166","FireExtinguisher.jpg","12"
"091219","11:32:53","19","19","5.0.14.0","2","44","trial1","naming","0","0","0","0","flask","0","2818","1","White_Screen.jpg","10","49","Flask_Metal.jpg","10"
"091219","11:32:53","19","19","5.0.14.0","2","45","trial1","naming","0","0","0","0","metal detector","0","4349","1","White_Screen.jpg","12","165","MetalDetector.jpg","12"
"091219","11:32:53","19","19","5.0.14.0","2","46","trial1","naming","0","0","0","0","lightbulb","0","8709","1","White_Screen.jpg","13","73","LightBulb_White.jpg","13"
"091219","11:32:53","19","19","5.0.14.0","2","47","trial1","naming","0","0","0","0","bolt and nut","0","6161","1","White_Screen.jpg","12","48","Bolt_WithNut.jpg","12"
"091219","11:32:53","19","19","5.0.14.0","2","48","trial1","naming","0","0","0","0","humidifier","0","4556","1","White_Screen.jpg","11","82","Humidifier.jpg","11"
"091219","11:32:53","19","19","5.0.14.0","2","49","trial1","naming","0","0","0","0","roman colisseum","0","6426","1","White_Screen.jpg","12","181","Colosseum.jpg","12"
"091219","11:32:53","19","19","5.0.14.0","2","50","trial1","naming","0","0","0","0","knife","0","4007","1","White_Screen.jpg","11","81","Knife_Kitchen.jpg","11"
"091219","11:32:53","19","19","5.0.14.0","2","52","trial1","naming","0","0","0","0","cooler","0","3331","1","White_Screen.jpg","22","9","Cooler.jpg","22"
"091219","11:32:53","19","19","5.0.14.0","2","53","trial1","naming","0","0","0","0","plunger","0","3972","1","White_Screen.jpg","11","194","Plunger.jpg","11"
"091219","11:32:53","19","19","5.0.14.0","2","54","trial1","naming","0","0","0","0","timer","0","2233","1","White_Screen.jpg","9","15","TimerKitchen.jpg","9"
"091219","11:32:53","19","19","5.0.14.0","2","55","trial1","naming","0","0","0","0","dolphin","0","3994","1","White_Screen.jpg","12","163","Dolphine.jpg","12"
"091219","11:32:53","19","19","5.0.14.0","2","56","trial1","naming","0","0","0","0","bongo","0","3640","1","White_Screen.jpg","11","94","Drum_Conga.jpg","11"
"091219","11:32:53","19","19","5.0.14.0","2","57","trial1","naming","0","0","0","0","spider","0","4164","1","White_Screen.jpg","12","106","Spider.jpg","12"
"091219","11:32:53","19","19","5.0.14.0","2","58","trial1","naming","0","0","0","0","camera","0","2392","1","White_Screen.jpg","11","114","Camera_Digital.jpg","11"
"091219","11:32:53","19","19","5.0.14.0","2","59","trial1","naming","0","0","0","0","mallet","0","3032","1","White_Screen.jpg","12","76","Mallet.jpg","12"
"091219","11:32:53","19","19","5.0.14.0","2","60","trial1","naming","0","0","0","0","propane heater","0","5692","1","White_Screen.jpg","12","56","Heater_Outdoor.jpg","12"
"091219","11:32:53","19","19","5.0.14.0","2","61","trial1","naming","0","0","0","0","speaker","0","2875","1","White_Screen.jpg","12","176","Speakers_Theatre.jpg","12"
"091219","11:32:53","19","19","5.0.14.0","2","62","trial1","naming","0","0","0","0","packing tape","0","5452","1","White_Screen.jpg","12","146","Tape_Scotch.jpg","12"
"091219","11:32:53","19","19","5.0.14.0","2","63","trial1","naming","0","0","0","0","water bottle","0","4119","1","White_Screen.jpg","10","30","Bottle_Plastic.jpg","10"
"091219","11:32:53","19","19","5.0.14.0","2","64","trial1","naming","0","0","0","0","car","0","2060","1","White_Screen.jpg","13","179","Car_Sedan.jpg","13"
"091219","11:32:53","19","19","5.0.14.0","2","65","trial1","naming","0","0","0","0","retainer","0","4392","1","White_Screen.jpg","9","171","TeethMould.jpg","9"
"091219","11:32:53","19","19","5.0.14.0","2","66","trial1","naming","0","0","0","0","scrub brush","0","3594","1","White_Screen.jpg","10","25","Brush_Shoe.jpg","10"
"091219","11:32:53","19","19","5.0.14.0","2","67","trial1","naming","0","0","0","0","bridge","0","2524","1","White_Screen.jpg","10","185","BridgeWooden.jpg","10"
"091219","11:32:53","19","19","5.0.14.0","2","68","trial1","naming","0","0","0","0","key hook","0","3720","1","White_Screen.jpg","10","153","KeyHook_Occupied.jpg","10"
"091219","11:32:53","19","19","5.0.14.0","2","69","trial1","naming","0","0","0","0","drum","0","6530","1","White_Screen.jpg","9","32","Mixer_Cement.jpg","9"
"091219","11:32:53","19","19","5.0.14.0","2","70","trial1","naming","0","0","0","0","manilla envelope","0","5022","1","White_Screen.jpg","10","151","Envelope_Manila.jpg","10"
"091219","11:32:53","19","19","5.0.14.0","2","71","trial1","naming","0","0","0","0","shrub","0","3746","1","White_Screen.jpg","11","137","Shrub_Cedar.jpg","11"
"091219","11:32:53","19","19","5.0.14.0","2","72","trial1","naming","0","0","0","0","pineapple","0","3722","1","White_Screen.jpg","11","84","Pineapple.jpg","11"
"091219","11:32:53","19","19","5.0.14.0","2","73","trial1","naming","0","0","0","0","double decker bus","0","5481","1","White_Screen.jpg","10","122","Bus_DoubleDecker.jpg","10"
"091219","11:32:53","19","19","5.0.14.0","2","74","trial1","naming","0","0","0","0","butter knife","0","3758","1","White_Screen.jpg","11","154","Knife_Butter.jpg","11"
"091219","11:32:53","19","19","5.0.14.0","2","75","trial1","naming","0","0","0","0","lemon","0","2746","1","White_Screen.jpg","12","191","Lemon.jpg","12"
"091219","11:32:53","19","19","5.0.14.0","2","76","trial1","naming","0","0","0","0","pirate flag","0","4566","1","White_Screen.jpg","13","52","PirateFlag.jpg","13"
"091219","11:32:53","19","19","5.0.14.0","2","77","trial1","naming","0","0","0","0","fossil","0","3305","1","White_Screen.jpg","11","2","Fossil.jpg","11"
"091219","11:32:53","19","19","5.0.14.0","2","78","trial1","naming","0","0","0","0","gps","0","2819","1","White_Screen.jpg","9","23","GPS.jpg","9"
"091219","11:32:53","19","19","5.0.14.0","2","79","trial1","naming","0","0","0","0","net","0","2654","1","White_Screen.jpg","13","43","NetButterfly.jpg","13"
"091219","11:32:53","19","19","5.0.14.0","2","80","trial1","naming","0","0","0","0","electrical box","0","6356","1","White_Screen.jpg","10","19","ElectricSwitchboard.jpg","10"
"091219","11:32:53","19","19","5.0.14.0","2","81","trial1","naming","0","0","0","0","bed","0","2288","1","White_Screen.jpg","13","157","Bed_ChildBirch.jpg","13"
"091219","11:32:53","19","19","5.0.14.0","2","82","trial1","naming","0","0","0","0","water fountain","0","4017","1","White_Screen.jpg","10","127","WaterFountain.jpg","10"
"091219","11:32:53","19","19","5.0.14.0","2","83","trial1","naming","0","0","0","0","truck","0","2948","1","White_Screen.jpg","13","17","PickupTruck.jpg","13"
"091219","11:32:53","19","19","5.0.14.0","2","84","trial1","naming","0","0","0","0","carrots","0","3919","1","White_Screen.jpg","10","95","Carrot.jpg","10"
"091219","11:32:53","19","19","5.0.14.0","2","85","trial1","naming","0","0","0","0","falcon","0","6715","1","White_Screen.jpg","14","72","Bird_Falcon.jpg","14"
"091219","11:32:53","19","19","5.0.14.0","2","86","trial1","naming","0","0","0","0","speaker","0","5120","1","White_Screen.jpg","9","92","Hockey_Puck.jpg","9"
"091219","11:32:53","19","19","5.0.14.0","2","87","trial1","naming","0","0","0","0","bread","0","2323","1","White_Screen.jpg","9","156","Bread_Roll.jpg","9"
"091219","11:32:53","19","19","5.0.14.0","2","88","trial1","naming","0","0","0","0","syrup cad","0","10000","1","White_Screen.jpg","9","189","Pot_TurkishCoffee.jpg","9"
"091219","11:32:53","19","19","5.0.14.0","2","89","trial1","naming","0","0","0","0","turn table","0","4895","1","White_Screen.jpg","10","93","DJMixer.jpg","10"
"091219","11:32:53","19","19","5.0.14.0","2","90","trial1","naming","0","0","0","0","pot","0","2716","1","White_Screen.jpg","10","140","Pot_BlackOld.jpg","10"
"091219","11:32:53","19","19","5.0.14.0","2","91","trial1","naming","0","0","0","0","glass and pitcher","0","4904","1","White_Screen.jpg","10","192","MilkPitcher.jpg","10"
"091219","11:32:53","19","19","5.0.14.0","2","92","trial1","naming","0","0","0","0","jar","0","2302","1","White_Screen.jpg","9","61","TomatoSauce.jpg","9"
"091219","11:32:53","19","19","5.0.14.0","2","93","trial1","naming","0","0","0","0","periodic table","0","9624","1","White_Screen.jpg","10","178","PeriodicTable.jpg","10"
"091219","11:32:53","19","19","5.0.14.0","2","94","trial1","naming","0","0","0","0","dreidel","0","3396","1","White_Screen.jpg","9","8","Dreidel.jpg","9"
"091219","11:32:53","19","19","5.0.14.0","2","95","trial1","naming","0","0","0","0","dodo bird","0","5053","1","White_Screen.jpg","9","113","Puffin.jpg","9"
"091219","11:32:53","19","19","5.0.14.0","2","96","trial1","naming","0","0","0","0","control panel","0","4479","1","White_Screen.jpg","10","62","ControlPanel.jpg","10"
"091219","11:32:53","19","19","5.0.14.0","2","97","trial1","naming","0","0","0","0","rocking horse","0","5724","1","White_Screen.jpg","10","53","Toy_RockingHorseBlack.jpg","10"
"091219","11:32:53","19","19","5.0.14.0","2","98","trial1","naming","0","0","0","0","jar","0","6379","1","White_Screen.jpg","11","110","Jar_Strawberry.jpg","11"
"091219","11:32:53","19","19","5.0.14.0","2","99","trial1","naming","0","0","0","0","romaine lettuce","0","4050","1","White_Screen.jpg","14","102","Lettuce_Romaine.jpg","14"
"091219","11:32:53","19","19","5.0.14.0","2","100","trial1","naming","0","0","0","0","snow boots","0","3447","1","White_Screen.jpg","11","143","Shoes_Snowboarding.jpg","11"
"091219","11:32:53","19","19","5.0.14.0","2","101","trial1","naming","0","0","0","0","comb","0","3034","1","White_Screen.jpg","10","98","Comb_1.jpg","10"
"091219","11:32:53","19","19","5.0.14.0","2","103","trial1","naming","0","0","0","0","bandage tape","0","6127","1","White_Screen.jpg","8","183","Tape_Clear.jpg","8"
"091219","11:32:53","19","19","5.0.14.0","2","104","trial1","naming","0","0","0","0","eiffel tower","0","3801","1","White_Screen.jpg","10","120","TowerEiffel.jpg","10"
"091219","11:32:53","19","19","5.0.14.0","2","105","trial1","naming","0","0","0","0","drill","0","2881","1","White_Screen.jpg","9","200","Toy_Drill.jpg","9"
"091219","11:32:53","19","19","5.0.14.0","2","106","trial1","naming","0","0","0","0","shape sorting lid","0","5385","1","White_Screen.jpg","9","47","Toy_Shapesorter.jpg","9"
"091219","11:32:53","19","19","5.0.14.0","2","107","trial1","naming","0","0","0","0","fan blades","0","2948","1","White_Screen.jpg","10","128","Fan_Blades.jpg","10"
"091219","11:32:53","19","19","5.0.14.0","2","108","trial1","naming","0","0","0","0","pants","0","3034","1","White_Screen.jpg","11","80","Pants.jpg","11"
"091219","11:32:53","19","19","5.0.14.0","2","109","trial1","naming","0","0","0","0","stool","0","2506","1","White_Screen.jpg","9","60","Stool_Foot.jpg","9"
"091219","11:32:53","19","19","5.0.14.0","2","110","trial1","naming","0","0","0","0","rug","0","2834","1","White_Screen.jpg","10","22","Mat_Door.jpg","10"
"091219","11:32:53","19","19","5.0.14.0","2","111","trial1","naming","0","0","0","0","blower","0","3891","1","White_Screen.jpg","10","12","LeafBlower.jpg","10"
"091219","11:32:53","19","19","5.0.14.0","2","112","trial1","naming","0","0","0","0","socks","0","2702","1","White_Screen.jpg","10","162","Socks_Winter.jpg","10"
"091219","11:32:53","19","19","5.0.14.0","2","113","trial1","naming","0","0","0","0","cereal","0","4279","1","White_Screen.jpg","10","139","Bowl_Cereal.jpg","10"
"091219","11:32:53","19","19","5.0.14.0","2","114","trial1","naming","0","0","0","0","crystal","0","6136","1","White_Screen.jpg","9","6","Rock_Agate.jpg","9"
"091219","11:32:53","19","19","5.0.14.0","2","115","trial1","naming","0","0","0","0","thanksgiving","0","7888","1","White_Screen.jpg","9","88","Chicken_Dinner.jpg","9"
"091219","11:32:53","19","19","5.0.14.0","2","116","trial1","naming","0","0","0","0","headphones","0","4141","1","White_Screen.jpg","18","150","Headphones.jpg","18"
"091219","11:32:53","19","19","5.0.14.0","2","117","trial1","naming","0","0","0","0","light","0","2997","1","White_Screen.jpg","10","117","Light_PostIsolated.jpg","10"
"091219","11:32:53","19","19","5.0.14.0","2","118","trial1","naming","0","0","0","0","container","0","3045","1","White_Screen.jpg","10","54","Container_RedPlastic.jpg","10"
"091219","11:32:53","19","19","5.0.14.0","2","119","trial1","naming","0","0","0","0","thermos","0","2861","1","White_Screen.jpg","11","115","Thermos_Decorated.jpg","11"
"091219","11:32:53","19","19","5.0.14.0","2","120","trial1","naming","0","0","0","0","boombox","0","3239","1","White_Screen.jpg","10","158","Boombox.jpg","10"
"091219","11:32:53","19","19","5.0.14.0","2","121","trial1","naming","0","0","0","0","gloves","0","2611","1","White_Screen.jpg","10","63","Gloves_Winter.jpg","10"
"091219","11:32:53","19","19","5.0.14.0","2","122","trial1","naming","0","0","0","0","kite","0","2366","1","White_Screen.jpg","10","66","Kite_Rainbow.jpg","10"
"091219","11:32:53","19","19","5.0.14.0","2","123","trial1","naming","0","0","0","0","cassette recorder","0","7468","1","White_Screen.jpg","10","152","Cassette_Audio.jpg","10"
"091219","11:32:53","19","19","5.0.14.0","2","124","trial1","naming","0","0","0","0","goose","0","4182","1","White_Screen.jpg","10","10","Bird_CanadianGoose.jpg","10"
"091219","11:32:53","19","19","5.0.14.0","2","125","trial1","naming","0","0","0","0","gift","0","4185","1","White_Screen.jpg","11","79","Box_GiftTopView.jpg","11"
"091219","11:32:53","19","19","5.0.14.0","2","126","trial1","naming","0","0","0","0","boots","0","2973","1","White_Screen.jpg","10","195","Boots_KneeHigh.jpg","10"
"091219","11:32:53","19","19","5.0.14.0","2","127","trial1","naming","0","0","0","0","hand","0","2290","1","White_Screen.jpg","9","50","Hand.jpg","9"
"091219","11:32:53","19","19","5.0.14.0","2","128","trial1","naming","0","0","0","0","vent","0","3735","1","White_Screen.jpg","10","103","AirVent.jpg","10"
"091219","11:32:53","19","19","5.0.14.0","2","129","trial1","naming","0","0","0","0","massager","0","3588","1","White_Screen.jpg","11","51","MassageRoller.jpg","11"
"091219","11:32:53","19","19","5.0.14.0","2","130","trial1","naming","0","0","0","0","compact","0","2674","1","White_Screen.jpg","10","174","Compact_Powder.jpg","10"
"091219","11:32:53","19","19","5.0.14.0","2","131","trial1","naming","0","0","0","0","ruler","0","2435","1","White_Screen.jpg","10","126","Ruler_Wooden.jpg","10"
"091219","11:32:53","19","19","5.0.14.0","2","132","trial1","naming","0","0","0","0","matches","0","2637","1","White_Screen.jpg","10","86","MatchBook.jpg","10"
"091219","11:32:53","19","19","5.0.14.0","2","133","trial1","naming","0","0","0","0","harmonica","0","2975","1","White_Screen.jpg","10","46","Harmonica.jpg","10"
"091219","11:32:53","19","19","5.0.14.0","2","134","trial1","naming","0","0","0","0","clock","0","3272","1","White_Screen.jpg","9","130","Clock_Wall.jpg","9"
"091219","11:32:53","19","19","5.0.14.0","2","135","trial1","naming","0","0","0","0","squash","0","3124","1","White_Screen.jpg","10","71","Squash_Pumpkin.jpg","10"
"091219","11:32:53","19","19","5.0.14.0","2","136","trial1","naming","0","0","0","0","airplane","0","4684","1","White_Screen.jpg","10","182","Airplane_Fighter.jpg","10"
"091219","11:32:53","19","19","5.0.14.0","2","137","trial1","naming","0","0","0","0","bust","0","2407","1","White_Screen.jpg","9","78","Statue_Head.jpg","9"
"091219","11:32:53","19","19","5.0.14.0","2","138","trial1","naming","0","0","0","0","masquerade mask","0","4585","1","White_Screen.jpg","10","173","Mask_Masquerade.jpg","10"
"091219","11:32:53","19","19","5.0.14.0","2","139","trial1","naming","0","0","0","0","helicopter","0","4163","1","White_Screen.jpg","10","109","Toy_Helicopter.jpg","10"
"091219","11:32:53","19","19","5.0.14.0","2","140","trial1","naming","0","0","0","0","massage roller","0","4855","1","White_Screen.jpg","10","119","Cabasa.jpg","10"
"091219","11:32:53","19","19","5.0.14.0","2","141","trial1","naming","0","0","0","0","hula hoop","0","3763","1","White_Screen.jpg","9","85","Hulahoop.jpg","9"
"091219","11:32:53","19","19","5.0.14.0","2","142","trial1","naming","0","0","0","0","bread basket","0","3945","1","White_Screen.jpg","10","39","Basket_Bread.jpg","10"
"091219","11:32:53","19","19","5.0.14.0","2","143","trial1","naming","0","0","0","0","race track","0","3239","1","White_Screen.jpg","13","129","Toy_RaceTrack.jpg","13"
"091219","11:32:53","19","19","5.0.14.0","2","144","trial1","naming","0","0","0","0","juice box","0","3577","1","White_Screen.jpg","15","186","JuiceBox.jpg","15"
"091219","11:32:53","19","19","5.0.14.0","2","145","trial1","naming","0","0","0","0","camera","0","2614","1","White_Screen.jpg","11","123","Camera_Antique.jpg","11"
"091219","11:32:53","19","19","5.0.14.0","2","146","trial1","naming","0","0","0","0","tables","0","2994","1","White_Screen.jpg","10","20","Altar.jpg","10"
"091219","11:32:53","19","19","5.0.14.0","2","147","trial1","naming","0","0","0","0","pumpkin","0","3931","1","White_Screen.jpg","11","167","Pumpkin.jpg","11"
"091219","11:32:53","19","19","5.0.14.0","2","148","trial1","naming","0","0","0","0","licorice","0","3345","1","White_Screen.jpg","10","18","Licorice.jpg","10"
"091219","11:32:53","19","19","5.0.14.0","2","149","trial1","naming","0","0","0","0","octopus","0","3607","1","White_Screen.jpg","10","97","Toy_Octopus.jpg","10"
"091219","11:32:53","19","19","5.0.14.0","2","150","trial1","naming","0","0","0","0","lawn mower","0","3384","1","White_Screen.jpg","12","41","LawnMower.jpg","12"
"091219","11:32:53","19","19","5.0.14.0","2","151","trial1","naming","0","0","0","0","baby doll","0","3397","1","White_Screen.jpg","9","132","Toy_Babydoll.jpg","9"
"091219","11:32:53","19","19","5.0.14.0","2","152","trial1","naming","0","0","0","0","sound board","0","4537","1","White_Screen.jpg","10","4","SoundMixer_White.jpg","10"
"091219","11:32:53","19","19","5.0.14.0","2","154","trial1","naming","0","0","0","0","mandolin","0","4437","1","White_Screen.jpg","8","83","Balalaika.jpg","8"
"091219","11:32:53","19","19","5.0.14.0","2","155","trial1","naming","0","0","0","0","bowl","0","3305","1","White_Screen.jpg","13","67","Bowl_Glass.jpg","13"
"091219","11:32:53","19","19","5.0.14.0","2","156","trial1","naming","0","0","0","0","canteen","0","2817","1","White_Screen.jpg","14","112","Lunchbox.jpg","14"
"091219","11:32:53","19","19","5.0.14.0","2","157","trial1","naming","0","0","0","0","tape","0","4359","1","White_Screen.jpg","10","135","Tape_Washi.jpg","10"
"091219","11:32:53","19","19","5.0.14.0","2","158","trial1","naming","0","0","0","0","scooter","0","3197","1","White_Screen.jpg","12","169","Scooter.jpg","12"
"091219","11:32:53","19","19","5.0.14.0","2","159","trial1","naming","0","0","0","0","chocolates","0","4242","1","White_Screen.jpg","12","58","Box_Chocolate.jpg","12"
"091219","11:32:53","19","19","5.0.14.0","2","160","trial1","naming","0","0","0","0","nail","0","3241","1","White_Screen.jpg","9","75","Nail.jpg","9"
"091219","11:32:53","19","19","5.0.14.0","2","161","trial1","naming","0","0","0","0","box","0","3633","1","White_Screen.jpg","12","14","Case_WoodenOrnate.jpg","12"
"091219","11:32:53","19","19","5.0.14.0","2","162","trial1","naming","0","0","0","0","fortune cookie","0","3264","1","White_Screen.jpg","14","107","FortuneCookie.jpg","14"
"091219","11:32:53","19","19","5.0.14.0","2","163","trial1","naming","0","0","0","0","blocks","0","2448","1","White_Screen.jpg","10","35","Toy_BlocksLetter.jpg","10"
"091219","11:32:53","19","19","5.0.14.0","2","164","trial1","naming","0","0","0","0","sink","0","2365","1","White_Screen.jpg","12","141","Sink_Kitchen.jpg","12"
"091219","11:32:53","19","19","5.0.14.0","2","165","trial1","naming","0","0","0","0","zucchini","0","3471","1","White_Screen.jpg","10","164","Zucchini.jpg","10"
"091219","11:32:53","19","19","5.0.14.0","2","166","trial1","naming","0","0","0","0","chicken","0","3248","1","White_Screen.jpg","10","99","Chicken_Raw.jpg","10"
"091219","11:32:53","19","19","5.0.14.0","2","167","trial1","naming","0","0","0","0","key ring","0","3198","1","White_Screen.jpg","11","193","Keychain_Metal.jpg","11"
"091219","11:32:53","19","19","5.0.14.0","2","168","trial1","naming","0","0","0","0","viking mask","0","3410","1","White_Screen.jpg","10","57","Mask_Viking.jpg","10"
"091219","11:32:53","19","19","5.0.14.0","2","169","trial1","naming","0","0","0","0","cantaloupe","0","4153","1","White_Screen.jpg","9","142","Cantaloupe.jpg","9"
"091219","11:32:53","19","19","5.0.14.0","2","170","trial1","naming","0","0","0","0","screwdriver","0","3146","1","White_Screen.jpg","10","196","ScrewDriver.jpg","10"
"091219","11:32:53","19","19","5.0.14.0","2","171","trial1","naming","0","0","0","0","hat","0","1968","1","White_Screen.jpg","11","87","Hat_Cowboy.jpg","11"
"091219","11:32:53","19","19","5.0.14.0","2","172","trial1","naming","0","0","0","0","dartboard","0","2954","1","White_Screen.jpg","10","118","DartBoard.jpg","10"
"091219","11:32:53","19","19","5.0.14.0","2","173","trial1","naming","0","0","0","0","chair","0","2234","1","White_Screen.jpg","11","111","Chair_PlasticGreen.jpg","11"
"091219","11:32:53","19","19","5.0.14.0","2","174","trial1","naming","0","0","0","0","carabiner","0","4453","1","White_Screen.jpg","10","68","Carbiner_Ascender.jpg","10"
"091219","11:32:53","19","19","5.0.14.0","2","175","trial1","naming","0","0","0","0","slinky","0","3188","1","White_Screen.jpg","11","96","Toy_Slinky.jpg","11"
"091219","11:32:53","19","19","5.0.14.0","2","176","trial1","naming","0","0","0","0","statue","0","3118","1","White_Screen.jpg","10","121","SculptureMetalFish.jpg","10"
"091219","11:32:53","19","19","5.0.14.0","2","177","trial1","naming","0","0","0","0","beer","0","2839","1","White_Screen.jpg","11","184","Glass_Beer.jpg","11"
"091219","11:32:53","19","19","5.0.14.0","2","178","trial1","naming","0","0","0","0","griddle","0","2737","1","White_Screen.jpg","11","21","Grill_Electric.jpg","11"
"091219","11:32:53","19","19","5.0.14.0","2","179","trial1","naming","0","0","0","0","motor","0","3119","1","White_Screen.jpg","9","168","JumpingJack.jpg","9"
"091219","11:32:53","19","19","5.0.14.0","2","180","trial1","naming","0","0","0","0","donald duck","0","3292","1","White_Screen.jpg","11","134","DonaldDuck_Toy.jpg","11"
"091219","11:32:53","19","19","5.0.14.0","2","181","trial1","naming","0","0","0","0","headband","0","2760","1","White_Screen.jpg","14","24","HairBand.jpg","14"
"091219","11:32:53","19","19","5.0.14.0","2","182","trial1","naming","0","0","0","0","doll","0","2538","1","White_Screen.jpg","12","40","Toy_DollHomeMade.jpg","12"
"091219","11:32:53","19","19","5.0.14.0","2","183","trial1","naming","0","0","0","0","wheelbarrow","0","2906","1","White_Screen.jpg","9","148","Wheelbarrow_Green.jpg","9"
"091219","11:32:53","19","19","5.0.14.0","2","184","trial1","naming","0","0","0","0","dish drainer","0","4041","1","White_Screen.jpg","10","5","DryRack_Dishes.jpg","10"
"091219","11:32:53","19","19","5.0.14.0","2","185","trial1","naming","0","0","0","0","oyster","0","3037","1","White_Screen.jpg","10","108","Oyster.jpg","10"
"091219","11:32:53","19","19","5.0.14.0","2","186","trial1","naming","0","0","0","0","shark","0","2379","1","White_Screen.jpg","10","160","Toy_Shark.jpg","10"
"091219","11:32:53","19","19","5.0.14.0","2","187","trial1","naming","0","0","0","0","hard hat","0","2664","1","White_Screen.jpg","11","59","Hat_Hard.jpg","11"
"091219","11:32:53","19","19","5.0.14.0","2","188","trial1","naming","0","0","0","0","bomb","0","3292","1","White_Screen.jpg","9","1","Bomb.jpg","9"
"091219","11:32:53","19","19","5.0.14.0","2","189","trial1","naming","0","0","0","0","tool set","0","4553","1","White_Screen.jpg","10","131","Toolbox_BlackOpen.jpg","10"
"091219","11:32:53","19","19","5.0.14.0","2","190","trial1","naming","0","0","0","0","stand","0","3731","1","White_Screen.jpg","10","101","PedestalGreek.jpg","10"
"091219","11:32:53","19","19","5.0.14.0","2","191","trial1","naming","0","0","0","0","guitar case","0","4042","1","White_Screen.jpg","11","175","Guitarcase.jpg","11"
"091219","11:32:53","19","19","5.0.14.0","2","192","trial1","naming","0","0","0","0","fish","0","2464","1","White_Screen.jpg","11","170","Brooch_Fish.jpg","11"
"091219","11:32:53","19","19","5.0.14.0","2","193","trial1","naming","0","0","0","0","travel mug","0","3665","1","White_Screen.jpg","9","33","Mug_Travel.jpg","9"
"091219","11:32:53","19","19","5.0.14.0","2","194","trial1","naming","0","0","0","0","noose","0","2430","1","White_Screen.jpg","11","180","Noose.jpg","11"
"091219","11:32:53","19","19","5.0.14.0","2","195","trial1","naming","0","0","0","0","conference table","0","3978","1","White_Screen.jpg","10","27","Table_Conference.jpg","10"
"091219","11:32:53","19","19","5.0.14.0","2","196","trial1","naming","0","0","0","0","recorder","0","2618","1","White_Screen.jpg","9","149","RecorderInstrument.jpg","9"
"091219","11:32:53","19","19","5.0.14.0","2","197","trial1","naming","0","0","0","0","ladle","0","2428","1","White_Screen.jpg","10","159","Ladle.jpg","10"
"091219","11:32:53","19","19","5.0.14.0","2","198","trial1","naming","0","0","0","0","sneaker","0","3674","1","White_Screen.jpg","10","197","Shoe_Sneaker.jpg","10"
"091219","11:32:53","19","19","5.0.14.0","2","199","trial1","naming","0","0","0","0","cologne","0","5554","1","White_Screen.jpg","9","155","Cologne.jpg","9"
"091219","11:32:53","19","19","5.0.14.0","2","200","trial1","naming","0","0","0","0","cannon","0","2789","1","White_Screen.jpg","9","199","Cannon.jpg","9"
"091219","11:32:53","19","19","5.0.14.0","2","201","trial1","naming","0","0","0","0","goat","0","3805","1","White_Screen.jpg","9","26","RamAnimal.jpg","9"
"091219","11:32:53","19","19","5.0.14.0","2","202","trial1","naming","0","0","0","0","seashell","0","3065","1","White_Screen.jpg","10","31","Seashell_RoseMurex.jpg","10"
"091219","11:32:53","19","19","5.0.14.0","2","203","trial1","naming","0","0","0","0","column","0","4547","1","White_Screen.jpg","11","198","ColumnMarble.jpg","11"
"091219","11:32:53","19","19","5.0.14.0","3","1","demographics_block","gender","0","0","0","0","female","1","12009","0","0","0","0","0","0"
"091219","11:32:53","19","19","5.0.14.0","3","1","demographics_block","age","0","0","0","0","38","1","12009","0","0","0","0","0","0"
"091219","11:32:53","19","19","5.0.14.0","3","1","demographics_block","education","0","0","0","0","15","1","12009","0","0","0","0","0","0"
"091219","11:32:53","19","19","5.0.14.0","3","2","demographics_block","left_right_handed","0","0","0","0","Right","1","8304","0","0","0","0","0","0"
"091219","11:32:53","19","19","5.0.14.0","3","2","demographics_block","raceoption1","0","0","0","0","0","1","8304","0","0","0","0","0","0"
"091219","11:32:53","19","19","5.0.14.0","3","2","demographics_block","raceoption2","0","0","0","0","","1","8304","0","0","0","0","0","0"
"091219","11:32:53","19","19","5.0.14.0","3","2","demographics_block","raceoption3","0","0","0","0","","1","8304","0","0","0","0","0","0"
"091219","11:32:53","19","19","5.0.14.0","3","2","demographics_block","raceoption4","0","0","0","0","","1","8304","0","0","0","0","0","0"
"091219","11:32:53","19","19","5.0.14.0","3","2","demographics_block","raceoption5","0","0","0","0","","1","8304","0","0","0","0","0","0"
"091219","11:32:53","19","19","5.0.14.0","3","2","demographics_block","raceoption6","0","0","0","0","","1","8304","0","0","0","0","0","0"
"091219","11:32:53","19","19","5.0.14.0","3","2","demographics_block","raceoption7","0","0","0","0","","1","8304","0","0","0","0","0","0"
"091219","11:32:53","19","19","5.0.14.0","3","2","demographics_block","raceoption8","0","0","0","0","","1","8304","0","0","0","0","0","0"
"091219","11:32:53","19","19","5.0.14.0","3","2","demographics_block","raceoption9","0","0","0","0","","1","8304","0","0","0","0","0","0"
"091219","11:32:53","19","19","5.0.14.0","3","2","demographics_block","raceother","0","0","0","0","","1","8304","0","0","0","0","0","0"
"091219","11:32:53","19","19","5.0.14.0","3","2","demographics_block","raceother","0","0","0","0","","1","8304","0","0","0","0","0","0"
"091219","11:32:53","19","19","5.0.14.0","3","2","demographics_block","english_language","0","0","0","0","Yes","1","8304","0","0","0","0","0","0"
"091219","11:32:53","19","19","5.0.14.0","3","2","demographics_block","english_languageother","0","0","0","0","","1","8304","0","0","0","0","0","0"
"091219","11:32:53","19","19","5.0.14.0","3","3","demographics_block","eyesight","0","0","0","0","Yes","1","5137","0","0","0","0","0","0"
"091219","11:32:53","19","19","5.0.14.0","3","3","demographics_block","colorblind","0","0","0","0","No","1","5137","0","0","0","0","0","0"
"091219","11:32:53","19","19","5.0.14.0","4","1","worker_id_block","worker_id_textbox","0","0","0","0","A1OWHPMKE7YAGL","1","5889","0","0","0","0","0","0"
"date","time","group","subject","build","blocknum","trialnum","blockcode","trialcode","pretrialpause","posttrialpause","trialduration","trialtimeout","response","correct","latency","stimulusnumber1","stimulusitem1","stimulusonset1","stimulusnumber2","stimulusitem2","stimulusonset2"
"091219","11:33:01","20","20","5.0.14.0","2","1","trial1","naming","0","0","0","0","canon","0","10000","1","White_Screen.jpg","75","199","Cannon.jpg","75"
"091219","11:33:01","20","20","5.0.14.0","2","2","trial1","naming","0","0","0","0","lawnmower","0","6794","1","White_Screen.jpg","10","41","LawnMower.jpg","10"
"091219","11:33:01","20","20","5.0.14.0","2","3","trial1","naming","0","0","0","0","drill","0","5565","1","White_Screen.jpg","11","200","Toy_Drill.jpg","11"
"091219","11:33:01","20","20","5.0.14.0","2","4","trial1","naming","0","0","0","0","racetrack","0","5647","1","White_Screen.jpg","10","129","Toy_RaceTrack.jpg","10"
"091219","11:33:01","20","20","5.0.14.0","2","5","trial1","naming","0","0","0","0","cup and pitcher","0","7745","1","White_Screen.jpg","10","192","MilkPitcher.jpg","10"
"091219","11:33:01","20","20","5.0.14.0","2","6","trial1","naming","0","0","0","0","hat","0","2660","1","White_Screen.jpg","11","59","Hat_Hard.jpg","11"
"091219","11:33:01","20","20","5.0.14.0","2","7","trial1","naming","0","0","0","0","hula hoop","0","7576","1","White_Screen.jpg","13","85","Hulahoop.jpg","13"
"091219","11:33:01","20","20","5.0.14.0","2","8","trial1","naming","0","0","0","0","sculpture","0","6529","1","White_Screen.jpg","8","121","SculptureMetalFish.jpg","8"
"091219","11:33:01","20","20","5.0.14.0","2","9","trial1","naming","0","0","0","0","sign","0","4696","1","White_Screen.jpg","10","45","sign_traffic.jpg","10"
"091219","11:33:01","20","20","5.0.14.0","2","10","trial1","naming","0","0","0","0","drum","0","3947","1","White_Screen.jpg","10","94","Drum_Conga.jpg","10"
"091219","11:33:01","20","20","5.0.14.0","2","11","trial1","naming","0","0","0","0","pumpkin","0","5434","1","White_Screen.jpg","10","167","Pumpkin.jpg","10"
"091219","11:33:01","20","20","5.0.14.0","2","12","trial1","naming","0","0","0","0","clip","0","4648","1","White_Screen.jpg","12","68","Carbiner_Ascender.jpg","12"
"091219","11:33:01","20","20","5.0.14.0","2","13","trial1","naming","0","0","0","0","grate","0","7688","1","White_Screen.jpg","9","28","ManholeCover.jpg","9"
"091219","11:33:01","20","20","5.0.14.0","2","14","trial1","naming","0","0","0","0","gift","0","4484","1","White_Screen.jpg","16","79","Box_GiftTopView.jpg","16"
"091219","11:33:01","20","20","5.0.14.0","2","15","trial1","naming","0","0","0","0","eiffel tower","0","7520","1","White_Screen.jpg","10","120","TowerEiffel.jpg","10"
"091219","11:33:01","20","20","5.0.14.0","2","16","trial1","naming","0","0","0","0","plunger","0","4009","1","White_Screen.jpg","16","194","Plunger.jpg","16"
"091219","11:33:01","20","20","5.0.14.0","2","17","trial1","naming","0","0","0","0","nut and bolt","0","7505","1","White_Screen.jpg","9","48","Bolt_WithNut.jpg","9"
"091219","11:33:01","20","20","5.0.14.0","2","18","trial1","naming","0","0","0","0","flask\","0","4627","1","White_Screen.jpg","14","49","Flask_Metal.jpg","14"
"091219","11:33:01","20","20","5.0.14.0","2","19","trial1","naming","0","0","0","0","hawk","0","3156","1","White_Screen.jpg","9","72","Bird_Falcon.jpg","9"
"091219","11:33:01","20","20","5.0.14.0","2","20","trial1","naming","0","0","0","0","carrots","0","2668","1","White_Screen.jpg","13","95","Carrot.jpg","13"
"091219","11:33:01","20","20","5.0.14.0","2","21","trial1","naming","0","0","0","0","helicopter","0","5720","1","White_Screen.jpg","12","109","Toy_Helicopter.jpg","12"
"091219","11:33:01","20","20","5.0.14.0","2","22","trial1","naming","0","0","0","0","jet","0","3046","1","White_Screen.jpg","12","161","Jet.jpg","12"
"091219","11:33:01","20","20","5.0.14.0","2","23","trial1","naming","0","0","0","0","locker","0","3420","1","White_Screen.jpg","10","19","ElectricSwitchboard.jpg","10"
"091219","11:33:01","20","20","5.0.14.0","2","24","trial1","naming","0","0","0","0","fortune cookie","0","5456","1","White_Screen.jpg","11","107","FortuneCookie.jpg","11"
"091219","11:33:01","20","20","5.0.14.0","2","25","trial1","naming","0","0","0","0","lantern","0","3444","1","White_Screen.jpg","12","117","Light_PostIsolated.jpg","12"
"091219","11:33:01","20","20","5.0.14.0","2","26","trial1","naming","0","0","0","0","leaf blower","0","4278","1","White_Screen.jpg","9","12","LeafBlower.jpg","9"
"091219","11:33:01","20","20","5.0.14.0","2","27","trial1","naming","0","0","0","0","bed","0","4352","1","White_Screen.jpg","9","157","Bed_ChildBirch.jpg","9"
"091219","11:33:01","20","20","5.0.14.0","2","28","trial1","naming","0","0","0","0","hat","0","2603","1","White_Screen.jpg","11","190","Hat_Tuque.jpg","11"
"091219","11:33:01","20","20","5.0.14.0","2","29","trial1","naming","0","0","0","0","metal detector","0","5603","1","White_Screen.jpg","10","165","MetalDetector.jpg","10"
"091219","11:33:01","20","20","5.0.14.0","2","30","trial1","naming","0","0","0","0","speaker","0","3207","1","White_Screen.jpg","12","176","Speakers_Theatre.jpg","12"
"091219","11:33:01","20","20","5.0.14.0","2","31","trial1","naming","0","0","0","0","fork","0","4180","1","White_Screen.jpg","13","37","Fork_Regular.jpg","13"
"091219","11:33:01","20","20","5.0.14.0","2","32","trial1","naming","0","0","0","0","camera","0","4424","1","White_Screen.jpg","16","123","Camera_Antique.jpg","16"
"091219","11:33:01","20","20","5.0.14.0","2","33","trial1","naming","0","0","0","0","sneaker","0","4796","1","White_Screen.jpg","10","197","Shoe_Sneaker.jpg","10"
"091219","11:33:01","20","20","5.0.14.0","2","34","trial1","naming","0","0","0","0","boots","0","2824","1","White_Screen.jpg","10","29","Shoes_WomenBoots.jpg","10"
"091219","11:33:01","20","20","5.0.14.0","2","35","trial1","naming","0","0","0","0","matches","0","3434","1","White_Screen.jpg","13","86","MatchBook.jpg","13"
"091219","11:33:01","20","20","5.0.14.0","2","36","trial1","naming","0","0","0","0","brush","0","2792","1","White_Screen.jpg","10","25","Brush_Shoe.jpg","10"
"091219","11:33:01","20","20","5.0.14.0","2","37","trial1","naming","0","0","0","0","envelope","0","6694","1","White_Screen.jpg","13","151","Envelope_Manila.jpg","13"
"091219","11:33:01","20","20","5.0.14.0","2","38","trial1","naming","0","0","0","0","lightbulb","0","7086","1","White_Screen.jpg","9","73","LightBulb_White.jpg","9"
"091219","11:33:01","20","20","5.0.14.0","2","39","trial1","naming","0","0","0","0","zucchini","0","5825","1","White_Screen.jpg","12","164","Zucchini.jpg","12"
"091219","11:33:01","20","20","5.0.14.0","2","40","trial1","naming","0","0","0","0","rock","0","4282","1","White_Screen.jpg","11","6","Rock_Agate.jpg","11"
"091219","11:33:01","20","20","5.0.14.0","2","41","trial1","naming","0","0","0","0","water bottle","0","4544","1","White_Screen.jpg","10","30","Bottle_Plastic.jpg","10"
"091219","11:33:01","20","20","5.0.14.0","2","42","trial1","naming","0","0","0","0","nail","0","2433","1","White_Screen.jpg","12","75","Nail.jpg","12"
"091219","11:33:01","20","20","5.0.14.0","2","43","trial1","naming","0","0","0","0","bike","0","2297","1","White_Screen.jpg","13","91","Bicycle_Adult.jpg","13"
"091219","11:33:01","20","20","5.0.14.0","2","44","trial1","naming","0","0","0","0","apple","0","2885","1","White_Screen.jpg","11","177","Apple_RedAndGreen.jpg","11"
"091219","11:33:01","20","20","5.0.14.0","2","45","trial1","naming","0","0","0","0","roll fo wire","0","3539","1","White_Screen.jpg","12","100","Wire_Soldering.jpg","12"
"091219","11:33:01","20","20","5.0.14.0","2","46","trial1","naming","0","0","0","0","centerpiece","0","5030","1","White_Screen.jpg","13","70","Candle_ChristmasDecor.jpg","13"
"091219","11:33:01","20","20","5.0.14.0","2","47","trial1","naming","0","0","0","0","lamp","0","3089","1","White_Screen.jpg","10","13","LampPost_WhiteOrnate.jpg","10"
"091219","11:33:01","20","20","5.0.14.0","2","48","trial1","naming","0","0","0","0","shaker","0","5695","1","White_Screen.jpg","11","119","Cabasa.jpg","11"
"091219","11:33:01","20","20","5.0.14.0","2","49","trial1","naming","0","0","0","0","periodic table","0","7846","1","White_Screen.jpg","12","178","PeriodicTable.jpg","12"
"091219","11:33:01","20","20","5.0.14.0","2","50","trial1","naming","0","0","0","0","key chain","0","4976","1","White_Screen.jpg","10","11","Keychain_Leather.jpg","10"
"091219","11:33:01","20","20","5.0.14.0","2","52","trial1","naming","0","0","0","0","clam","0","9249","1","White_Screen.jpg","9","108","Oyster.jpg","9"
"091219","11:33:01","20","20","5.0.14.0","2","53","trial1","naming","0","0","0","0","bus","0","4635","1","White_Screen.jpg","9","122","Bus_DoubleDecker.jpg","9"
"091219","11:33:01","20","20","5.0.14.0","2","54","trial1","naming","0","0","0","0","pillar","0","4605","1","White_Screen.jpg","11","101","PedestalGreek.jpg","11"
"091219","11:33:01","20","20","5.0.14.0","2","55","trial1","naming","0","0","0","0","scooter","0","2979","1","White_Screen.jpg","12","169","Scooter.jpg","12"
"091219","11:33:01","20","20","5.0.14.0","2","56","trial1","naming","0","0","0","0","helmet","0","4083","1","White_Screen.jpg","11","125","Helmet_Football.jpg","11"
"091219","11:33:01","20","20","5.0.14.0","2","57","trial1","naming","0","0","0","0","dish drainer","0","3914","1","White_Screen.jpg","10","5","DryRack_Dishes.jpg","10"
"091219","11:33:01","20","20","5.0.14.0","2","58","trial1","naming","0","0","0","0","hand","0","2301","1","White_Screen.jpg","11","50","Hand.jpg","11"
"091219","11:33:01","20","20","5.0.14.0","2","59","trial1","naming","0","0","0","0","licorice","0","4890","1","White_Screen.jpg","11","18","Licorice.jpg","11"
"091219","11:33:01","20","20","5.0.14.0","2","60","trial1","naming","0","0","0","0","bust","0","2569","1","White_Screen.jpg","14","78","Statue_Head.jpg","14"
"091219","11:33:01","20","20","5.0.14.0","2","61","trial1","naming","0","0","0","0","cantulope","0","7029","1","White_Screen.jpg","14","142","Cantaloupe.jpg","14"
"091219","11:33:01","20","20","5.0.14.0","2","62","trial1","naming","0","0","0","0","cooler","0","2665","1","White_Screen.jpg","13","9","Cooler.jpg","13"
"091219","11:33:01","20","20","5.0.14.0","2","63","trial1","naming","0","0","0","0","gears","0","3395","1","White_Screen.jpg","11","172","Clock_Interior.jpg","11"
"091219","11:33:01","20","20","5.0.14.0","2","64","trial1","naming","0","0","0","0","dog","0","2372","1","White_Screen.jpg","9","147","Dog_Bulldog.jpg","9"
"091219","11:33:01","20","20","5.0.14.0","2","65","trial1","naming","0","0","0","0","rack","0","4645","1","White_Screen.jpg","11","36","KeyHook_Empty.jpg","11"
"091219","11:33:01","20","20","5.0.14.0","2","66","trial1","naming","0","0","0","0","cup","0","2953","1","White_Screen.jpg","12","33","Mug_Travel.jpg","12"
"091219","11:33:01","20","20","5.0.14.0","2","67","trial1","naming","0","0","0","0","plant","0","2678","1","White_Screen.jpg","13","137","Shrub_Cedar.jpg","13"
"091219","11:33:01","20","20","5.0.14.0","2","68","trial1","naming","0","0","0","0","temple","0","4412","1","White_Screen.jpg","9","124","BuildingChinese.jpg","9"
"091219","11:33:01","20","20","5.0.14.0","2","69","trial1","naming","0","0","0","0","rug","0","3193","1","White_Screen.jpg","13","22","Mat_Door.jpg","13"
"091219","11:33:01","20","20","5.0.14.0","2","70","trial1","naming","0","0","0","0","kangaroo","0","3065","1","White_Screen.jpg","11","44","Kangaroo.jpg","11"
"091219","11:33:01","20","20","5.0.14.0","2","71","trial1","naming","0","0","0","0","ambulance","0","3993","1","White_Screen.jpg","12","65","Ambulance.jpg","12"
"091219","11:33:01","20","20","5.0.14.0","2","72","trial1","naming","0","0","0","0","flower","0","5146","1","White_Screen.jpg","9","144","Flower_Crane.jpg","9"
"091219","11:33:01","20","20","5.0.14.0","2","73","trial1","naming","0","0","0","0","recorder","0","3184","1","White_Screen.jpg","12","149","RecorderInstrument.jpg","12"
"091219","11:33:01","20","20","5.0.14.0","2","74","trial1","naming","0","0","0","0","juice","0","3521","1","White_Screen.jpg","11","186","JuiceBox.jpg","11"
"091219","11:33:01","20","20","5.0.14.0","2","75","trial1","naming","0","0","0","0","container","0","5596","1","White_Screen.jpg","12","189","Pot_TurkishCoffee.jpg","12"
"091219","11:33:01","20","20","5.0.14.0","2","76","trial1","naming","0","0","0","0","hat","0","2325","1","White_Screen.jpg","11","87","Hat_Cowboy.jpg","11"
"091219","11:33:01","20","20","5.0.14.0","2","77","trial1","naming","0","0","0","0","screwdriver","0","4992","1","White_Screen.jpg","14","196","ScrewDriver.jpg","14"
"091219","11:33:01","20","20","5.0.14.0","2","78","trial1","naming","0","0","0","0","control panel","0","4622","1","White_Screen.jpg","10","4","SoundMixer_White.jpg","10"
"091219","11:33:01","20","20","5.0.14.0","2","79","trial1","naming","0","0","0","0","meal","0","2844","1","White_Screen.jpg","12","88","Chicken_Dinner.jpg","12"
"091219","11:33:01","20","20","5.0.14.0","2","80","trial1","naming","0","0","0","0","shell","0","4300","1","White_Screen.jpg","13","31","Seashell_RoseMurex.jpg","13"
"091219","11:33:01","20","20","5.0.14.0","2","81","trial1","naming","0","0","0","0","headband","0","4190","1","White_Screen.jpg","12","24","HairBand.jpg","12"
"091219","11:33:01","20","20","5.0.14.0","2","82","trial1","naming","0","0","0","0","toy","0","2713","1","White_Screen.jpg","10","134","DonaldDuck_Toy.jpg","10"
"091219","11:33:01","20","20","5.0.14.0","2","83","trial1","naming","0","0","0","0","tool set","0","3383","1","White_Screen.jpg","9","131","Toolbox_BlackOpen.jpg","9"
"091219","11:33:01","20","20","5.0.14.0","2","84","trial1","naming","0","0","0","0","cereal","0","3668","1","White_Screen.jpg","10","139","Bowl_Cereal.jpg","10"
"091219","11:33:01","20","20","5.0.14.0","2","85","trial1","naming","0","0","0","0","puck","0","5261","1","White_Screen.jpg","10","92","Hockey_Puck.jpg","10"
"091219","11:33:01","20","20","5.0.14.0","2","86","trial1","naming","0","0","0","0","grinder","0","3520","1","White_Screen.jpg","10","38","ProcessorFood_Old.jpg","10"
"091219","11:33:01","20","20","5.0.14.0","2","87","trial1","naming","0","0","0","0","shoes","0","4287","1","White_Screen.jpg","11","143","Shoes_Snowboarding.jpg","11"
"091219","11:33:01","20","20","5.0.14.0","2","88","trial1","naming","0","0","0","0","griddle","0","3279","1","White_Screen.jpg","13","21","Grill_Electric.jpg","13"
"091219","11:33:01","20","20","5.0.14.0","2","89","trial1","naming","0","0","0","0","measurer","0","6260","1","White_Screen.jpg","11","55","Ruler_Digital.jpg","11"
"091219","11:33:01","20","20","5.0.14.0","2","90","trial1","naming","0","0","0","0","dolphin","0","3683","1","White_Screen.jpg","10","163","Dolphine.jpg","10"
"091219","11:33:01","20","20","5.0.14.0","2","91","trial1","naming","0","0","0","0","sign","0","2700","1","White_Screen.jpg","11","7","Sign_HumpBridgeAhead.jpg","11"
"091219","11:33:01","20","20","5.0.14.0","2","92","trial1","naming","0","0","0","0","tin","0","3328","1","White_Screen.jpg","10","64","Canister_Tea.jpg","10"
"091219","11:33:01","20","20","5.0.14.0","2","93","trial1","naming","0","0","0","0","spider","0","2736","1","White_Screen.jpg","10","106","Spider.jpg","10"
"091219","11:33:01","20","20","5.0.14.0","2","94","trial1","naming","0","0","0","0","puffin","0","3588","1","White_Screen.jpg","10","113","Puffin.jpg","10"
"091219","11:33:01","20","20","5.0.14.0","2","95","trial1","naming","0","0","0","0","brush","0","2613","1","White_Screen.jpg","12","104","Brush_Nail.jpg","12"
"091219","11:33:01","20","20","5.0.14.0","2","96","trial1","naming","0","0","0","0","humidifier","0","4520","1","White_Screen.jpg","15","82","Humidifier.jpg","15"
"091219","11:33:01","20","20","5.0.14.0","2","97","trial1","naming","0","0","0","0","shape sorter","0","5537","1","White_Screen.jpg","14","47","Toy_Shapesorter.jpg","14"
"091219","11:33:01","20","20","5.0.14.0","2","98","trial1","naming","0","0","0","0","key rack","0","3628","1","White_Screen.jpg","11","153","KeyHook_Occupied.jpg","11"
"091219","11:33:01","20","20","5.0.14.0","2","99","trial1","naming","0","0","0","0","sander","0","3776","1","White_Screen.jpg","12","168","JumpingJack.jpg","12"
"091219","11:33:01","20","20","5.0.14.0","2","100","trial1","naming","0","0","0","0","beer","0","2346","1","White_Screen.jpg","10","184","Glass_Beer.jpg","10"
"091219","11:33:01","20","20","5.0.14.0","2","101","trial1","naming","0","0","0","0","spaghetti sauce","0","8102","1","White_Screen.jpg","10","61","TomatoSauce.jpg","10"
"091219","11:33:01","20","20","5.0.14.0","2","103","trial1","naming","0","0","0","0","rocking horse","0","8293","1","White_Screen.jpg","9","53","Toy_RockingHorseBlack.jpg","9"
"091219","11:33:01","20","20","5.0.14.0","2","104","trial1","naming","0","0","0","0","pin","0","7895","1","White_Screen.jpg","13","105","MemoPaperSpike.jpg","13"
"091219","11:33:01","20","20","5.0.14.0","2","105","trial1","naming","0","0","0","0","mask\","0","4283","1","White_Screen.jpg","11","173","Mask_Masquerade.jpg","11"
"091219","11:33:01","20","20","5.0.14.0","2","106","trial1","naming","0","0","0","0","headphones","0","4573","1","White_Screen.jpg","11","150","Headphones.jpg","11"
"091219","11:33:01","20","20","5.0.14.0","2","107","trial1","naming","0","0","0","0","pot","0","3544","1","White_Screen.jpg","13","140","Pot_BlackOld.jpg","13"
"091219","11:33:01","20","20","5.0.14.0","2","108","trial1","naming","0","0","0","0","comb","0","3307","1","White_Screen.jpg","11","98","Comb_1.jpg","11"
"091219","11:33:01","20","20","5.0.14.0","2","109","trial1","naming","0","0","0","0","fan","0","3576","1","White_Screen.jpg","13","128","Fan_Blades.jpg","13"
"091219","11:33:01","20","20","5.0.14.0","2","110","trial1","naming","0","0","0","0","clock","0","3379","1","White_Screen.jpg","8","130","Clock_Wall.jpg","8"
"091219","11:33:01","20","20","5.0.14.0","2","111","trial1","naming","0","0","0","0","control panel","0","5799","1","White_Screen.jpg","12","62","ControlPanel.jpg","12"
"091219","11:33:01","20","20","5.0.14.0","2","112","trial1","naming","0","0","0","0","bread","0","3152","1","White_Screen.jpg","13","138","Bread_Carrot.jpg","13"
"091219","11:33:01","20","20","5.0.14.0","2","113","trial1","naming","0","0","0","0","ribbon","0","4076","1","White_Screen.jpg","13","135","Tape_Washi.jpg","13"
"091219","11:33:01","20","20","5.0.14.0","2","114","trial1","naming","0","0","0","0","perfume","0","3888","1","White_Screen.jpg","10","155","Cologne.jpg","10"
"091219","11:33:01","20","20","5.0.14.0","2","115","trial1","naming","0","0","0","0","coloseum","0","4496","1","White_Screen.jpg","16","181","Colosseum.jpg","16"
"091219","11:33:01","20","20","5.0.14.0","2","116","trial1","naming","0","0","0","0","strainer","0","4978","1","White_Screen.jpg","10","116","Sieve_SideView.jpg","10"
"091219","11:33:01","20","20","5.0.14.0","2","117","trial1","naming","0","0","0","0","bread","0","3883","1","White_Screen.jpg","10","156","Bread_Roll.jpg","10"
"091219","11:33:01","20","20","5.0.14.0","2","118","trial1","naming","0","0","0","0","fire pit","0","4459","1","White_Screen.jpg","9","69","Fireplace_Outdoor.jpg","9"
"091219","11:33:01","20","20","5.0.14.0","2","119","trial1","naming","0","0","0","0","noose","0","2470","1","White_Screen.jpg","12","180","Noose.jpg","12"
"091219","11:33:01","20","20","5.0.14.0","2","120","trial1","naming","0","0","0","0","car\","0","2375","1","White_Screen.jpg","12","179","Car_Sedan.jpg","12"
"091219","11:33:01","20","20","5.0.14.0","2","121","trial1","naming","0","0","0","0","sleeping bag","0","4581","1","White_Screen.jpg","10","187","InflatableSleepingBag.jpg","10"
"091219","11:33:01","20","20","5.0.14.0","2","122","trial1","naming","0","0","0","0","doll","0","2647","1","White_Screen.jpg","7","40","Toy_DollHomeMade.jpg","7"
"091219","11:33:01","20","20","5.0.14.0","2","123","trial1","naming","0","0","0","0","bomb","0","3692","1","White_Screen.jpg","12","1","Bomb.jpg","12"
"091219","11:33:01","20","20","5.0.14.0","2","124","trial1","naming","0","0","0","0","mask","0","4056","1","White_Screen.jpg","12","57","Mask_Viking.jpg","12"
"091219","11:33:01","20","20","5.0.14.0","2","125","trial1","naming","0","0","0","0","shell","0","6147","1","White_Screen.jpg","14","2","Fossil.jpg","14"
"091219","11:33:01","20","20","5.0.14.0","2","126","trial1","naming","0","0","0","0","bowl","0","2637","1","White_Screen.jpg","10","67","Bowl_Glass.jpg","10"
"091219","11:33:01","20","20","5.0.14.0","2","127","trial1","naming","0","0","0","0","instrument","0","5333","1","White_Screen.jpg","11","83","Balalaika.jpg","11"
"091219","11:33:01","20","20","5.0.14.0","2","128","trial1","naming","0","0","0","0","slinky","0","3682","1","White_Screen.jpg","11","96","Toy_Slinky.jpg","11"
"091219","11:33:01","20","20","5.0.14.0","2","129","trial1","naming","0","0","0","0","tape","0","2671","1","White_Screen.jpg","11","183","Tape_Clear.jpg","11"
"091219","11:33:01","20","20","5.0.14.0","2","130","trial1","naming","0","0","0","0","apple","0","4070","1","White_Screen.jpg","10","89","Plum.jpg","10"
"091219","11:33:01","20","20","5.0.14.0","2","131","trial1","naming","0","0","0","0","knife","0","4486","1","White_Screen.jpg","13","154","Knife_Butter.jpg","13"
"091219","11:33:01","20","20","5.0.14.0","2","132","trial1","naming","0","0","0","0","mallet","0","3037","1","White_Screen.jpg","13","74","SledgeHammer.jpg","13"
"091219","11:33:01","20","20","5.0.14.0","2","133","trial1","naming","0","0","0","0","tables","0","3601","1","White_Screen.jpg","12","20","Altar.jpg","12"
"091219","11:33:01","20","20","5.0.14.0","2","134","trial1","naming","0","0","0","0","net","0","2214","1","White_Screen.jpg","11","43","NetButterfly.jpg","11"
"091219","11:33:01","20","20","5.0.14.0","2","135","trial1","naming","0","0","0","0","mouth guard","0","5059","1","White_Screen.jpg","11","171","TeethMould.jpg","11"
"091219","11:33:01","20","20","5.0.14.0","2","136","trial1","naming","0","0","0","0","cup","0","2548","1","White_Screen.jpg","13","34","Cup_Styrofoam.jpg","13"
"091219","11:33:01","20","20","5.0.14.0","2","137","trial1","naming","0","0","0","0","fire extinguisher","0","5207","1","White_Screen.jpg","12","166","FireExtinguisher.jpg","12"
"091219","11:33:01","20","20","5.0.14.0","2","138","trial1","naming","0","0","0","0","control panel","0","5916","1","White_Screen.jpg","13","93","DJMixer.jpg","13"
"091219","11:33:01","20","20","5.0.14.0","2","139","trial1","naming","0","0","0","0","shark","0","3451","1","White_Screen.jpg","10","160","Toy_Shark.jpg","10"
"091219","11:33:01","20","20","5.0.14.0","2","140","trial1","naming","0","0","0","0","fruit","0","5198","1","White_Screen.jpg","12","42","Lychee.jpg","12"
"091219","11:33:01","20","20","5.0.14.0","2","141","trial1","naming","0","0","0","0","basket of bread","0","3790","1","White_Screen.jpg","17","39","Basket_Bread.jpg","17"
"091219","11:33:01","20","20","5.0.14.0","2","142","trial1","naming","0","0","0","0","stool","0","2960","1","White_Screen.jpg","8","60","Stool_Foot.jpg","8"
"091219","11:33:01","20","20","5.0.14.0","2","143","trial1","naming","0","0","0","0","water fountain","0","5023","1","White_Screen.jpg","13","127","WaterFountain.jpg","13"
"091219","11:33:01","20","20","5.0.14.0","2","144","trial1","naming","0","0","0","0","vent","0","4251","1","White_Screen.jpg","17","103","AirVent.jpg","17"
"091219","11:33:01","20","20","5.0.14.0","2","145","trial1","naming","0","0","0","0","lemon","0","2658","1","White_Screen.jpg","12","191","Lemon.jpg","12"
"091219","11:33:01","20","20","5.0.14.0","2","146","trial1","naming","0","0","0","0","metal detector","0","5542","1","White_Screen.jpg","13","16","ScannerShoplifting.jpg","13"
"091219","11:33:01","20","20","5.0.14.0","2","147","trial1","naming","0","0","0","0","chair","0","2720","1","White_Screen.jpg","8","111","Chair_PlasticGreen.jpg","8"
"091219","11:33:01","20","20","5.0.14.0","2","148","trial1","naming","0","0","0","0","box","0","2701","1","White_Screen.jpg","11","14","Case_WoodenOrnate.jpg","11"
"091219","11:33:01","20","20","5.0.14.0","2","149","trial1","naming","0","0","0","0","pants","0","2903","1","White_Screen.jpg","12","80","Pants.jpg","12"
"091219","11:33:01","20","20","5.0.14.0","2","150","trial1","naming","0","0","0","0","camera","0","2788","1","White_Screen.jpg","12","114","Camera_Digital.jpg","12"
"091219","11:33:01","20","20","5.0.14.0","2","151","trial1","naming","0","0","0","0","thermos","0","4971","1","White_Screen.jpg","14","115","Thermos_Decorated.jpg","14"
"091219","11:33:01","20","20","5.0.14.0","2","152","trial1","naming","0","0","0","0","rolling pin","0","5682","1","White_Screen.jpg","12","51","MassageRoller.jpg","12"
"091219","11:33:01","20","20","5.0.14.0","2","154","trial1","naming","0","0","0","0","lunchbox","0","7785","1","White_Screen.jpg","8","112","Lunchbox.jpg","8"
"091219","11:33:01","20","20","5.0.14.0","2","155","trial1","naming","0","0","0","0","brooch","0","2804","1","White_Screen.jpg","11","170","Brooch_Fish.jpg","11"
"091219","11:33:01","20","20","5.0.14.0","2","156","trial1","naming","0","0","0","0","harmonica","0","5004","1","White_Screen.jpg","12","46","Harmonica.jpg","12"
"091219","11:33:01","20","20","5.0.14.0","2","157","trial1","naming","0","0","0","0","chicken","0","3352","1","White_Screen.jpg","17","99","Chicken_Raw.jpg","17"
"091219","11:33:01","20","20","5.0.14.0","2","158","trial1","naming","0","0","0","0","box","0","3231","1","White_Screen.jpg","13","54","Container_RedPlastic.jpg","13"
"091219","11:33:01","20","20","5.0.14.0","2","159","trial1","naming","0","0","0","0","flag","0","3177","1","White_Screen.jpg","11","52","PirateFlag.jpg","11"
"091219","11:33:01","20","20","5.0.14.0","2","160","trial1","naming","0","0","0","0","ladle","0","2545","1","White_Screen.jpg","9","159","Ladle.jpg","9"
"091219","11:33:01","20","20","5.0.14.0","2","161","trial1","naming","0","0","0","0","wheel barrow","0","5534","1","White_Screen.jpg","10","148","Wheelbarrow_Green.jpg","10"
"091219","11:33:01","20","20","5.0.14.0","2","162","trial1","naming","0","0","0","0","bridge","0","3897","1","White_Screen.jpg","14","185","BridgeWooden.jpg","14"
