"date","time","group","subject","build","blocknum","trialnum","blockcode","trialcode","pretrialpause","posttrialpause","trialduration","trialtimeout","response","correct","latency","stimulusnumber1","stimulusitem1","stimulusonset1","stimulusnumber2","stimulusitem2","stimulusonset2"
"022420","14:58:20","36","36","5.0.14.0","2","1","trial1","naming","0","0","0","0","slide","0","5916","1","White_Screen.jpg","16","94","Toy_Slide.jpg","16"
"022420","14:58:20","36","36","5.0.14.0","2","2","trial1","naming","0","0","0","0","snail","0","3403","1","White_Screen.jpg","3","177","Snail.jpg","3"
"022420","14:58:20","36","36","5.0.14.0","2","3","trial1","naming","0","0","0","0","Enter Name","0","316","1","White_Screen.jpg","2","33","RugRoled.jpg","2"
"022420","14:58:20","36","36","5.0.14.0","2","4","trial1","naming","0","0","0","0","toilet","0","2760","1","White_Screen.jpg","3","139","Toilet.jpg","3"
"022420","14:58:20","36","36","5.0.14.0","2","5","trial1","naming","0","0","0","0","golf club","0","4126","1","White_Screen.jpg","2","180","Golf_Club.jpg","2"
"022420","14:58:20","36","36","5.0.14.0","2","6","trial1","naming","0","0","0","0","crocs","0","3418","1","White_Screen.jpg","3","40","Shoes_DutchClogs.jpg","3"
"022420","14:58:20","36","36","5.0.14.0","2","7","trial1","naming","0","0","0","0","sleeping net","0","9795","1","White_Screen.jpg","3","57","Hammock.jpg","3"
"022420","14:58:20","36","36","5.0.14.0","2","8","trial1","naming","0","0","0","0","chair","0","2904","1","White_Screen.jpg","2","192","Chair_Bamboo.jpg","2"
"022420","14:58:20","36","36","5.0.14.0","2","9","trial1","naming","0","0","0","0","scale","0","1918","1","White_Screen.jpg","2","144","ScaleWeighing.jpg","2"
"022420","14:58:20","36","36","5.0.14.0","2","10","trial1","naming","0","0","0","0","house","0","2039","1","White_Screen.jpg","3","77","House_Wooden.jpg","3"
"022420","14:58:20","36","36","5.0.14.0","2","11","trial1","naming","0","0","0","0","first aid kit","0","3450","1","White_Screen.jpg","3","193","Box_FirstAid.jpg","3"
"022420","14:58:20","36","36","5.0.14.0","2","12","trial1","naming","0","0","0","0","vase","0","2562","1","White_Screen.jpg","3","131","MixingGlass.jpg","3"
"022420","14:58:20","36","36","5.0.14.0","2","13","trial1","naming","0","0","0","0","piglet","0","2498","1","White_Screen.jpg","2","95","Pig.jpg","2"
"022420","14:58:20","36","36","5.0.14.0","2","14","trial1","naming","0","0","0","0","toy house","0","2771","1","White_Screen.jpg","4","165","House_Doll.jpg","4"
"022420","14:58:20","36","36","5.0.14.0","2","15","trial1","naming","0","0","0","0","weight belt","0","4834","1","White_Screen.jpg","3","174","Brace_Back.jpg","3"
"022420","14:58:20","36","36","5.0.14.0","2","16","trial1","naming","0","0","0","0","bat","0","2232","1","White_Screen.jpg","3","97","Toy_Bat.jpg","3"
"022420","14:58:20","36","36","5.0.14.0","2","17","trial1","naming","0","0","0","0","key lock","0","5844","1","White_Screen.jpg","4","93","DoorBolt.jpg","4"
"022420","14:58:20","36","36","5.0.14.0","2","18","trial1","naming","0","0","0","0","garbage pan","0","5278","1","White_Screen.jpg","4","116","DustPan.jpg","4"
"022420","14:58:20","36","36","5.0.14.0","2","19","trial1","naming","0","0","0","0","neck pillow","0","2849","1","White_Screen.jpg","4","8","Neckrest.jpg","4"
"022420","14:58:20","36","36","5.0.14.0","2","20","trial1","naming","0","0","0","0","spong","0","2320","1","White_Screen.jpg","2","29","SpongeScrubbing.jpg","2"
"022420","14:58:20","36","36","5.0.14.0","2","21","trial1","naming","0","0","0","0","wiper fluid","0","8478","1","White_Screen.jpg","3","110","WindshieldWasherFluid.jpg","3"
"022420","14:58:20","36","36","5.0.14.0","2","22","trial1","naming","0","0","0","0","fishing chair","0","3298","1","White_Screen.jpg","4","184","Chair_Folding.jpg","4"
"022420","14:58:20","36","36","5.0.14.0","2","23","trial1","naming","0","0","0","0","package","0","3746","1","White_Screen.jpg","2","32","Parcel.jpg","2"
"022420","14:58:20","36","36","5.0.14.0","2","24","trial1","naming","0","0","0","0","pliers","0","2468","1","White_Screen.jpg","2","20","Pliers_ViceGrip.jpg","2"
"022420","14:58:20","36","36","5.0.14.0","2","25","trial1","naming","0","0","0","0","tomato","0","2313","1","White_Screen.jpg","3","169","Tomato.jpg","3"
"022420","14:58:20","36","36","5.0.14.0","2","26","trial1","naming","0","0","0","0","donut","0","2279","1","White_Screen.jpg","3","115","Bagel.jpg","3"
"022420","14:58:20","36","36","5.0.14.0","2","27","trial1","naming","0","0","0","0","rake","0","2041","1","White_Screen.jpg","2","145","HandRake.jpg","2"
"022420","14:58:20","36","36","5.0.14.0","2","28","trial1","naming","0","0","0","0","magazine","0","2738","1","White_Screen.jpg","3","55","MagazineRoll.jpg","3"
"022420","14:58:20","36","36","5.0.14.0","2","29","trial1","naming","0","0","0","0","wine","0","2033","1","White_Screen.jpg","2","38","Bottle_Champagne.jpg","2"
"022420","14:58:20","36","36","5.0.14.0","2","30","trial1","naming","0","0","0","0","lips","0","2419","1","White_Screen.jpg","3","138","Lips_Wax.jpg","3"
"022420","14:58:20","36","36","5.0.14.0","2","31","trial1","naming","0","0","0","0","plush dog","0","3738","1","White_Screen.jpg","3","41","Toy_Dog.jpg","3"
"022420","14:58:20","36","36","5.0.14.0","2","32","trial1","naming","0","0","0","0","skeleton","0","2472","1","White_Screen.jpg","3","45","HumanSkeleton.jpg","3"
"022420","14:58:20","36","36","5.0.14.0","2","33","trial1","naming","0","0","0","0","water dispenser","0","3498","1","White_Screen.jpg","3","96","WaterCooler.jpg","3"
"022420","14:58:20","36","36","5.0.14.0","2","34","trial1","naming","0","0","0","0","drum","0","2198","1","White_Screen.jpg","4","102","Drum_Tall.jpg","4"
"022420","14:58:20","36","36","5.0.14.0","2","35","trial1","naming","0","0","0","0","camera holder","0","4164","1","White_Screen.jpg","2","36","Tripod.jpg","2"
"022420","14:58:20","36","36","5.0.14.0","2","36","trial1","naming","0","0","0","0","skirt","0","2087","1","White_Screen.jpg","5","148","Skirt_Stripes.jpg","5"
"022420","14:58:20","36","36","5.0.14.0","2","37","trial1","naming","0","0","0","0","medicine jar","0","3771","1","White_Screen.jpg","4","190","Bottle_Specimen.jpg","4"
"022420","14:58:20","36","36","5.0.14.0","2","38","trial1","naming","0","0","0","0","snake","0","2385","1","White_Screen.jpg","3","58","Snake_Cobra.jpg","3"
"022420","14:58:20","36","36","5.0.14.0","2","39","trial1","naming","0","0","0","0","USB cable","0","3172","1","White_Screen.jpg","3","13","HDMIConnector.jpg","3"
"022420","14:58:20","36","36","5.0.14.0","2","40","trial1","naming","0","0","0","0","staples","0","2393","1","White_Screen.jpg","3","162","Box_Staples.jpg","3"
"022420","14:58:20","36","36","5.0.14.0","2","41","trial1","naming","0","0","0","0","bottle opener","0","7305","1","White_Screen.jpg","2","60","Scoop_IceCream.jpg","2"
"022420","14:58:20","36","36","5.0.14.0","2","42","trial1","naming","0","0","0","0","tractor","0","2882","1","White_Screen.jpg","3","70","Seeder.jpg","3"
"022420","14:58:20","36","36","5.0.14.0","2","43","trial1","naming","0","0","0","0","glass cup","0","4432","1","White_Screen.jpg","5","42","Glass_Cup.jpg","5"
"022420","14:58:20","36","36","5.0.14.0","2","44","trial1","naming","0","0","0","0","earrings","0","2315","1","White_Screen.jpg","2","107","Earrings_Dangling.jpg","2"
"022420","14:58:20","36","36","5.0.14.0","2","45","trial1","naming","0","0","0","0","shovel","0","5132","1","White_Screen.jpg","3","22","Shovel_Garden.jpg","3"
"022420","14:58:20","36","36","5.0.14.0","2","46","trial1","naming","0","0","0","0","pear","0","1957","1","White_Screen.jpg","3","31","Pear_Green.jpg","3"
"022420","14:58:20","36","36","5.0.14.0","2","47","trial1","naming","0","0","0","0","button","0","2460","1","White_Screen.jpg","4","67","Switch_Power.jpg","4"
"022420","14:58:20","36","36","5.0.14.0","2","48","trial1","naming","0","0","0","0","baby toy","0","3508","1","White_Screen.jpg","2","80","Toy_BeadMaze.jpg","2"
"022420","14:58:20","36","36","5.0.14.0","2","49","trial1","naming","0","0","0","0","airplane","0","2412","1","White_Screen.jpg","3","53","Airplane_Small.jpg","3"
"022420","14:58:20","36","36","5.0.14.0","2","50","trial1","naming","0","0","0","0","lizard","0","2647","1","White_Screen.jpg","2","28","Toy_Lizard.jpg","2"
"022420","14:58:20","36","36","5.0.14.0","2","52","trial1","naming","0","0","0","0","towel holder","0","2849","1","White_Screen.jpg","3","126","TowelRack_Brown.jpg","3"
"022420","14:58:20","36","36","5.0.14.0","2","53","trial1","naming","0","0","0","0","lollipop","0","3631","1","White_Screen.jpg","3","198","Lollipop_Rainbow.jpg","3"
"022420","14:58:20","36","36","5.0.14.0","2","54","trial1","naming","0","0","0","0","door handle","0","3615","1","White_Screen.jpg","3","87","DoorHandle.jpg","3"
"022420","14:58:20","36","36","5.0.14.0","2","55","trial1","naming","0","0","0","0","door knob","0","3390","1","White_Screen.jpg","2","73","Fuse.jpg","2"
"022420","14:58:20","36","36","5.0.14.0","2","56","trial1","naming","0","0","0","0","refrigerator","0","2861","1","White_Screen.jpg","3","63","Fridge.jpg","3"
"022420","14:58:20","36","36","5.0.14.0","2","57","trial1","naming","0","0","0","0","tuba","0","2047","1","White_Screen.jpg","3","62","Horn_French.jpg","3"
"022420","14:58:20","36","36","5.0.14.0","2","58","trial1","naming","0","0","0","0","desk","0","2443","1","White_Screen.jpg","3","64","Desk_School.jpg","3"
"022420","14:58:20","36","36","5.0.14.0","2","59","trial1","naming","0","0","0","0","bubble squirter","0","8353","1","White_Screen.jpg","4","124","HotWaterBottle.jpg","4"
"022420","14:58:20","36","36","5.0.14.0","2","60","trial1","naming","0","0","0","0","caramel candy","0","3089","1","White_Screen.jpg","3","43","Candy_Toffee.jpg","3"
"022420","14:58:20","36","36","5.0.14.0","2","61","trial1","naming","0","0","0","0","DVD set","0","3047","1","White_Screen.jpg","3","9","Case_DVD.jpg","3"
"022420","14:58:20","36","36","5.0.14.0","2","62","trial1","naming","0","0","0","0","scrabble","0","3174","1","White_Screen.jpg","3","74","Scrabble.jpg","3"
"022420","14:58:20","36","36","5.0.14.0","2","63","trial1","naming","0","0","0","0","guitar","0","2283","1","White_Screen.jpg","3","35","Guitar_Acoustic.jpg","3"
"022420","14:58:20","36","36","5.0.14.0","2","64","trial1","naming","0","0","0","0","chopsticks","0","4489","1","White_Screen.jpg","3","125","Bowl_Chopsticks.jpg","3"
"022420","14:58:20","36","36","5.0.14.0","2","65","trial1","naming","0","0","0","0","tickets","0","2233","1","White_Screen.jpg","2","155","Tickets_PrintWords.jpg","2"
"022420","14:58:20","36","36","5.0.14.0","2","66","trial1","naming","0","0","0","0","pepper","0","2529","1","White_Screen.jpg","3","81","Pepper_Chili.jpg","3"
"022420","14:58:20","36","36","5.0.14.0","2","67","trial1","naming","0","0","0","0","cables","0","2279","1","White_Screen.jpg","3","142","Cable_AudioSplitter.jpg","3"
"022420","14:58:20","36","36","5.0.14.0","2","68","trial1","naming","0","0","0","0","lion","0","2616","1","White_Screen.jpg","3","134","Lion.jpg","3"
"022420","14:58:20","36","36","5.0.14.0","2","69","trial1","naming","0","0","0","0","ball","0","2677","1","White_Screen.jpg","3","187","Ball_Squashball.jpg","3"
"022420","14:58:20","36","36","5.0.14.0","2","70","trial1","naming","0","0","0","0","candy apple","0","2754","1","White_Screen.jpg","3","176","Apple_Candy.jpg","3"
"022420","14:58:20","36","36","5.0.14.0","2","71","trial1","naming","0","0","0","0","electric guitar","0","4481","1","White_Screen.jpg","3","152","Guitar_Electric.jpg","3"
"022420","14:58:20","36","36","5.0.14.0","2","72","trial1","naming","0","0","0","0","pie","0","2244","1","White_Screen.jpg","3","100","TartStrawberry.jpg","3"
"022420","14:58:20","36","36","5.0.14.0","2","73","trial1","naming","0","0","0","0","keyboard","0","2542","1","White_Screen.jpg","2","170","ComputerKeyboard.jpg","2"
"022420","14:58:20","36","36","5.0.14.0","2","74","trial1","naming","0","0","0","0","rice","0","2696","1","White_Screen.jpg","2","197","Bag_Grains.jpg","2"
"022420","14:58:20","36","36","5.0.14.0","2","75","trial1","naming","0","0","0","0","dog treat","0","4921","1","White_Screen.jpg","4","4","DogTreat.jpg","4"
"022420","14:58:20","36","36","5.0.14.0","2","76","trial1","naming","0","0","0","0","telephone","0","3929","1","White_Screen.jpg","3","132","Telephone_Dial.jpg","3"
"022420","14:58:20","36","36","5.0.14.0","2","77","trial1","naming","0","0","0","0","jewelry box","0","2857","1","White_Screen.jpg","3","154","Box_JeweleryWooden.jpg","3"
"022420","14:58:20","36","36","5.0.14.0","2","78","trial1","naming","0","0","0","0","cork opener","0","4674","1","White_Screen.jpg","3","135","Corkscrew.jpg","3"
"022420","14:58:20","36","36","5.0.14.0","2","79","trial1","naming","0","0","0","0","dentures","0","2800","1","White_Screen.jpg","3","10","TeethModel.jpg","3"
"022420","14:58:20","36","36","5.0.14.0","2","80","trial1","naming","0","0","0","0","pajamas","0","4111","1","White_Screen.jpg","2","85","Pajamas.jpg","2"
"022420","14:58:20","36","36","5.0.14.0","2","81","trial1","naming","0","0","0","0","candy dispenser","0","6762","1","White_Screen.jpg","4","90","CandyDispenser.jpg","4"
"022420","14:58:20","36","36","5.0.14.0","2","82","trial1","naming","0","0","0","0","blowhorn","0","4092","1","White_Screen.jpg","3","17","Megaphone.jpg","3"
"022420","14:58:20","36","36","5.0.14.0","2","83","trial1","naming","0","0","0","0","toolbox","0","2506","1","White_Screen.jpg","2","114","Walkman.jpg","2"
"022420","14:58:20","36","36","5.0.14.0","2","84","trial1","naming","0","0","0","0","grocery cart","0","3231","1","White_Screen.jpg","3","56","Cart_Groceries.jpg","3"
"022420","14:58:20","36","36","5.0.14.0","2","85","trial1","naming","0","0","0","0","vacuum tube","0","4278","1","White_Screen.jpg","2","167","VacuumHose.jpg","2"
"022420","14:58:20","36","36","5.0.14.0","2","86","trial1","naming","0","0","0","0","hammershark","0","2867","1","White_Screen.jpg","3","140","Shark_Hammerhead.jpg","3"
"022420","14:58:20","36","36","5.0.14.0","2","87","trial1","naming","0","0","0","0","phone booth","0","3347","1","White_Screen.jpg","3","37","Telephone_Booth.jpg","3"
"022420","14:58:20","36","36","5.0.14.0","2","88","trial1","naming","0","0","0","0","grass cutter","0","3406","1","White_Screen.jpg","3","2","ShearsGarden.jpg","3"
"022420","14:58:20","36","36","5.0.14.0","2","89","trial1","naming","0","0","0","0","ash tray","0","2449","1","White_Screen.jpg","4","189","Ashtray_Empty.jpg","4"
"022420","14:58:20","36","36","5.0.14.0","2","90","trial1","naming","0","0","0","0","medicine","0","3194","1","White_Screen.jpg","3","46","PillBottle_Spilled.jpg","3"
"022420","14:58:20","36","36","5.0.14.0","2","91","trial1","naming","0","0","0","0","pen","0","4323","1","White_Screen.jpg","3","1","Icepick.jpg","3"
"022420","14:58:20","36","36","5.0.14.0","2","92","trial1","naming","0","0","0","0","juke box","0","5068","1","White_Screen.jpg","2","91","Radio_Antique.jpg","2"
"022420","14:58:20","36","36","5.0.14.0","2","93","trial1","naming","0","0","0","0","stove top","0","3464","1","White_Screen.jpg","3","78","Stovetop.jpg","3"
"022420","14:58:20","36","36","5.0.14.0","2","94","trial1","naming","0","0","0","0","sweater","0","2380","1","White_Screen.jpg","3","173","Hoodie.jpg","3"
"022420","14:58:20","36","36","5.0.14.0","2","95","trial1","naming","0","0","0","0","stamp","0","2241","1","White_Screen.jpg","2","181","StampAndSeal.jpg","2"
"022420","14:58:20","36","36","5.0.14.0","2","96","trial1","naming","0","0","0","0","coins","0","2486","1","White_Screen.jpg","5","172","CoinRolls.jpg","5"
"022420","14:58:20","36","36","5.0.14.0","2","97","trial1","naming","0","0","0","0","seat buckle","0","2970","1","White_Screen.jpg","3","143","SeatBuckle.jpg","3"
"022420","14:58:20","36","36","5.0.14.0","2","98","trial1","naming","0","0","0","0","Parking sign","0","3025","1","White_Screen.jpg","3","175","Sign_NoParking.jpg","3"
"022420","14:58:20","36","36","5.0.14.0","2","99","trial1","naming","0","0","0","0","battleship","0","2955","1","White_Screen.jpg","3","92","Ship_Battle.jpg","3"
"022420","14:58:20","36","36","5.0.14.0","2","100","trial1","naming","0","0","0","0","playground","0","2836","1","White_Screen.jpg","2","83","Playground.jpg","2"
"022420","14:58:20","36","36","5.0.14.0","2","101","trial1","naming","0","0","0","0","starfish","0","2373","1","White_Screen.jpg","2","48","Starfish.jpg","2"
"022420","14:58:20","36","36","5.0.14.0","2","103","trial1","naming","0","0","0","0","wrecked car","0","3639","1","White_Screen.jpg","3","24","Car_Totalled.jpg","3"
"022420","14:58:20","36","36","5.0.14.0","2","104","trial1","naming","0","0","0","0","snowman","0","2295","1","White_Screen.jpg","4","194","SnowmanDecor.jpg","4"
"022420","14:58:20","36","36","5.0.14.0","2","105","trial1","naming","0","0","0","0","mug","0","4486","1","White_Screen.jpg","5","141","Jug_ClayAncient.jpg","5"
"022420","14:58:20","36","36","5.0.14.0","2","106","trial1","naming","0","0","0","0","needle holder","0","5087","1","White_Screen.jpg","2","160","Thimble.jpg","2"
"022420","14:58:20","36","36","5.0.14.0","2","107","trial1","naming","0","0","0","0","toy stick","0","3310","1","White_Screen.jpg","2","14","Toy_HockeyStick.jpg","2"
"022420","14:58:20","36","36","5.0.14.0","2","108","trial1","naming","0","0","0","0","football player","0","3955","1","White_Screen.jpg","5","136","PlayerFootball.jpg","5"
"022420","14:58:20","36","36","5.0.14.0","2","109","trial1","naming","0","0","0","0","tofu","0","3383","1","White_Screen.jpg","3","12","Tofu.jpg","3"
"022420","14:58:20","36","36","5.0.14.0","2","110","trial1","naming","0","0","0","0","statue","0","4774","1","White_Screen.jpg","2","163","Statue_ManHorse.jpg","2"
"022420","14:58:20","36","36","5.0.14.0","2","111","trial1","naming","0","0","0","0","phone case","0","2902","1","White_Screen.jpg","2","111","PhoneCase.jpg","2"
"022420","14:58:20","36","36","5.0.14.0","2","112","trial1","naming","0","0","0","0","tokens","0","5720","1","White_Screen.jpg","4","137","PokerChips.jpg","4"
"022420","14:58:20","36","36","5.0.14.0","2","113","trial1","naming","0","0","0","0","floppy disc","0","3385","1","White_Screen.jpg","3","82","FloppyDisk.jpg","3"
"022420","14:58:20","36","36","5.0.14.0","2","114","trial1","naming","0","0","0","0","vacuum cleaner","0","3801","1","White_Screen.jpg","3","65","Steam_Cleaner.jpg","3"
"022420","14:58:20","36","36","5.0.14.0","2","115","trial1","naming","0","0","0","0","christmas tree","0","3393","1","White_Screen.jpg","3","11","Toy_Christmastree.jpg","3"
"022420","14:58:20","36","36","5.0.14.0","2","116","trial1","naming","0","0","0","0","record vinyl","0","5193","1","White_Screen.jpg","2","34","VinylRecord.jpg","2"
"022420","14:58:20","36","36","5.0.14.0","2","117","trial1","naming","0","0","0","0","mask","0","2114","1","White_Screen.jpg","4","52","Mask_African.jpg","4"
"022420","14:58:20","36","36","5.0.14.0","2","118","trial1","naming","0","0","0","0","revolver","0","2610","1","White_Screen.jpg","6","86","Gun_Revolver.jpg","6"
"022420","14:58:20","36","36","5.0.14.0","2","119","trial1","naming","0","0","0","0","ladle","0","2307","1","White_Screen.jpg","2","39","Spoon_Wooden.jpg","2"
"022420","14:58:20","36","36","5.0.14.0","2","120","trial1","naming","0","0","0","0","cloud","0","3235","1","White_Screen.jpg","4","149","Cloud.jpg","4"
"022420","14:58:20","36","36","5.0.14.0","2","121","trial1","naming","0","0","0","0","baby basket","0","5659","1","White_Screen.jpg","4","89","CarSeat.jpg","4"
"022420","14:58:20","36","36","5.0.14.0","2","122","trial1","naming","0","0","0","0","lock","0","3977","1","White_Screen.jpg","3","196","Lock_Door.jpg","3"
"022420","14:58:20","36","36","5.0.14.0","2","123","trial1","naming","0","0","0","0","icee machine","0","6056","1","White_Screen.jpg","5","16","SlushieMachine.jpg","5"
"022420","14:58:20","36","36","5.0.14.0","2","124","trial1","naming","0","0","0","0","melted candy","0","2935","1","White_Screen.jpg","3","75","Candy_Caramel.jpg","3"
"022420","14:58:20","36","36","5.0.14.0","2","125","trial1","naming","0","0","0","0","asparagus","0","2930","1","White_Screen.jpg","4","49","Artichoke.jpg","4"
"022420","14:58:20","36","36","5.0.14.0","2","126","trial1","naming","0","0","0","0","wallet","0","2159","1","White_Screen.jpg","2","61","Wallet_ClosedBlack.jpg","2"
"022420","14:58:20","36","36","5.0.14.0","2","127","trial1","naming","0","0","0","0","fries","0","2286","1","White_Screen.jpg","3","120","fries.jpg","3"
"022420","14:58:20","36","36","5.0.14.0","2","128","trial1","naming","0","0","0","0","paper boat","0","2568","1","White_Screen.jpg","3","171","Origami_Boat.jpg","3"
"022420","14:58:20","36","36","5.0.14.0","2","129","trial1","naming","0","0","0","0","pick up truck","0","4359","1","White_Screen.jpg","4","84","Truck_Pickup.jpg","4"
"022420","14:58:20","36","36","5.0.14.0","2","130","trial1","naming","0","0","0","0","dropper","0","4317","1","White_Screen.jpg","3","168","Dropper.jpg","3"
"022420","14:58:20","36","36","5.0.14.0","2","131","trial1","naming","0","0","0","0","tray","0","2082","1","White_Screen.jpg","3","188","Tray_Cafeteria.jpg","3"
"022420","14:58:20","36","36","5.0.14.0","2","132","trial1","naming","0","0","0","0","trumpet","0","4419","1","White_Screen.jpg","3","105","SaxophoneSoprano.jpg","3"
"022420","14:58:20","36","36","5.0.14.0","2","133","trial1","naming","0","0","0","0","sunglasses","0","2524","1","White_Screen.jpg","2","98","Glasses_Sun.jpg","2"
"022420","14:58:20","36","36","5.0.14.0","2","134","trial1","naming","0","0","0","0","box","0","2148","1","White_Screen.jpg","2","182","Box_Package.jpg","2"
"022420","14:58:20","36","36","5.0.14.0","2","135","trial1","naming","0","0","0","0","green beans","0","3806","1","White_Screen.jpg","3","159","StringBean.jpg","3"
"022420","14:58:20","36","36","5.0.14.0","2","136","trial1","naming","0","0","0","0","paperclip","0","6177","1","White_Screen.jpg","2","157","Clip_Paper.jpg","2"
"022420","14:58:20","36","36","5.0.14.0","2","137","trial1","naming","0","0","0","0","scarecrow","0","3575","1","White_Screen.jpg","2","47","Scarecrow.jpg","2"
"022420","14:58:20","36","36","5.0.14.0","2","138","trial1","naming","0","0","0","0","Queen cards","0","5740","1","White_Screen.jpg","3","191","Card_QueenSpade.jpg","3"
"022420","14:58:20","36","36","5.0.14.0","2","139","trial1","naming","0","0","0","0","blocks","0","2240","1","White_Screen.jpg","2","161","Toy_BlocksWoodenPlain.jpg","2"
"022420","14:58:20","36","36","5.0.14.0","2","140","trial1","naming","0","0","0","0","toy truck","0","3013","1","White_Screen.jpg","2","183","Toy_Truck.jpg","2"
"022420","14:58:20","36","36","5.0.14.0","2","141","trial1","naming","0","0","0","0","thermometer","0","3764","1","White_Screen.jpg","3","127","MeterElectric.jpg","3"
"022420","14:58:20","36","36","5.0.14.0","2","142","trial1","naming","0","0","0","0","wooden wagon","0","3886","1","White_Screen.jpg","2","123","Cart_Wooden.jpg","2"
"022420","14:58:20","36","36","5.0.14.0","2","143","trial1","naming","0","0","0","0","turtle","0","2195","1","White_Screen.jpg","2","79","Turtle.jpg","2"
"022420","14:58:20","36","36","5.0.14.0","2","144","trial1","naming","0","0","0","0","humidifier","0","4458","1","White_Screen.jpg","3","59","Heater_ElectricUpright.jpg","3"
"022420","14:58:20","36","36","5.0.14.0","2","145","trial1","naming","0","0","0","0","ceiling fan","0","2553","1","White_Screen.jpg","3","166","Fan_Ceiling.jpg","3"
"022420","14:58:20","36","36","5.0.14.0","2","146","trial1","naming","0","0","0","0","barrel","0","2188","1","White_Screen.jpg","3","178","Barrel_Wine.jpg","3"
"022420","14:58:20","36","36","5.0.14.0","2","147","trial1","naming","0","0","0","0","desk","0","2929","1","White_Screen.jpg","3","7","Nightstand.jpg","3"
"022420","14:58:20","36","36","5.0.14.0","2","148","trial1","naming","0","0","0","0","fan","0","1940","1","White_Screen.jpg","4","88","Fan_Straw.jpg","4"
"022420","14:58:20","36","36","5.0.14.0","2","149","trial1","naming","0","0","0","0","journal","0","2937","1","White_Screen.jpg","4","6","Folder_Plastic.jpg","4"
"022420","14:58:20","36","36","5.0.14.0","2","150","trial1","naming","0","0","0","0","ice cream","0","2420","1","White_Screen.jpg","3","51","SundaeBanana.jpg","3"
"022420","14:58:20","36","36","5.0.14.0","2","151","trial1","naming","0","0","0","0","blanket","0","3168","1","White_Screen.jpg","3","26","Cast.jpg","3"
"022420","14:58:20","36","36","5.0.14.0","2","152","trial1","naming","0","0","0","0","marlin","0","2252","1","White_Screen.jpg","3","23","Fish_Swordfish.jpg","3"
"022420","14:58:20","36","36","5.0.14.0","2","154","trial1","naming","0","0","0","0","hut","0","1886","1","White_Screen.jpg","3","66","Gazebo.jpg","3"
"022420","14:58:20","36","36","5.0.14.0","2","155","trial1","naming","0","0","0","0","match","0","5236","1","White_Screen.jpg","4","185","Match.jpg","4"
"022420","14:58:20","36","36","5.0.14.0","2","156","trial1","naming","0","0","0","0","wooden temple","0","5078","1","White_Screen.jpg","3","99","PagodaModel.jpg","3"
"022420","14:58:20","36","36","5.0.14.0","2","157","trial1","naming","0","0","0","0","rock","0","2085","1","White_Screen.jpg","2","21","PumiceStone.jpg","2"
"022420","14:58:20","36","36","5.0.14.0","2","158","trial1","naming","0","0","0","0","seal","0","2318","1","White_Screen.jpg","3","186","Seal_Toy.jpg","3"
"022420","14:58:20","36","36","5.0.14.0","2","159","trial1","naming","0","0","0","0","toy dogs","0","5348","1","White_Screen.jpg","5","122","DogSled.jpg","5"
"022420","14:58:20","36","36","5.0.14.0","2","160","trial1","naming","0","0","0","0","pen","0","2614","1","White_Screen.jpg","3","27","Pen_Calligraphy.jpg","3"
"022420","14:58:20","36","36","5.0.14.0","2","161","trial1","naming","0","0","0","0","fencing mask","0","4203","1","White_Screen.jpg","2","104","Fencing_HelmetSwords.jpg","2"
"022420","14:58:20","36","36","5.0.14.0","2","162","trial1","naming","0","0","0","0","hula necklace","0","5761","1","White_Screen.jpg","3","50","Lei.jpg","3"
"022420","14:58:20","36","36","5.0.14.0","2","163","trial1","naming","0","0","0","0","firefighter outfit","0","4296","1","White_Screen.jpg","3","106","Pants_Firefighter.jpg","3"
"022420","14:58:20","36","36","5.0.14.0","2","164","trial1","naming","0","0","0","0","chair","0","2140","1","White_Screen.jpg","5","117","Chair_Deck.jpg","5"
"022420","14:58:20","36","36","5.0.14.0","2","165","trial1","naming","0","0","0","0","marshall hat","0","2735","1","White_Screen.jpg","3","19","Hat_Sheriff.jpg","3"
"022420","14:58:20","36","36","5.0.14.0","2","166","trial1","naming","0","0","0","0","graduate cap","0","2995","1","White_Screen.jpg","2","109","CapGraduation.jpg","2"
"022420","14:58:20","36","36","5.0.14.0","2","167","trial1","naming","0","0","0","0","walkie talkie","0","2840","1","White_Screen.jpg","2","18","WalkieTalkie_Red.jpg","2"
"022420","14:58:20","36","36","5.0.14.0","2","168","trial1","naming","0","0","0","0","folding rack","0","4492","1","White_Screen.jpg","3","54","DryRack_Clothes.jpg","3"
"022420","14:58:20","36","36","5.0.14.0","2","169","trial1","naming","0","0","0","0","needle","0","2842","1","White_Screen.jpg","3","150","Syringe_Needle.jpg","3"
"022420","14:58:20","36","36","5.0.14.0","2","170","trial1","naming","0","0","0","0","hedgehog","0","2549","1","White_Screen.jpg","2","200","Hedgehog.jpg","2"
"022420","14:58:20","36","36","5.0.14.0","2","171","trial1","naming","0","0","0","0","windchimes","0","2774","1","White_Screen.jpg","3","121","Chime.jpg","3"
"022420","14:58:20","36","36","5.0.14.0","2","172","trial1","naming","0","0","0","0","candy cane","0","2323","1","White_Screen.jpg","4","69","Candy_Cane.jpg","4"
"022420","14:58:20","36","36","5.0.14.0","2","173","trial1","naming","0","0","0","0","instrument","0","5476","1","White_Screen.jpg","3","25","CrepeMaker.jpg","3"
"022420","14:58:20","36","36","5.0.14.0","2","174","trial1","naming","0","0","0","0","pencil sharpener","0","3652","1","White_Screen.jpg","2","199","PencilSharpener.jpg","2"
"022420","14:58:20","36","36","5.0.14.0","2","175","trial1","naming","0","0","0","0","rice","0","1918","1","White_Screen.jpg","3","153","RiceRaw.jpg","3"
"022420","14:58:20","36","36","5.0.14.0","2","176","trial1","naming","0","0","0","0","stove cap","0","3121","1","White_Screen.jpg","2","101","DrainPlug.jpg","2"
"022420","14:58:20","36","36","5.0.14.0","2","177","trial1","naming","0","0","0","0","sugar","0","3263","1","White_Screen.jpg","2","118","Spoon_Sugar.jpg","2"
"022420","14:58:20","36","36","5.0.14.0","2","178","trial1","naming","0","0","0","0","red bag","0","3224","1","White_Screen.jpg","3","129","Pouch_Red.jpg","3"
"022420","14:58:20","36","36","5.0.14.0","2","179","trial1","naming","0","0","0","0","rolled up notes","0","5639","1","White_Screen.jpg","2","108","Blueprints.jpg","2"
"022420","14:58:20","36","36","5.0.14.0","2","180","trial1","naming","0","0","0","0","timer","0","5623","1","White_Screen.jpg","5","146","Hourglass.jpg","5"
"022420","14:58:20","36","36","5.0.14.0","2","181","trial1","naming","0","0","0","0","photograph","0","2876","1","White_Screen.jpg","5","151","Film_Single.jpg","5"
"022420","14:58:20","36","36","5.0.14.0","2","182","trial1","naming","0","0","0","0","football armor","0","3889","1","White_Screen.jpg","4","164","ShoulderPads.jpg","4"
"022420","14:58:20","36","36","5.0.14.0","2","183","trial1","naming","0","0","0","0","lamp post","0","2725","1","White_Screen.jpg","2","119","LampPost_OneBulb.jpg","2"
"022420","14:58:20","36","36","5.0.14.0","2","184","trial1","naming","0","0","0","0","tools","0","4586","1","White_Screen.jpg","3","147","Knife_Camping.jpg","3"
"022420","14:58:20","36","36","5.0.14.0","2","185","trial1","naming","0","0","0","0","beanie","0","2287","1","White_Screen.jpg","2","133","Hat_Beanie.jpg","2"
"022420","14:58:20","36","36","5.0.14.0","2","186","trial1","naming","0","0","0","0","money jar","0","2676","1","White_Screen.jpg","2","195","Jar_Money.jpg","2"
"022420","14:58:20","36","36","5.0.14.0","2","187","trial1","naming","0","0","0","0","cotton jar","0","2924","1","White_Screen.jpg","2","76","Jar_Cotton.jpg","2"
"022420","14:58:20","36","36","5.0.14.0","2","188","trial1","naming","0","0","0","0","temple arch","0","3204","1","White_Screen.jpg","3","15","Arch.jpg","3"
"022420","14:58:20","36","36","5.0.14.0","2","189","trial1","naming","0","0","0","0","bottle opener","0","3428","1","White_Screen.jpg","2","156","BottleOpener.jpg","2"
"022420","14:58:20","36","36","5.0.14.0","2","190","trial1","naming","0","0","0","0","moose head","0","3065","1","White_Screen.jpg","3","113","SkullDeer.jpg","3"
"022420","14:58:20","36","36","5.0.14.0","2","191","trial1","naming","0","0","0","0","toy dinosaur","0","3810","1","White_Screen.jpg","2","44","Toy_DinosaurTRex.jpg","2"
"022420","14:58:20","36","36","5.0.14.0","2","192","trial1","naming","0","0","0","0","crusher bowl","0","4739","1","White_Screen.jpg","2","158","MortarPestle_BlackStone.jpg","2"
"022420","14:58:20","36","36","5.0.14.0","2","193","trial1","naming","0","0","0","0","tissue box","0","2586","1","White_Screen.jpg","3","128","TissueBox.jpg","3"
"022420","14:58:20","36","36","5.0.14.0","2","194","trial1","naming","0","0","0","0","well","0","2114","1","White_Screen.jpg","2","112","WaterWell.jpg","2"
"022420","14:58:20","36","36","5.0.14.0","2","195","trial1","naming","0","0","0","0","tray","0","2209","1","White_Screen.jpg","2","68","BakingDish.jpg","2"
"022420","14:58:20","36","36","5.0.14.0","2","196","trial1","naming","0","0","0","0","crab","0","1806","1","White_Screen.jpg","2","5","Crab.jpg","2"
"022420","14:58:20","36","36","5.0.14.0","2","197","trial1","naming","0","0","0","0","walkie talkie","0","2856","1","White_Screen.jpg","3","71","WalkieTalkie_Yellow.jpg","3"
"022420","14:58:20","36","36","5.0.14.0","2","198","trial1","naming","0","0","0","0","bulletin board","0","3313","1","White_Screen.jpg","4","3","Corkboard.jpg","4"
"022420","14:58:20","36","36","5.0.14.0","2","199","trial1","naming","0","0","0","0","bathroom sign","0","3889","1","White_Screen.jpg","3","72","Sign_Washroom.jpg","3"
"022420","14:58:20","36","36","5.0.14.0","2","200","trial1","naming","0","0","0","0","organizer box","0","3259","1","White_Screen.jpg","3","130","Box_Wine.jpg","3"
"022420","14:58:20","36","36","5.0.14.0","2","201","trial1","naming","0","0","0","0","hippo","0","2717","1","White_Screen.jpg","2","179","Hippopotamus.jpg","2"
"022420","14:58:20","36","36","5.0.14.0","2","202","trial1","naming","0","0","0","0","basket","0","4339","1","White_Screen.jpg","2","30","Crib_Basket.jpg","2"
"022420","14:58:20","36","36","5.0.14.0","2","203","trial1","naming","0","0","0","0","hat","0","1844","1","White_Screen.jpg","4","103","Hat_Explorer.jpg","4"
"022420","14:58:20","36","36","5.0.14.0","3","1","demographics_block","gender","0","0","0","0","Male","1","5974","0","0","0","0","0","0"
"022420","14:58:20","36","36","5.0.14.0","3","1","demographics_block","age","0","0","0","0","29","1","5974","0","0","0","0","0","0"
"022420","14:58:20","36","36","5.0.14.0","3","1","demographics_block","education","0","0","0","0","Associates","1","5974","0","0","0","0","0","0"
"022420","14:58:20","36","36","5.0.14.0","3","2","demographics_block","left_right_handed","0","0","0","0","Right","1","4078","0","0","0","0","0","0"
"022420","14:58:20","36","36","5.0.14.0","3","2","demographics_block","raceoption1","0","0","0","0","0","1","4078","0","0","0","0","0","0"
"022420","14:58:20","36","36","5.0.14.0","3","2","demographics_block","raceoption2","0","0","0","0","","1","4078","0","0","0","0","0","0"
"022420","14:58:20","36","36","5.0.14.0","3","2","demographics_block","raceoption3","0","0","0","0","","1","4078","0","0","0","0","0","0"
"022420","14:58:20","36","36","5.0.14.0","3","2","demographics_block","raceoption4","0","0","0","0","","1","4078","0","0","0","0","0","0"
"022420","14:58:20","36","36","5.0.14.0","3","2","demographics_block","raceoption5","0","0","0","0","","1","4078","0","0","0","0","0","0"
"022420","14:58:20","36","36","5.0.14.0","3","2","demographics_block","raceoption6","0","0","0","0","","1","4078","0","0","0","0","0","0"
"022420","14:58:20","36","36","5.0.14.0","3","2","demographics_block","raceoption7","0","0","0","0","","1","4078","0","0","0","0","0","0"
"022420","14:58:20","36","36","5.0.14.0","3","2","demographics_block","raceoption8","0","0","0","0","","1","4078","0","0","0","0","0","0"
"022420","14:58:20","36","36","5.0.14.0","3","2","demographics_block","raceoption9","0","0","0","0","","1","4078","0","0","0","0","0","0"
"022420","14:58:20","36","36","5.0.14.0","3","2","demographics_block","raceother","0","0","0","0","","1","4078","0","0","0","0","0","0"
"022420","14:58:20","36","36","5.0.14.0","3","2","demographics_block","raceother","0","0","0","0","","1","4078","0","0","0","0","0","0"
"022420","14:58:20","36","36","5.0.14.0","3","2","demographics_block","english_language","0","0","0","0","Yes","1","4078","0","0","0","0","0","0"
"022420","14:58:20","36","36","5.0.14.0","3","2","demographics_block","english_languageother","0","0","0","0","","1","4078","0","0","0","0","0","0"
"022420","14:58:20","36","36","5.0.14.0","3","3","demographics_block","eyesight","0","0","0","0","Yes","1","4037","0","0","0","0","0","0"
"022420","14:58:20","36","36","5.0.14.0","3","3","demographics_block","colorblind","0","0","0","0","No","1","4037","0","0","0","0","0","0"
"022420","14:58:20","36","36","5.0.14.0","4","1","worker_id_block","worker_id_textbox","0","0","0","0","A2541C8MY0BYV3","1","2522","0","0","0","0","0","0"
"022420","14:06:45","38","38","5.0.14.0","2","1","trial1","naming","0","0","0","0","STARFISH","0","10000","1","White_Screen.jpg","289","48","Starfish.jpg","289"
"022420","14:06:45","38","38","5.0.14.0","2","2","trial1","naming","0","0","0","0","SHOPPING CART","0","4005","1","White_Screen.jpg","23","56","Cart_Groceries.jpg","23"
"022420","14:06:45","38","38","5.0.14.0","2","3","trial1","naming","0","0","0","0","SWISS ARMY KNIFE","0","4677","1","White_Screen.jpg","14","147","Knife_Camping.jpg","14"
"022420","14:06:45","38","38","5.0.14.0","2","4","trial1","naming","0","0","0","0","BEACH CHAIR","0","4011","1","White_Screen.jpg","14","117","Chair_Deck.jpg","14"
"022420","14:06:45","38","38","5.0.14.0","2","5","trial1","naming","0","0","0","0","SKULL","0","3919","1","White_Screen.jpg","13","113","SkullDeer.jpg","13"
"022420","14:06:45","38","38","5.0.14.0","2","6","trial1","naming","0","0","0","0","BONE","0","3175","1","White_Screen.jpg","18","4","DogTreat.jpg","18"
"022420","14:06:45","38","38","5.0.14.0","2","7","trial1","naming","0","0","0","0","ADAPTER","0","3530","1","White_Screen.jpg","18","13","HDMIConnector.jpg","18"
"022420","14:06:45","38","38","5.0.14.0","2","8","trial1","naming","0","0","0","0","LOCK","0","2868","1","White_Screen.jpg","14","93","DoorBolt.jpg","14"
"022420","14:06:45","38","38","5.0.14.0","2","9","trial1","naming","0","0","0","0","SCALE","0","3890","1","White_Screen.jpg","14","144","ScaleWeighing.jpg","14"
"022420","14:06:45","38","38","5.0.14.0","2","10","trial1","naming","0","0","0","0","WINEBOX","0","4411","1","White_Screen.jpg","14","130","Box_Wine.jpg","14"
"022420","14:06:45","38","38","5.0.14.0","2","11","trial1","naming","0","0","0","0","EYEDROPPER","0","3935","1","White_Screen.jpg","19","168","Dropper.jpg","19"
"022420","14:06:45","38","38","5.0.14.0","2","12","trial1","naming","0","0","0","0","CORKSCREW","0","3360","1","White_Screen.jpg","14","135","Corkscrew.jpg","14"
"022420","14:06:45","38","38","5.0.14.0","2","13","trial1","naming","0","0","0","0","SAXAPHONE","0","6082","1","White_Screen.jpg","19","105","SaxophoneSoprano.jpg","19"
"022420","14:06:45","38","38","5.0.14.0","2","14","trial1","naming","0","0","0","0","PLANE","0","2797","1","White_Screen.jpg","14","53","Airplane_Small.jpg","14"
"022420","14:06:45","38","38","5.0.14.0","2","15","trial1","naming","0","0","0","0","DUSTPAN","0","2831","1","White_Screen.jpg","15","116","DustPan.jpg","15"
"022420","14:06:45","38","38","5.0.14.0","2","16","trial1","naming","0","0","0","0","RADIO","0","2814","1","White_Screen.jpg","13","114","Walkman.jpg","13"
"022420","14:06:45","38","38","5.0.14.0","2","17","trial1","naming","0","0","0","0","PEPPER","0","5197","1","White_Screen.jpg","15","81","Pepper_Chili.jpg","15"
"022420","14:06:45","38","38","5.0.14.0","2","18","trial1","naming","0","0","0","0","SPONGE","0","3255","1","White_Screen.jpg","15","29","SpongeScrubbing.jpg","15"
"022420","14:06:45","38","38","5.0.14.0","2","19","trial1","naming","0","0","0","0","BUCKLE","0","2974","1","White_Screen.jpg","15","143","SeatBuckle.jpg","15"
"022420","14:06:45","38","38","5.0.14.0","2","20","trial1","naming","0","0","0","0","CHINESE TEMPLE","0","5504","1","White_Screen.jpg","21","99","PagodaModel.jpg","21"
"022420","14:06:45","38","38","5.0.14.0","2","21","trial1","naming","0","0","0","0","PIG","0","2583","1","White_Screen.jpg","19","95","Pig.jpg","19"
"022420","14:06:45","38","38","5.0.14.0","2","22","trial1","naming","0","0","0","0","SLUSHIE MACHINE","0","4128","1","White_Screen.jpg","19","16","SlushieMachine.jpg","19"
"022420","14:06:45","38","38","5.0.14.0","2","23","trial1","naming","0","0","0","0","BALL","0","2821","1","White_Screen.jpg","14","187","Ball_Squashball.jpg","14"
"022420","14:06:45","38","38","5.0.14.0","2","24","trial1","naming","0","0","0","0","PEAR","0","3215","1","White_Screen.jpg","14","31","Pear_Green.jpg","14"
"022420","14:06:45","38","38","5.0.14.0","2","25","trial1","naming","0","0","0","0","SKIRT","0","2693","1","White_Screen.jpg","14","148","Skirt_Stripes.jpg","14"
"022420","14:06:45","38","38","5.0.14.0","2","26","trial1","naming","0","0","0","0","PLAY","0","10000","1","White_Screen.jpg","19","83","Playground.jpg","19"
"022420","14:06:45","38","38","5.0.14.0","2","27","trial1","naming","0","0","0","0","CHANGE PURSE","0","6938","1","White_Screen.jpg","14","129","Pouch_Red.jpg","14"
"022420","14:06:45","38","38","5.0.14.0","2","28","trial1","naming","0","0","0","0","HAMMOCK","0","3558","1","White_Screen.jpg","14","57","Hammock.jpg","14"
"022420","14:06:45","38","38","5.0.14.0","2","29","trial1","naming","0","0","0","0","NOZZLE","0","4662","1","White_Screen.jpg","18","73","Fuse.jpg","18"
"022420","14:06:45","38","38","5.0.14.0","2","30","trial1","naming","0","0","0","0","CAR","0","3774","1","White_Screen.jpg","14","24","Car_Totalled.jpg","14"
"022420","14:06:45","38","38","5.0.14.0","2","31","trial1","naming","0","0","0","0","HEDGEHOG","0","4111","1","White_Screen.jpg","14","200","Hedgehog.jpg","14"
"022420","14:06:45","38","38","5.0.14.0","2","32","trial1","naming","0","0","0","0","TRIPOD","0","5896","1","White_Screen.jpg","21","36","Tripod.jpg","21"
"022420","14:06:45","38","38","5.0.14.0","2","33","trial1","naming","0","0","0","0","JAR","0","4388","1","White_Screen.jpg","19","195","Jar_Money.jpg","19"
"022420","14:06:45","38","38","5.0.14.0","2","34","trial1","naming","0","0","0","0","BINDER","0","4614","1","White_Screen.jpg","15","6","Folder_Plastic.jpg","15"
"022420","14:06:45","38","38","5.0.14.0","2","35","trial1","naming","0","0","0","0","STAMP","0","3544","1","White_Screen.jpg","19","181","StampAndSeal.jpg","19"
"022420","14:06:45","38","38","5.0.14.0","2","36","trial1","naming","0","0","0","0","CLOG","0","3530","1","White_Screen.jpg","22","40","Shoes_DutchClogs.jpg","22"
"022420","14:06:45","38","38","5.0.14.0","2","37","trial1","naming","0","0","0","0","GLASS","0","5648","1","White_Screen.jpg","14","42","Glass_Cup.jpg","14"
"022420","14:06:45","38","38","5.0.14.0","2","38","trial1","naming","0","0","0","0","REVOLVER","0","4071","1","White_Screen.jpg","20","86","Gun_Revolver.jpg","20"
"022420","14:06:45","38","38","5.0.14.0","2","39","trial1","naming","0","0","0","0","NIGHTSTAND","0","3797","1","White_Screen.jpg","22","7","Nightstand.jpg","22"
"022420","14:06:45","38","38","5.0.14.0","2","40","trial1","naming","0","0","0","0","WALKIETALKIE","0","7236","1","White_Screen.jpg","14","71","WalkieTalkie_Yellow.jpg","14"
"022420","14:06:45","38","38","5.0.14.0","2","41","trial1","naming","0","0","0","0","CHEESE","0","7358","1","White_Screen.jpg","22","12","Tofu.jpg","22"
"022420","14:06:45","38","38","5.0.14.0","2","42","trial1","naming","0","0","0","0","ARTICHOKE","0","4215","1","White_Screen.jpg","14","49","Artichoke.jpg","14"
"022420","14:06:45","38","38","5.0.14.0","2","43","trial1","naming","0","0","0","0","JEWELRYBOX","0","4146","1","White_Screen.jpg","14","154","Box_JeweleryWooden.jpg","14"
"022420","14:06:45","38","38","5.0.14.0","2","44","trial1","naming","0","0","0","0","DRYING RACK","0","4529","1","White_Screen.jpg","22","54","DryRack_Clothes.jpg","22"
"022420","14:06:45","38","38","5.0.14.0","2","45","trial1","naming","0","0","0","0","MASK","0","2787","1","White_Screen.jpg","19","52","Mask_African.jpg","19"
"022420","14:06:45","38","38","5.0.14.0","2","46","trial1","naming","0","0","0","0","MATCH","0","4625","1","White_Screen.jpg","19","185","Match.jpg","19"
"022420","14:06:45","38","38","5.0.14.0","2","47","trial1","naming","0","0","0","0","ARCH","0","3003","1","White_Screen.jpg","20","15","Arch.jpg","20"
"022420","14:06:45","38","38","5.0.14.0","2","48","trial1","naming","0","0","0","0","PUTTER","0","6815","1","White_Screen.jpg","19","180","Golf_Club.jpg","19"
"022420","14:06:45","38","38","5.0.14.0","2","49","trial1","naming","0","0","0","0","BONGO","0","3306","1","White_Screen.jpg","15","102","Drum_Tall.jpg","15"
"022420","14:06:45","38","38","5.0.14.0","2","50","trial1","naming","0","0","0","0","SEAL","0","3280","1","White_Screen.jpg","25","186","Seal_Toy.jpg","25"
"022420","14:06:45","38","38","5.0.14.0","2","52","trial1","naming","0","0","0","0","HOUSE","0","3482","1","White_Screen.jpg","22","165","House_Doll.jpg","22"
"022420","14:06:45","38","38","5.0.14.0","2","53","trial1","naming","0","0","0","0","FAN","0","4328","1","White_Screen.jpg","23","166","Fan_Ceiling.jpg","23"
"022420","14:06:45","38","38","5.0.14.0","2","54","trial1","naming","0","0","0","0","ROTOTILLER","0","5015","1","White_Screen.jpg","17","70","Seeder.jpg","17"
"022420","14:06:45","38","38","5.0.14.0","2","55","trial1","naming","0","0","0","0","SUNGLASSES","0","5797","1","White_Screen.jpg","13","98","Glasses_Sun.jpg","13"
"022420","14:06:45","38","38","5.0.14.0","2","56","trial1","naming","0","0","0","0","WHEAT","0","4621","1","White_Screen.jpg","21","197","Bag_Grains.jpg","21"
"022420","14:06:45","38","38","5.0.14.0","2","57","trial1","naming","0","0","0","0","BOTTLEOPENER","0","5590","1","White_Screen.jpg","22","156","BottleOpener.jpg","22"
"022420","14:06:45","38","38","5.0.14.0","2","58","trial1","naming","0","0","0","0","CARSEAT","0","3080","1","White_Screen.jpg","27","89","CarSeat.jpg","27"
"022420","14:06:45","38","38","5.0.14.0","2","59","trial1","naming","0","0","0","0","CRAB","0","4817","1","White_Screen.jpg","18","5","Crab.jpg","18"
"022420","14:06:45","38","38","5.0.14.0","2","60","trial1","naming","0","0","0","0","CARAMEL","0","3327","1","White_Screen.jpg","18","43","Candy_Toffee.jpg","18"
"022420","14:06:45","38","38","5.0.14.0","2","61","trial1","naming","0","0","0","0","HAT","0","5011","1","White_Screen.jpg","22","171","Origami_Boat.jpg","22"
"022420","14:06:45","38","38","5.0.14.0","2","62","trial1","naming","0","0","0","0","ATHLETE","0","7155","1","White_Screen.jpg","14","136","PlayerFootball.jpg","14"
"022420","14:06:45","38","38","5.0.14.0","2","63","trial1","naming","0","0","0","0","CHANGE","0","2906","1","White_Screen.jpg","25","172","CoinRolls.jpg","25"
"022420","14:06:45","38","38","5.0.14.0","2","64","trial1","naming","0","0","0","0","SLIDE","0","3940","1","White_Screen.jpg","22","94","Toy_Slide.jpg","22"
"022420","14:06:45","38","38","5.0.14.0","2","65","trial1","naming","0","0","0","0","SUCKER","0","2843","1","White_Screen.jpg","20","198","Lollipop_Rainbow.jpg","20"
"022420","14:06:45","38","38","5.0.14.0","2","66","trial1","naming","0","0","0","0","PHONE BOOTH","0","3464","1","White_Screen.jpg","33","37","Telephone_Booth.jpg","33"
"022420","14:06:45","38","38","5.0.14.0","2","67","trial1","naming","0","0","0","0","HAMMERHEAD","0","3517","1","White_Screen.jpg","22","140","Shark_Hammerhead.jpg","22"
"022420","14:06:45","38","38","5.0.14.0","2","68","trial1","naming","0","0","0","0","KLEENEX","0","3981","1","White_Screen.jpg","21","128","TissueBox.jpg","21"
"022420","14:06:45","38","38","5.0.14.0","2","69","trial1","naming","0","0","0","0","SWORDFISH","0","3436","1","White_Screen.jpg","15","23","Fish_Swordfish.jpg","15"
"022420","14:06:45","38","38","5.0.14.0","2","70","trial1","naming","0","0","0","0","PEN","0","4626","1","White_Screen.jpg","15","27","Pen_Calligraphy.jpg","15"
"022420","14:06:45","38","38","5.0.14.0","2","71","trial1","naming","0","0","0","0","FILM","0","2995","1","White_Screen.jpg","23","151","Film_Single.jpg","23"
"022420","14:06:45","38","38","5.0.14.0","2","72","trial1","naming","0","0","0","0","CLOUD","0","2761","1","White_Screen.jpg","23","149","Cloud.jpg","23"
"022420","14:06:45","38","38","5.0.14.0","2","73","trial1","naming","0","0","0","0","HUT","0","6932","1","White_Screen.jpg","23","66","Gazebo.jpg","23"
"022420","14:06:45","38","38","5.0.14.0","2","74","trial1","naming","0","0","0","0","CHAMPAGNE","0","6010","1","White_Screen.jpg","18","38","Bottle_Champagne.jpg","18"
"022420","14:06:45","38","38","5.0.14.0","2","75","trial1","naming","0","0","0","0","HIPPO","0","3199","1","White_Screen.jpg","22","179","Hippopotamus.jpg","22"
"022420","14:06:45","38","38","5.0.14.0","2","76","trial1","naming","0","0","0","0","PAPER","0","3905","1","White_Screen.jpg","26","108","Blueprints.jpg","26"
"022420","14:06:45","38","38","5.0.14.0","2","77","trial1","naming","0","0","0","0","STREETLAMP","0","3775","1","White_Screen.jpg","15","119","LampPost_OneBulb.jpg","15"
"022420","14:06:45","38","38","5.0.14.0","2","78","trial1","naming","0","0","0","0","HOE","0","4386","1","White_Screen.jpg","19","145","HandRake.jpg","19"
"022420","14:06:45","38","38","5.0.14.0","2","79","trial1","naming","0","0","0","0","HOUSE","0","2732","1","White_Screen.jpg","19","77","House_Wooden.jpg","19"
"022420","14:06:45","38","38","5.0.14.0","2","80","trial1","naming","0","0","0","0","MEASURING GLASS","0","5021","1","White_Screen.jpg","17","131","MixingGlass.jpg","17"
"022420","14:06:45","38","38","5.0.14.0","2","81","trial1","naming","0","0","0","0","MOTARBOARD","0","5537","1","White_Screen.jpg","18","109","CapGraduation.jpg","18"
"022420","14:06:45","38","38","5.0.14.0","2","82","trial1","naming","0","0","0","0","WOK","0","5063","1","White_Screen.jpg","14","25","CrepeMaker.jpg","14"
"022420","14:06:45","38","38","5.0.14.0","2","83","trial1","naming","0","0","0","0","FIRSTAID KIT","0","3975","1","White_Screen.jpg","19","193","Box_FirstAid.jpg","19"
"022420","14:06:45","38","38","5.0.14.0","2","84","trial1","naming","0","0","0","0","HANDLE","0","3685","1","White_Screen.jpg","19","87","DoorHandle.jpg","19"
"022420","14:06:45","38","38","5.0.14.0","2","85","trial1","naming","0","0","0","0","SCARECROW","0","4123","1","White_Screen.jpg","15","47","Scarecrow.jpg","15"
"022420","14:06:45","38","38","5.0.14.0","2","86","trial1","naming","0","0","0","0","MAGAZINE","0","4313","1","White_Screen.jpg","20","55","MagazineRoll.jpg","20"
"022420","14:06:45","38","38","5.0.14.0","2","87","trial1","naming","0","0","0","0","SIGN","0","2961","1","White_Screen.jpg","19","72","Sign_Washroom.jpg","19"
"022420","14:06:45","38","38","5.0.14.0","2","88","trial1","naming","0","0","0","0","PAPERCLIP","0","4583","1","White_Screen.jpg","22","157","Clip_Paper.jpg","22"
"022420","14:06:45","38","38","5.0.14.0","2","89","trial1","naming","0","0","0","0","PENCILSHARPENER","0","4929","1","White_Screen.jpg","13","199","PencilSharpener.jpg","13"
"022420","14:06:45","38","38","5.0.14.0","2","90","trial1","naming","0","0","0","0","SNAKE","0","3059","1","White_Screen.jpg","22","58","Snake_Cobra.jpg","22"
"022420","14:06:45","38","38","5.0.14.0","2","91","trial1","naming","0","0","0","0","CANDYCANE","0","4157","1","White_Screen.jpg","15","69","Candy_Cane.jpg","15"
"022420","14:06:45","38","38","5.0.14.0","2","92","trial1","naming","0","0","0","0","ATTACHMENT","0","3373","1","White_Screen.jpg","14","167","VacuumHose.jpg","14"
"022420","14:06:45","38","38","5.0.14.0","2","93","trial1","naming","0","0","0","0","SYRINGE","0","3990","1","White_Screen.jpg","20","150","Syringe_Needle.jpg","20"
"022420","14:06:45","38","38","5.0.14.0","2","94","trial1","naming","0","0","0","0","TRAY","0","3388","1","White_Screen.jpg","14","188","Tray_Cafeteria.jpg","14"
"022420","14:06:45","38","38","5.0.14.0","2","95","trial1","naming","0","0","0","0","HEATING PACK","0","5606","1","White_Screen.jpg","15","124","HotWaterBottle.jpg","15"
"022420","14:06:45","38","38","5.0.14.0","2","96","trial1","naming","0","0","0","0","HARD DISK","0","4587","1","White_Screen.jpg","13","82","FloppyDisk.jpg","13"
"022420","14:06:45","38","38","5.0.14.0","2","97","trial1","naming","0","0","0","0","STATUE","0","3046","1","White_Screen.jpg","15","163","Statue_ManHorse.jpg","15"
"022420","14:06:45","38","38","5.0.14.0","2","98","trial1","naming","0","0","0","0","TUBA","0","4862","1","White_Screen.jpg","14","62","Horn_French.jpg","14"
"022420","14:06:45","38","38","5.0.14.0","2","99","trial1","naming","0","0","0","0","BASSINET","0","3312","1","White_Screen.jpg","14","30","Crib_Basket.jpg","14"
"022420","14:06:45","38","38","5.0.14.0","2","100","trial1","naming","0","0","0","0","REPLICA","0","6647","1","White_Screen.jpg","18","10","TeethModel.jpg","18"
"022420","14:06:45","38","38","5.0.14.0","2","101","trial1","naming","0","0","0","0","DRAINER","0","2864","1","White_Screen.jpg","15","101","DrainPlug.jpg","15"
"022420","14:06:45","38","38","5.0.14.0","2","103","trial1","naming","0","0","0","0","BAT","0","2364","1","White_Screen.jpg","10","97","Toy_Bat.jpg","10"
"022420","14:06:45","38","38","5.0.14.0","2","104","trial1","naming","0","0","0","0","LAI","0","3267","1","White_Screen.jpg","15","50","Lei.jpg","15"
"022420","14:06:45","38","38","5.0.14.0","2","105","trial1","naming","0","0","0","0","FENCING OUTFIT","0","4220","1","White_Screen.jpg","13","104","Fencing_HelmetSwords.jpg","13"
"022420","14:06:45","38","38","5.0.14.0","2","106","trial1","naming","0","0","0","0","LOCK","0","3454","1","White_Screen.jpg","13","196","Lock_Door.jpg","13"
"022420","14:06:45","38","38","5.0.14.0","2","107","trial1","naming","0","0","0","0","OVERALLS","0","3689","1","White_Screen.jpg","18","106","Pants_Firefighter.jpg","18"
"022420","14:06:45","38","38","5.0.14.0","2","108","trial1","naming","0","0","0","0","PLATE","0","3241","1","White_Screen.jpg","19","125","Bowl_Chopsticks.jpg","19"
"022420","14:06:45","38","38","5.0.14.0","2","109","trial1","naming","0","0","0","0","PHONE","0","2861","1","White_Screen.jpg","23","132","Telephone_Dial.jpg","23"
"022420","14:06:45","38","38","5.0.14.0","2","110","trial1","naming","0","0","0","0","SHELL","0","2833","1","White_Screen.jpg","14","177","Snail.jpg","14"
"022420","14:06:45","38","38","5.0.14.0","2","111","trial1","naming","0","0","0","0","SNAPPEA","0","3771","1","White_Screen.jpg","14","159","StringBean.jpg","14"
"022420","14:06:45","38","38","5.0.14.0","2","112","trial1","naming","0","0","0","0","CARDS","0","2713","1","White_Screen.jpg","14","191","Card_QueenSpade.jpg","14"
"022420","14:06:45","38","38","5.0.14.0","2","113","trial1","naming","0","0","0","0","STUFFED ANIMAL","0","4014","1","White_Screen.jpg","26","41","Toy_Dog.jpg","26"
"022420","14:06:45","38","38","5.0.14.0","2","114","trial1","naming","0","0","0","0","DINOSAUR","0","4250","1","White_Screen.jpg","22","44","Toy_DinosaurTRex.jpg","22"
"022420","14:06:45","38","38","5.0.14.0","2","115","trial1","naming","0","0","0","0","CHIME","0","3892","1","White_Screen.jpg","14","121","Chime.jpg","14"
"022420","14:06:45","38","38","5.0.14.0","2","116","trial1","naming","0","0","0","0","FLUID","0","4493","1","White_Screen.jpg","14","110","WindshieldWasherFluid.jpg","14"
"022420","14:06:45","38","38","5.0.14.0","2","117","trial1","naming","0","0","0","0","DVD","0","3308","1","White_Screen.jpg","21","9","Case_DVD.jpg","21"
"022420","14:06:45","38","38","5.0.14.0","2","118","trial1","naming","0","0","0","0","STAPES","0","3568","1","White_Screen.jpg","19","162","Box_Staples.jpg","19"
"022420","14:06:45","38","38","5.0.14.0","2","119","trial1","naming","0","0","0","0","SLED","0","4077","1","White_Screen.jpg","15","122","DogSled.jpg","15"
"022420","14:06:45","38","38","5.0.14.0","2","120","trial1","naming","0","0","0","0","PARKING SIGN","0","4820","1","White_Screen.jpg","19","175","Sign_NoParking.jpg","19"
"022420","14:06:45","38","38","5.0.14.0","2","121","trial1","naming","0","0","0","0","PICKUP","0","3165","1","White_Screen.jpg","18","84","Truck_Pickup.jpg","18"
"022420","14:06:45","38","38","5.0.14.0","2","122","trial1","naming","0","0","0","0","PLIERS","0","3588","1","White_Screen.jpg","19","20","Pliers_ViceGrip.jpg","19"
"022420","14:06:45","38","38","5.0.14.0","2","123","trial1","naming","0","0","0","0","BAKING DISH","0","3847","1","White_Screen.jpg","22","68","BakingDish.jpg","22"
"022420","14:06:45","38","38","5.0.14.0","2","124","trial1","naming","0","0","0","0","BATTLESHIP","0","7684","1","White_Screen.jpg","26","92","Ship_Battle.jpg","26"
"022420","14:06:45","38","38","5.0.14.0","2","125","trial1","naming","0","0","0","0","SPEAKER","0","8314","1","White_Screen.jpg","23","91","Radio_Antique.jpg","23"
"022420","14:06:45","38","38","5.0.14.0","2","126","trial1","naming","0","0","0","0","ICE CREAM SCOOP","0","4239","1","White_Screen.jpg","27","60","Scoop_IceCream.jpg","27"
"022420","14:06:45","38","38","5.0.14.0","2","127","trial1","naming","0","0","0","0","STEAMER","0","3326","1","White_Screen.jpg","21","65","Steam_Cleaner.jpg","21"
"022420","14:06:45","38","38","5.0.14.0","2","128","trial1","naming","0","0","0","0","JUG","0","3039","1","White_Screen.jpg","24","141","Jug_ClayAncient.jpg","24"
"022420","14:06:45","38","38","5.0.14.0","2","129","trial1","naming","0","0","0","0","ASHTRAY","0","3427","1","White_Screen.jpg","24","189","Ashtray_Empty.jpg","24"
"022420","14:06:45","38","38","5.0.14.0","2","130","trial1","naming","0","0","0","0","GUITAR","0","3033","1","White_Screen.jpg","22","152","Guitar_Electric.jpg","22"
"022420","14:06:45","38","38","5.0.14.0","2","131","trial1","naming","0","0","0","0","TRUCK","0","2908","1","White_Screen.jpg","19","183","Toy_Truck.jpg","19"
"022420","14:06:45","38","38","5.0.14.0","2","132","trial1","naming","0","0","0","0","EARRINGS","0","5176","1","White_Screen.jpg","18","107","Earrings_Dangling.jpg","18"
"022420","14:06:45","38","38","5.0.14.0","2","133","trial1","naming","0","0","0","0","TURTLE","0","3912","1","White_Screen.jpg","22","79","Turtle.jpg","22"
"022420","14:06:45","38","38","5.0.14.0","2","134","trial1","naming","0","0","0","0","HAT","0","2492","1","White_Screen.jpg","21","133","Hat_Beanie.jpg","21"
"022420","14:06:45","38","38","5.0.14.0","2","135","trial1","naming","0","0","0","0","METER","0","4572","1","White_Screen.jpg","14","127","MeterElectric.jpg","14"
"022420","14:06:45","38","38","5.0.14.0","2","136","trial1","naming","0","0","0","0","LIPS","0","3664","1","White_Screen.jpg","19","138","Lips_Wax.jpg","19"
"022420","14:06:45","38","38","5.0.14.0","2","137","trial1","naming","0","0","0","0","BOTTLE","0","5303","1","White_Screen.jpg","14","190","Bottle_Specimen.jpg","14"
"022420","14:06:45","38","38","5.0.14.0","2","138","trial1","naming","0","0","0","0","BAND","0","7193","1","White_Screen.jpg","14","174","Brace_Back.jpg","14"
"022420","14:06:45","38","38","5.0.14.0","2","139","trial1","naming","0","0","0","0","GUITAR","0","5041","1","White_Screen.jpg","22","35","Guitar_Acoustic.jpg","22"
"022420","14:06:45","38","38","5.0.14.0","2","140","trial1","naming","0","0","0","0","RICE","0","3410","1","White_Screen.jpg","14","153","RiceRaw.jpg","14"
"022420","14:06:45","38","38","5.0.14.0","2","141","trial1","naming","0","0","0","0","WATER","0","3825","1","White_Screen.jpg","21","96","WaterCooler.jpg","21"
"022420","14:06:45","38","38","5.0.14.0","2","142","trial1","naming","0","0","0","0","SHORTCAKE","0","3140","1","White_Screen.jpg","14","100","TartStrawberry.jpg","14"
"022420","14:06:45","38","38","5.0.14.0","2","143","trial1","naming","0","0","0","0","PICK","0","2797","1","White_Screen.jpg","22","1","Icepick.jpg","22"
"022420","14:06:45","38","38","5.0.14.0","2","144","trial1","naming","0","0","0","0","FAN","0","2327","1","White_Screen.jpg","14","88","Fan_Straw.jpg","14"
"022420","14:06:45","38","38","5.0.14.0","2","145","trial1","naming","0","0","0","0","BURNER","0","2820","1","White_Screen.jpg","24","78","Stovetop.jpg","24"
"022420","14:06:45","38","38","5.0.14.0","2","146","trial1","naming","0","0","0","0","MEGAPHONE","0","3127","1","White_Screen.jpg","14","17","Megaphone.jpg","14"
"022420","14:06:45","38","38","5.0.14.0","2","147","trial1","naming","0","0","0","0","SPONGE","0","2788","1","White_Screen.jpg","14","21","PumiceStone.jpg","14"
"022420","14:06:45","38","38","5.0.14.0","2","148","trial1","naming","0","0","0","0","HAT","0","2478","1","White_Screen.jpg","14","103","Hat_Explorer.jpg","14"
"022420","14:06:45","38","38","5.0.14.0","2","149","trial1","naming","0","0","0","0","PILLS","0","6440","1","White_Screen.jpg","22","46","PillBottle_Spilled.jpg","22"
"022420","14:06:45","38","38","5.0.14.0","2","150","trial1","naming","0","0","0","0","TOILER","0","3189","1","White_Screen.jpg","14","139","Toilet.jpg","14"
"022420","14:06:45","38","38","5.0.14.0","2","151","trial1","naming","0","0","0","0","PADDLE","0","3623","1","White_Screen.jpg","14","39","Spoon_Wooden.jpg","14"
"022420","14:06:45","38","38","5.0.14.0","2","152","trial1","naming","0","0","0","0","SPOON","0","4754","1","White_Screen.jpg","22","118","Spoon_Sugar.jpg","22"
"022420","14:06:45","38","38","5.0.14.0","2","154","trial1","naming","0","0","0","0","LIZARD","0","3285","1","White_Screen.jpg","17","28","Toy_Lizard.jpg","17"
"022420","14:06:45","38","38","5.0.14.0","2","155","trial1","naming","0","0","0","0","SKELETON","0","3352","1","White_Screen.jpg","25","45","HumanSkeleton.jpg","25"
"022420","14:06:45","38","38","5.0.14.0","2","156","trial1","naming","0","0","0","0","WAGON","0","2811","1","White_Screen.jpg","14","123","Cart_Wooden.jpg","14"
"022420","14:06:45","38","38","5.0.14.0","2","157","trial1","naming","0","0","0","0","WALKIETALKIE","0","3966","1","White_Screen.jpg","14","18","WalkieTalkie_Red.jpg","14"
"022420","14:06:45","38","38","5.0.14.0","2","158","trial1","naming","0","0","0","0","KEYBOARD","0","3737","1","White_Screen.jpg","26","170","ComputerKeyboard.jpg","26"
"022420","14:06:45","38","38","5.0.14.0","2","159","trial1","naming","0","0","0","0","CHIPS","0","6273","1","White_Screen.jpg","15","137","PokerChips.jpg","15"
"022420","14:06:45","38","38","5.0.14.0","2","160","trial1","naming","0","0","0","0","CHAIR","0","3091","1","White_Screen.jpg","20","184","Chair_Folding.jpg","20"
"022420","14:06:45","38","38","5.0.14.0","2","161","trial1","naming","0","0","0","0","TOMATO","0","7622","1","White_Screen.jpg","21","169","Tomato.jpg","21"
"022420","14:06:45","38","38","5.0.14.0","2","162","trial1","naming","0","0","0","0","BULLETIN BOARD","0","5852","1","White_Screen.jpg","19","3","Corkboard.jpg","19"
"022420","14:06:45","38","38","5.0.14.0","2","163","trial1","naming","0","0","0","0","","0","10000","1","White_Screen.jpg","19","74","Scrabble.jpg","19"
"022420","14:06:45","38","38","5.0.14.0","2","164","trial1","naming","0","0","0","0","NECK PILLOW","0","9114","1","White_Screen.jpg","14","8","Neckrest.jpg","14"
"022420","14:06:45","38","38","5.0.14.0","2","165","trial1","naming","0","0","0","0","PADS","0","5400","1","White_Screen.jpg","14","164","ShoulderPads.jpg","14"
"022420","14:06:45","38","38","5.0.14.0","2","166","trial1","naming","0","0","0","0","CARAMEL","0","3423","1","White_Screen.jpg","15","75","Candy_Caramel.jpg","15"
"022420","14:06:45","38","38","5.0.14.0","2","167","trial1","naming","0","0","0","0","CLIPPERS","0","5052","1","White_Screen.jpg","18","2","ShearsGarden.jpg","18"
"022420","14:06:45","38","38","5.0.14.0","2","168","trial1","naming","0","0","0","0","DONUT","0","3650","1","White_Screen.jpg","18","115","Bagel.jpg","18"
"022420","14:06:45","38","38","5.0.14.0","2","169","trial1","naming","0","0","0","0","HOODIE","0","7772","1","White_Screen.jpg","14","173","Hoodie.jpg","14"
"022420","14:06:45","38","38","5.0.14.0","2","170","trial1","naming","0","0","0","0","HAT","0","4143","1","White_Screen.jpg","19","19","Hat_Sheriff.jpg","19"
"022420","14:06:45","38","38","5.0.14.0","2","171","trial1","naming","0","0","0","0","TICKET","0","3098","1","White_Screen.jpg","13","155","Tickets_PrintWords.jpg","13"
"022420","14:06:45","38","38","5.0.14.0","2","172","trial1","naming","0","0","0","0","PACKAGE","0","3107","1","White_Screen.jpg","14","32","Parcel.jpg","14"
"022420","14:06:45","38","38","5.0.14.0","2","173","trial1","naming","0","0","0","0","BLOCK","0","4876","1","White_Screen.jpg","18","161","Toy_BlocksWoodenPlain.jpg","18"
"022420","14:06:45","38","38","5.0.14.0","2","174","trial1","naming","0","0","0","0","RECORD","0","3442","1","White_Screen.jpg","15","34","VinylRecord.jpg","15"
"022420","14:06:45","38","38","5.0.14.0","2","175","trial1","naming","0","0","0","0","WALLET","0","5685","1","White_Screen.jpg","39","61","Wallet_ClosedBlack.jpg","39"
"022420","14:06:45","38","38","5.0.14.0","2","176","trial1","naming","0","0","0","0","CHAIR","0","5375","1","White_Screen.jpg","22","192","Chair_Bamboo.jpg","22"
"022420","14:06:45","38","38","5.0.14.0","2","177","trial1","naming","0","0","0","0","BOX","0","3381","1","White_Screen.jpg","14","182","Box_Package.jpg","14"
"022420","14:06:45","38","38","5.0.14.0","2","178","trial1","naming","0","0","0","0","SNOWMAN","0","5457","1","White_Screen.jpg","14","194","SnowmanDecor.jpg","14"
"022420","14:06:45","38","38","5.0.14.0","2","179","trial1","naming","0","0","0","0","TOWEL HOLDER","0","7174","1","White_Screen.jpg","21","126","TowelRack_Brown.jpg","21"
"022420","14:06:45","38","38","5.0.14.0","2","180","trial1","naming","0","0","0","0","THIMBLE","0","4294","1","White_Screen.jpg","14","160","Thimble.jpg","14"
"022420","14:06:45","38","38","5.0.14.0","2","181","trial1","naming","0","0","0","0","TREE","0","3546","1","White_Screen.jpg","14","11","Toy_Christmastree.jpg","14"
"022420","14:06:45","38","38","5.0.14.0","2","182","trial1","naming","0","0","0","0","TIMER","0","9315","1","White_Screen.jpg","22","146","Hourglass.jpg","22"
"022420","14:06:45","38","38","5.0.14.0","2","183","trial1","naming","0","0","0","0","APPLE","0","4454","1","White_Screen.jpg","23","176","Apple_Candy.jpg","23"
"022420","14:06:45","38","38","5.0.14.0","2","184","trial1","naming","0","0","0","0","BARREL","0","8541","1","White_Screen.jpg","20","178","Barrel_Wine.jpg","20"
"022420","14:06:45","38","38","5.0.14.0","2","185","trial1","naming","0","0","0","0","SWITCH","0","4635","1","White_Screen.jpg","14","67","Switch_Power.jpg","14"
"022420","14:06:45","38","38","5.0.14.0","2","186","trial1","naming","0","0","0","0","DESK","0","3314","1","White_Screen.jpg","14","64","Desk_School.jpg","14"
"022420","14:06:45","38","38","5.0.14.0","2","187","trial1","naming","0","0","0","0","FRIDGE","0","3274","1","White_Screen.jpg","14","63","Fridge.jpg","14"
"022420","14:06:45","38","38","5.0.14.0","2","188","trial1","naming","0","0","0","0","ADAPTER","0","3912","1","White_Screen.jpg","22","142","Cable_AudioSplitter.jpg","22"
"022420","14:06:45","38","38","5.0.14.0","2","189","trial1","naming","0","0","0","0","PAD","0","3545","1","White_Screen.jpg","14","26","Cast.jpg","14"
"022420","14:06:45","38","38","5.0.14.0","2","190","trial1","naming","0","0","0","0","SUNDAE","0","4539","1","White_Screen.jpg","22","51","SundaeBanana.jpg","22"
"022420","14:06:45","38","38","5.0.14.0","2","191","trial1","naming","0","0","0","0","SHOVEL","0","3549","1","White_Screen.jpg","14","22","Shovel_Garden.jpg","14"
"022420","14:06:45","38","38","5.0.14.0","2","192","trial1","naming","0","0","0","0","HEATER","0","4274","1","White_Screen.jpg","15","59","Heater_ElectricUpright.jpg","15"
"022420","14:06:45","38","38","5.0.14.0","2","193","trial1","naming","0","0","0","0","GRINDER","0","7338","1","White_Screen.jpg","22","158","MortarPestle_BlackStone.jpg","22"
"022420","14:06:45","38","38","5.0.14.0","2","194","trial1","naming","0","0","0","0","SHORTS","0","4011","1","White_Screen.jpg","14","85","Pajamas.jpg","14"
"022420","14:06:45","38","38","5.0.14.0","2","195","trial1","naming","0","0","0","0","STICK","0","3784","1","White_Screen.jpg","14","14","Toy_HockeyStick.jpg","14"
"022420","14:06:45","38","38","5.0.14.0","2","196","trial1","naming","0","0","0","0","PHONECASE","0","3984","1","White_Screen.jpg","15","111","PhoneCase.jpg","15"
"022420","14:06:45","38","38","5.0.14.0","2","197","trial1","naming","0","0","0","0","COTTONBALLS","0","4549","1","White_Screen.jpg","20","76","Jar_Cotton.jpg","20"
"022420","14:06:45","38","38","5.0.14.0","2","198","trial1","naming","0","0","0","0","FRIES","0","3865","1","White_Screen.jpg","19","120","fries.jpg","19"
"022420","14:06:45","38","38","5.0.14.0","2","199","trial1","naming","0","0","0","0","TOY","0","2613","1","White_Screen.jpg","39","80","Toy_BeadMaze.jpg","39"
"022420","14:06:45","38","38","5.0.14.0","2","200","trial1","naming","0","0","0","0","WELL","0","3158","1","White_Screen.jpg","22","112","WaterWell.jpg","22"
"022420","14:06:45","38","38","5.0.14.0","2","201","trial1","naming","0","0","0","0","SOCK","0","4021","1","White_Screen.jpg","15","33","RugRoled.jpg","15"
"022420","14:06:45","38","38","5.0.14.0","2","202","trial1","naming","0","0","0","0","GUMBALL MACHINE","0","4220","1","White_Screen.jpg","22","90","CandyDispenser.jpg","22"
"022420","14:06:45","38","38","5.0.14.0","2","203","trial1","naming","0","0","0","0","LION","0","3277","1","White_Screen.jpg","15","134","Lion.jpg","15"
"022420","14:06:45","38","38","5.0.14.0","3","1","demographics_block","gender","0","0","0","0","FEMALE","1","6596","0","0","0","0","0","0"
"022420","14:06:45","38","38","5.0.14.0","3","1","demographics_block","age","0","0","0","0","33","1","6596","0","0","0","0","0","0"
"022420","14:06:45","38","38","5.0.14.0","3","1","demographics_block","education","0","0","0","0","25","1","6596","0","0","0","0","0","0"
"022420","14:06:45","38","38","5.0.14.0","3","2","demographics_block","left_right_handed","0","0","0","0","Right","1","5475","0","0","0","0","0","0"
"022420","14:06:45","38","38","5.0.14.0","3","2","demographics_block","raceoption1","0","0","0","0","0","1","5475","0","0","0","0","0","0"
"022420","14:06:45","38","38","5.0.14.0","3","2","demographics_block","raceoption2","0","0","0","0","","1","5475","0","0","0","0","0","0"
"022420","14:06:45","38","38","5.0.14.0","3","2","demographics_block","raceoption3","0","0","0","0","","1","5475","0","0","0","0","0","0"
"022420","14:06:45","38","38","5.0.14.0","3","2","demographics_block","raceoption4","0","0","0","0","","1","5475","0","0","0","0","0","0"
"022420","14:06:45","38","38","5.0.14.0","3","2","demographics_block","raceoption5","0","0","0","0","","1","5475","0","0","0","0","0","0"
"022420","14:06:45","38","38","5.0.14.0","3","2","demographics_block","raceoption6","0","0","0","0","","1","5475","0","0","0","0","0","0"
"022420","14:06:45","38","38","5.0.14.0","3","2","demographics_block","raceoption7","0","0","0","0","","1","5475","0","0","0","0","0","0"
"022420","14:06:45","38","38","5.0.14.0","3","2","demographics_block","raceoption8","0","0","0","0","","1","5475","0","0","0","0","0","0"
"022420","14:06:45","38","38","5.0.14.0","3","2","demographics_block","raceoption9","0","0","0","0","","1","5475","0","0","0","0","0","0"
"022420","14:06:45","38","38","5.0.14.0","3","2","demographics_block","raceother","0","0","0","0","","1","5475","0","0","0","0","0","0"
"022420","14:06:45","38","38","5.0.14.0","3","2","demographics_block","raceother","0","0","0","0","","1","5475","0","0","0","0","0","0"
"022420","14:06:45","38","38","5.0.14.0","3","2","demographics_block","english_language","0","0","0","0","Yes","1","5475","0","0","0","0","0","0"
"022420","14:06:45","38","38","5.0.14.0","3","2","demographics_block","english_languageother","0","0","0","0","","1","5475","0","0","0","0","0","0"
"022420","14:06:45","38","38","5.0.14.0","3","3","demographics_block","eyesight","0","0","0","0","Yes","1","6054","0","0","0","0","0","0"
"022420","14:06:45","38","38","5.0.14.0","3","3","demographics_block","colorblind","0","0","0","0","No","1","6054","0","0","0","0","0","0"
"022420","14:06:45","38","38","5.0.14.0","4","1","worker_id_block","worker_id_textbox","0","0","0","0","A1FS8SBR4SDWYG","1","35032","0","0","0","0","0","0"
"022420","15:32:55","41","41","5.0.14.0","2","1","trial1","naming","0","0","0","0","Enter Name","0","10000","1","White_Screen.jpg","36","123","Cart_Wooden.jpg","36"
"022420","15:32:55","41","41","5.0.14.0","2","2","trial1","naming","0","0","0","0","Enter NameWAGON","0","5860","1","White_Screen.jpg","5","26","Cast.jpg","5"
"022420","15:32:55","41","41","5.0.14.0","2","3","trial1","naming","0","0","0","0","COMPUTER CO","0","10000","1","White_Screen.jpg","8","13","HDMIConnector.jpg","8"
"022420","15:32:55","41","41","5.0.14.0","2","4","trial1","naming","0","0","0","0","CAR WRECEnter Name","0","5406","1","White_Screen.jpg","6","24","Car_Totalled.jpg","6"
"022420","15:32:55","41","41","5.0.14.0","2","5","trial1","naming","0","0","0","0","HORN","0","6152","1","White_Screen.jpg","8","62","Horn_French.jpg","8"
"022420","15:32:55","41","41","5.0.14.0","2","6","trial1","naming","0","0","0","0","WIND CHIM","0","7350","1","White_Screen.jpg","8","121","Chime.jpg","8"
"022420","15:32:55","41","41","5.0.14.0","2","7","trial1","naming","0","0","0","0","SUNGLASSES","0","5332","1","White_Screen.jpg","7","98","Glasses_Sun.jpg","7"
"022420","15:32:55","41","41","5.0.14.0","2","8","trial1","naming","0","0","0","0","TOMATO","0","4538","1","White_Screen.jpg","7","169","Tomato.jpg","7"
"022420","15:32:55","41","41","5.0.14.0","2","9","trial1","naming","0","0","0","0","LOCK","0","5145","1","White_Screen.jpg","7","93","DoorBolt.jpg","7"
"022420","15:32:55","41","41","5.0.14.0","2","10","trial1","naming","0","0","0","0","MOTOR","0","5191","1","White_Screen.jpg","7","70","Seeder.jpg","7"
"022420","15:32:55","41","41","5.0.14.0","2","11","trial1","naming","0","0","0","0","HAT","0","4316","1","White_Screen.jpg","7","19","Hat_Sheriff.jpg","7"
"022420","15:32:55","41","41","5.0.14.0","2","12","trial1","naming","0","0","0","0","CLOGS","0","4140","1","White_Screen.jpg","7","40","Shoes_DutchClogs.jpg","7"
"022420","15:32:55","41","41","5.0.14.0","2","13","trial1","naming","0","0","0","0","CANDY","0","4529","1","White_Screen.jpg","8","75","Candy_Caramel.jpg","8"
"022420","15:32:55","41","41","5.0.14.0","2","14","trial1","naming","0","0","0","0","LEI","0","4074","1","White_Screen.jpg","7","50","Lei.jpg","7"
"022420","15:32:55","41","41","5.0.14.0","2","15","trial1","naming","0","0","0","0","PHARMACY","0","9290","1","White_Screen.jpg","9","158","MortarPestle_BlackStone.jpg","9"
"022420","15:32:55","41","41","5.0.14.0","2","16","trial1","naming","0","0","0","0","CABLES","0","5986","1","White_Screen.jpg","7","142","Cable_AudioSplitter.jpg","7"
"022420","15:32:55","41","41","5.0.14.0","2","17","trial1","naming","0","0","0","0","CANDY","0","3845","1","White_Screen.jpg","9","198","Lollipop_Rainbow.jpg","9"
"022420","15:32:55","41","41","5.0.14.0","2","18","trial1","naming","0","0","0","0","KNIFE","0","6114","1","White_Screen.jpg","6","147","Knife_Camping.jpg","6"
"022420","15:32:55","41","41","5.0.14.0","2","19","trial1","naming","0","0","0","0","FAN","0","3217","1","White_Screen.jpg","7","88","Fan_Straw.jpg","7"
"022420","15:32:55","41","41","5.0.14.0","2","20","trial1","naming","0","0","0","0","SKELETON","0","4253","1","White_Screen.jpg","6","45","HumanSkeleton.jpg","6"
"022420","15:32:55","41","41","5.0.14.0","2","21","trial1","naming","0","0","0","0","HORN","0","6464","1","White_Screen.jpg","6","17","Megaphone.jpg","6"
"022420","15:32:55","41","41","5.0.14.0","2","22","trial1","naming","0","0","0","0","CLOUD","0","5472","1","White_Screen.jpg","7","149","Cloud.jpg","7"
"022420","15:32:55","41","41","5.0.14.0","2","23","trial1","naming","0","0","0","0","GLASS","0","3570","1","White_Screen.jpg","7","42","Glass_Cup.jpg","7"
"022420","15:32:55","41","41","5.0.14.0","2","24","trial1","naming","0","0","0","0","PACKAGE","0","4327","1","White_Screen.jpg","6","32","Parcel.jpg","6"
"022420","15:32:55","41","41","5.0.14.0","2","25","trial1","naming","0","0","0","0","FILE FOLDER","0","8111","1","White_Screen.jpg","6","6","Folder_Plastic.jpg","6"
"022420","15:32:55","41","41","5.0.14.0","2","26","trial1","naming","0","0","0","0","GUM BALL ","0","7165","1","White_Screen.jpg","6","90","CandyDispenser.jpg","6"
"022420","15:32:55","41","41","5.0.14.0","2","27","trial1","naming","0","0","0","0","HORSE","0","6224","1","White_Screen.jpg","8","163","Statue_ManHorse.jpg","8"
"022420","15:32:55","41","41","5.0.14.0","2","28","trial1","naming","0","0","0","0","TOFU","0","8508","1","White_Screen.jpg","7","12","Tofu.jpg","7"
"022420","15:32:55","41","41","5.0.14.0","2","29","trial1","naming","0","0","0","0","SHIPEnter Name","0","3186","1","White_Screen.jpg","6","92","Ship_Battle.jpg","6"
"022420","15:32:55","41","41","5.0.14.0","2","30","trial1","naming","0","0","0","0","HAMMOCK","0","4591","1","White_Screen.jpg","7","57","Hammock.jpg","7"
"022420","15:32:55","41","41","5.0.14.0","2","31","trial1","naming","0","0","0","0","FOOTBALL PLAYER","0","6801","1","White_Screen.jpg","9","136","PlayerFootball.jpg","9"
"022420","15:32:55","41","41","5.0.14.0","2","32","trial1","naming","0","0","0","0","GECKO","0","5615","1","White_Screen.jpg","7","28","Toy_Lizard.jpg","7"
"022420","15:32:55","41","41","5.0.14.0","2","33","trial1","naming","0","0","0","0","ELECTRIC HEATER","0","10000","1","White_Screen.jpg","7","59","Heater_ElectricUpright.jpg","7"
"022420","15:32:55","41","41","5.0.14.0","2","34","trial1","naming","0","0","0","0","RECORD","0","4420","1","White_Screen.jpg","7","34","VinylRecord.jpg","7"
"022420","15:32:55","41","41","5.0.14.0","2","35","trial1","naming","0","0","0","0","RICE","0","3735","1","White_Screen.jpg","7","153","RiceRaw.jpg","7"
"022420","15:32:55","41","41","5.0.14.0","2","36","trial1","naming","0","0","0","0","ARITCHOKEe","0","6391","1","White_Screen.jpg","7","49","Artichoke.jpg","7"
"022420","15:32:55","41","41","5.0.14.0","2","37","trial1","naming","0","0","0","0","STAMP","0","4282","1","White_Screen.jpg","7","181","StampAndSeal.jpg","7"
"022420","15:32:55","41","41","5.0.14.0","2","38","trial1","naming","0","0","0","0","BARREL","0","5483","1","White_Screen.jpg","7","178","Barrel_Wine.jpg","7"
"022420","15:32:55","41","41","5.0.14.0","2","39","trial1","naming","0","0","0","0","DINOSAUREnter Name","0","4229","1","White_Screen.jpg","7","44","Toy_DinosaurTRex.jpg","7"
"022420","15:32:55","41","41","5.0.14.0","2","40","trial1","naming","0","0","0","0","PADS","0","5679","1","White_Screen.jpg","7","164","ShoulderPads.jpg","7"
"022420","15:32:55","41","41","5.0.14.0","2","41","trial1","naming","0","0","0","0","CD","0","3617","1","White_Screen.jpg","7","9","Case_DVD.jpg","7"
"022420","15:32:55","41","41","5.0.14.0","2","42","trial1","naming","0","0","0","0","TICKETS","0","4053","1","White_Screen.jpg","6","155","Tickets_PrintWords.jpg","6"
"022420","15:32:55","41","41","5.0.14.0","2","43","trial1","naming","0","0","0","0","PIG","0","3150","1","White_Screen.jpg","8","95","Pig.jpg","8"
"022420","15:32:55","41","41","5.0.14.0","2","44","trial1","naming","0","0","0","0","TOY","0","5529","1","White_Screen.jpg","12","80","Toy_BeadMaze.jpg","12"
"022420","15:32:55","41","41","5.0.14.0","2","45","trial1","naming","0","0","0","0","TREE","0","4381","1","White_Screen.jpg","6","11","Toy_Christmastree.jpg","6"
"022420","15:32:55","41","41","5.0.14.0","2","46","trial1","naming","0","0","0","0","CHAIR","0","4823","1","White_Screen.jpg","11","192","Chair_Bamboo.jpg","11"
"022420","15:32:55","41","41","5.0.14.0","2","47","trial1","naming","0","0","0","0","SHEARS","0","4286","1","White_Screen.jpg","6","2","ShearsGarden.jpg","6"
"022420","15:32:55","41","41","5.0.14.0","2","48","trial1","naming","0","0","0","0","WATER","0","3839","1","White_Screen.jpg","7","96","WaterCooler.jpg","7"
"022420","15:32:55","41","41","5.0.14.0","2","49","trial1","naming","0","0","0","0","DRINK MIXER","0","8898","1","White_Screen.jpg","7","131","MixingGlass.jpg","7"
"022420","15:32:55","41","41","5.0.14.0","2","50","trial1","naming","0","0","0","0","CANDY APPLE","0","6678","1","White_Screen.jpg","10","176","Apple_Candy.jpg","10"
"022420","15:32:55","41","41","5.0.14.0","2","52","trial1","naming","0","0","0","0","ARCH","0","4474","1","White_Screen.jpg","8","15","Arch.jpg","8"
"022420","15:32:55","41","41","5.0.14.0","2","53","trial1","naming","0","0","0","0","MEDICINES","0","4508","1","White_Screen.jpg","7","46","PillBottle_Spilled.jpg","7"
"022420","15:32:55","41","41","5.0.14.0","2","54","trial1","naming","0","0","0","0","FEED","0","7765","1","White_Screen.jpg","6","197","Bag_Grains.jpg","6"
"022420","15:32:55","41","41","5.0.14.0","2","55","trial1","naming","0","0","0","0","PLUSH TOY","0","5001","1","White_Screen.jpg","6","41","Toy_Dog.jpg","6"
"022420","15:32:55","41","41","5.0.14.0","2","56","trial1","naming","0","0","0","0","CAP","0","4700","1","White_Screen.jpg","8","109","CapGraduation.jpg","8"
"022420","15:32:55","41","41","5.0.14.0","2","57","trial1","naming","0","0","0","0","CORK SCREW","0","6741","1","White_Screen.jpg","7","135","Corkscrew.jpg","7"
"022420","15:32:55","41","41","5.0.14.0","2","58","trial1","naming","0","0","0","0","MED BOTTL","0","8691","1","White_Screen.jpg","6","190","Bottle_Specimen.jpg","6"
"022420","15:32:55","41","41","5.0.14.0","2","59","trial1","naming","0","0","0","0","WALKIE TALKIE","0","7570","1","White_Screen.jpg","6","18","WalkieTalkie_Red.jpg","6"
"022420","15:32:55","41","41","5.0.14.0","2","60","trial1","naming","0","0","0","0","BEDSIDE TBLE","0","6949","1","White_Screen.jpg","8","7","Nightstand.jpg","8"
"022420","15:32:55","41","41","5.0.14.0","2","61","trial1","naming","0","0","0","0","DRUM","0","5100","1","White_Screen.jpg","6","25","CrepeMaker.jpg","6"
"022420","15:32:55","41","41","5.0.14.0","2","62","trial1","naming","0","0","0","0","NO PARKIN","0","4969","1","White_Screen.jpg","10","175","Sign_NoParking.jpg","10"
"022420","15:32:55","41","41","5.0.14.0","2","63","trial1","naming","0","0","0","0","PISTOL","0","5432","1","White_Screen.jpg","9","86","Gun_Revolver.jpg","9"
"022420","15:32:55","41","41","5.0.14.0","2","64","trial1","naming","0","0","0","0","SPONGES","0","4156","1","White_Screen.jpg","7","29","SpongeScrubbing.jpg","7"
"022420","15:32:55","41","41","5.0.14.0","2","65","trial1","naming","0","0","0","0","LOCK","0","4039","1","White_Screen.jpg","10","196","Lock_Door.jpg","10"
"022420","15:32:55","41","41","5.0.14.0","2","66","trial1","naming","0","0","0","0","TRUCK BED","0","7141","1","White_Screen.jpg","7","84","Truck_Pickup.jpg","7"
"022420","15:32:55","41","41","5.0.14.0","2","67","trial1","naming","0","0","0","0","PHONE","0","4739","1","White_Screen.jpg","6","111","PhoneCase.jpg","6"
"022420","15:32:55","41","41","5.0.14.0","2","68","trial1","naming","0","0","0","0","RADIO","0","3929","1","White_Screen.jpg","7","91","Radio_Antique.jpg","7"
"022420","15:32:55","41","41","5.0.14.0","2","69","trial1","naming","0","0","0","0","SNOWMAN","0","3781","1","White_Screen.jpg","12","194","SnowmanDecor.jpg","12"
"022420","15:32:55","41","41","5.0.14.0","2","70","trial1","naming","0","0","0","0","TELEPHON E BOOTH","0","8062","1","White_Screen.jpg","7","37","Telephone_Booth.jpg","7"
"022420","15:32:55","41","41","5.0.14.0","2","71","trial1","naming","0","0","0","0","FISH","0","5991","1","White_Screen.jpg","6","23","Fish_Swordfish.jpg","6"
"022420","15:32:55","41","41","5.0.14.0","2","72","trial1","naming","0","0","0","0","PLAYGYM","0","5251","1","White_Screen.jpg","6","83","Playground.jpg","6"
"022420","15:32:55","41","41","5.0.14.0","2","73","trial1","naming","0","0","0","0","JEWLERY BOX","0","6092","1","White_Screen.jpg","7","154","Box_JeweleryWooden.jpg","7"
"022420","15:32:55","41","41","5.0.14.0","2","74","trial1","naming","0","0","0","0","DISK","0","5201","1","White_Screen.jpg","10","82","FloppyDisk.jpg","10"
"022420","15:32:55","41","41","5.0.14.0","2","75","trial1","naming","0","0","0","0","CAR SEAT","0","6061","1","White_Screen.jpg","9","89","CarSeat.jpg","9"
"022420","15:32:55","41","41","5.0.14.0","2","76","trial1","naming","0","0","0","0","PAPER CLIP","0","7825","1","White_Screen.jpg","7","157","Clip_Paper.jpg","7"
"022420","15:32:55","41","41","5.0.14.0","2","77","trial1","naming","0","0","0","0","TEMPLE","0","6091","1","White_Screen.jpg","6","99","PagodaModel.jpg","6"
"022420","15:32:55","41","41","5.0.14.0","2","78","trial1","naming","0","0","0","0","CARAMEL","0","4434","1","White_Screen.jpg","7","43","Candy_Toffee.jpg","7"
"022420","15:32:55","41","41","5.0.14.0","2","79","trial1","naming","0","0","0","0","CLOTHES DRYER","0","5629","1","White_Screen.jpg","7","54","DryRack_Clothes.jpg","7"
"022420","15:32:55","41","41","5.0.14.0","2","80","trial1","naming","0","0","0","0","ELECTRICITY","0","8113","1","White_Screen.jpg","6","73","Fuse.jpg","6"
"022420","15:32:55","41","41","5.0.14.0","2","81","trial1","naming","0","0","0","0","TOWEL RACK","0","5959","1","White_Screen.jpg","7","126","TowelRack_Brown.jpg","7"
"022420","15:32:55","41","41","5.0.14.0","2","82","trial1","naming","0","0","0","0","BLUE BALL","0","4371","1","White_Screen.jpg","7","187","Ball_Squashball.jpg","7"
"022420","15:32:55","41","41","5.0.14.0","2","83","trial1","naming","0","0","0","0","HEAD PILLOW","0","5729","1","White_Screen.jpg","7","8","Neckrest.jpg","7"
"022420","15:32:55","41","41","5.0.14.0","2","84","trial1","naming","0","0","0","0","COIN WRAPPERS","0","6992","1","White_Screen.jpg","7","172","CoinRolls.jpg","7"
"022420","15:32:55","41","41","5.0.14.0","2","85","trial1","naming","0","0","0","0","AMEYTHIST EARRINGS","0","8794","1","White_Screen.jpg","8","107","Earrings_Dangling.jpg","8"
"022420","15:32:55","41","41","5.0.14.0","2","86","trial1","naming","0","0","0","0","CARD","0","3406","1","White_Screen.jpg","7","191","Card_QueenSpade.jpg","7"
"022420","15:32:55","41","41","5.0.14.0","2","87","trial1","naming","0","0","0","0","DOG BISCUIT","0","4546","1","White_Screen.jpg","7","4","DogTreat.jpg","7"
"022420","15:32:55","41","41","5.0.14.0","2","88","trial1","naming","0","0","0","0","TELEPHONE","0","3450","1","White_Screen.jpg","6","132","Telephone_Dial.jpg","6"
"022420","15:32:55","41","41","5.0.14.0","2","89","trial1","naming","0","0","0","0","HEDGE HOG","0","4012","1","White_Screen.jpg","6","200","Hedgehog.jpg","6"
"022420","15:32:55","41","41","5.0.14.0","2","90","trial1","naming","0","0","0","0","LION","0","3528","1","White_Screen.jpg","6","134","Lion.jpg","6"
"022420","15:32:55","41","41","5.0.14.0","2","91","trial1","naming","0","0","0","0","FLUTE","0","4663","1","White_Screen.jpg","8","105","SaxophoneSoprano.jpg","8"
"022420","15:32:55","41","41","5.0.14.0","2","92","trial1","naming","0","0","0","0","NO IDEA BELT","0","6892","1","White_Screen.jpg","13","174","Brace_Back.jpg","13"
"022420","15:32:55","41","41","5.0.14.0","2","93","trial1","naming","0","0","0","0","SNAKE","0","3153","1","White_Screen.jpg","6","58","Snake_Cobra.jpg","6"
"022420","15:32:55","41","41","5.0.14.0","2","94","trial1","naming","0","0","0","0","DONUT","0","3231","1","White_Screen.jpg","7","115","Bagel.jpg","7"
"022420","15:32:55","41","41","5.0.14.0","2","95","trial1","naming","0","0","0","0","KEYBOARD","0","3708","1","White_Screen.jpg","6","170","ComputerKeyboard.jpg","6"
"022420","15:32:55","41","41","5.0.14.0","2","96","trial1","naming","0","0","0","0","ALPHABET","0","6244","1","White_Screen.jpg","6","74","Scrabble.jpg","6"
"022420","15:32:55","41","41","5.0.14.0","2","97","trial1","naming","0","0","0","0","MELON SCOOPER","0","5997","1","White_Screen.jpg","7","60","Scoop_IceCream.jpg","7"
"022420","15:32:55","41","41","5.0.14.0","2","98","trial1","naming","0","0","0","0","PAPER HAT","0","8209","1","White_Screen.jpg","7","171","Origami_Boat.jpg","7"
"022420","15:32:55","41","41","5.0.14.0","2","99","trial1","naming","0","0","0","0","SINK DRAIN","0","5292","1","White_Screen.jpg","7","101","DrainPlug.jpg","7"
"022420","15:32:55","41","41","5.0.14.0","2","100","trial1","naming","0","0","0","0","TELESCOPE","0","5012","1","White_Screen.jpg","6","36","Tripod.jpg","6"
"022420","15:32:55","41","41","5.0.14.0","2","101","trial1","naming","0","0","0","0","CLOTHES","0","2942","1","White_Screen.jpg","8","85","Pajamas.jpg","8"
"022420","15:32:55","41","41","5.0.14.0","2","103","trial1","naming","0","0","0","0","HIPPOMATUS","0","6720","1","White_Screen.jpg","7","179","Hippopotamus.jpg","7"
"022420","15:32:55","41","41","5.0.14.0","2","104","trial1","naming","0","0","0","0","BOX","0","2734","1","White_Screen.jpg","7","182","Box_Package.jpg","7"
"022420","15:32:55","41","41","5.0.14.0","2","105","trial1","naming","0","0","0","0","JUG","0","3214","1","White_Screen.jpg","6","110","WindshieldWasherFluid.jpg","6"
"022420","15:32:55","41","41","5.0.14.0","2","106","trial1","naming","0","0","0","0","DESK","0","4927","1","White_Screen.jpg","10","64","Desk_School.jpg","10"
"022420","15:32:55","41","41","5.0.14.0","2","107","trial1","naming","0","0","0","0","SPRAYER\","0","4553","1","White_Screen.jpg","6","65","Steam_Cleaner.jpg","6"
"022420","15:32:55","41","41","5.0.14.0","2","108","trial1","naming","0","0","0","0","HOT WATER BOTTLE","0","4831","1","White_Screen.jpg","7","124","HotWaterBottle.jpg","7"
"022420","15:32:55","41","41","5.0.14.0","2","109","trial1","naming","0","0","0","0","CAN OPENER","0","5211","1","White_Screen.jpg","6","156","BottleOpener.jpg","6"
"022420","15:32:55","41","41","5.0.14.0","2","110","trial1","naming","0","0","0","0","PENCIL SHARPENER","0","8966","1","White_Screen.jpg","7","199","PencilSharpener.jpg","7"
"022420","15:32:55","41","41","5.0.14.0","2","111","trial1","naming","0","0","0","0","STAPLES","0","2762","1","White_Screen.jpg","6","162","Box_Staples.jpg","6"
"022420","15:32:55","41","41","5.0.14.0","2","112","trial1","naming","0","0","0","0","HAT","0","2855","1","White_Screen.jpg","8","103","Hat_Explorer.jpg","8"
"022420","15:32:55","41","41","5.0.14.0","2","113","trial1","naming","0","0","0","0","STARFISH","0","3723","1","White_Screen.jpg","8","48","Starfish.jpg","8"
"022420","15:32:55","41","41","5.0.14.0","2","114","trial1","naming","0","0","0","0","TURTLE","0","2595","1","White_Screen.jpg","7","79","Turtle.jpg","7"
"022420","15:32:55","41","41","5.0.14.0","2","115","trial1","naming","0","0","0","0","HAMMER","0","7240","1","White_Screen.jpg","7","1","Icepick.jpg","7"
"022420","15:32:55","41","41","5.0.14.0","2","116","trial1","naming","0","0","0","0","LOG HOUSE","0","5122","1","White_Screen.jpg","7","77","House_Wooden.jpg","7"
"022420","15:32:55","41","41","5.0.14.0","2","117","trial1","naming","0","0","0","0","FIREMEN GEAR","0","5041","1","White_Screen.jpg","6","106","Pants_Firefighter.jpg","6"
"022420","15:32:55","41","41","5.0.14.0","2","118","trial1","naming","0","0","0","0","POP TOPPER","0","7890","1","White_Screen.jpg","8","143","SeatBuckle.jpg","8"
"022420","15:32:55","41","41","5.0.14.0","2","119","trial1","naming","0","0","0","0","TOY TRUCK","0","3843","1","White_Screen.jpg","6","183","Toy_Truck.jpg","6"
"022420","15:32:55","41","41","5.0.14.0","2","120","trial1","naming","0","0","0","0","BAG","0","2654","1","White_Screen.jpg","6","129","Pouch_Red.jpg","6"
"022420","15:32:55","41","41","5.0.14.0","2","121","trial1","naming","0","0","0","0","METER","0","2880","1","White_Screen.jpg","6","127","MeterElectric.jpg","6"
"022420","15:32:55","41","41","5.0.14.0","2","122","trial1","naming","0","0","0","0","THIMBLE","0","2626","1","White_Screen.jpg","7","160","Thimble.jpg","7"
"022420","15:32:55","41","41","5.0.14.0","2","123","trial1","naming","0","0","0","0","THATCH HUT","0","5366","1","White_Screen.jpg","7","66","Gazebo.jpg","7"
"022420","15:32:55","41","41","5.0.14.0","2","124","trial1","naming","0","0","0","0","SCARECROW","0","6124","1","White_Screen.jpg","6","47","Scarecrow.jpg","6"
"022420","15:32:55","41","41","5.0.14.0","2","125","trial1","naming","0","0","0","0","TEETH MOLD","0","5111","1","White_Screen.jpg","11","10","TeethModel.jpg","11"
"022420","15:32:55","41","41","5.0.14.0","2","126","trial1","naming","0","0","0","0","MEDS DROPPPER","0","5730","1","White_Screen.jpg","6","168","Dropper.jpg","6"
"022420","15:32:55","41","41","5.0.14.0","2","127","trial1","naming","0","0","0","0","DRUM","0","3569","1","White_Screen.jpg","7","102","Drum_Tall.jpg","7"
"022420","15:32:55","41","41","5.0.14.0","2","128","trial1","naming","0","0","0","0","BEAN","0","3183","1","White_Screen.jpg","6","159","StringBean.jpg","6"
"022420","15:32:55","41","41","5.0.14.0","2","129","trial1","naming","0","0","0","0","HOSE","0","2461","1","White_Screen.jpg","6","167","VacuumHose.jpg","6"
"022420","15:32:55","41","41","5.0.14.0","2","130","trial1","naming","0","0","0","0","PITCHER","0","3472","1","White_Screen.jpg","6","141","Jug_ClayAncient.jpg","6"
"022420","15:32:55","41","41","5.0.14.0","2","131","trial1","naming","0","0","0","0","ON/OFF SWITCH","0","6392","1","White_Screen.jpg","8","67","Switch_Power.jpg","8"
"022420","15:32:55","41","41","5.0.14.0","2","132","trial1","naming","0","0","0","0","CHARI","0","4237","1","White_Screen.jpg","6","117","Chair_Deck.jpg","6"
"022420","15:32:55","41","41","5.0.14.0","2","133","trial1","naming","0","0","0","0","Enter Name","0","199","1","White_Screen.jpg","7","195","Jar_Money.jpg","7"
"022420","15:32:55","41","41","5.0.14.0","2","134","trial1","naming","0","0","0","0","SHELL","0","3709","1","White_Screen.jpg","7","177","Snail.jpg","7"
"022420","15:32:55","41","41","5.0.14.0","2","135","trial1","naming","0","0","0","0","GUITAR","0","3374","1","White_Screen.jpg","7","35","Guitar_Acoustic.jpg","7"
"022420","15:32:55","41","41","5.0.14.0","2","136","trial1","naming","0","0","0","0","FIRST AID KIT","0","3612","1","White_Screen.jpg","6","193","Box_FirstAid.jpg","6"
"022420","15:32:55","41","41","5.0.14.0","2","137","trial1","naming","0","0","0","0","ANIMAL ANTLERS","0","6383","1","White_Screen.jpg","8","113","SkullDeer.jpg","8"
"022420","15:32:55","41","41","5.0.14.0","2","138","trial1","naming","0","0","0","0","SCROLS","0","5202","1","White_Screen.jpg","9","108","Blueprints.jpg","9"
"022420","15:32:55","41","41","5.0.14.0","2","139","trial1","naming","0","0","0","0","NEEDLE","0","3375","1","White_Screen.jpg","6","150","Syringe_Needle.jpg","6"
"022420","15:32:55","41","41","5.0.14.0","2","140","trial1","naming","0","0","0","0","HOODIE","0","3334","1","White_Screen.jpg","6","173","Hoodie.jpg","6"
"022420","15:32:55","41","41","5.0.14.0","2","141","trial1","naming","0","0","0","0","REFRIGERATOR","0","5796","1","White_Screen.jpg","6","63","Fridge.jpg","6"
"022420","15:32:55","41","41","5.0.14.0","2","142","trial1","naming","0","0","0","0","LIGHT","0","4872","1","White_Screen.jpg","7","119","LampPost_OneBulb.jpg","7"
"022420","15:32:55","41","41","5.0.14.0","2","143","trial1","naming","0","0","0","0","DRINK MACHINE","0","4769","1","White_Screen.jpg","7","16","SlushieMachine.jpg","7"
"022420","15:32:55","41","41","5.0.14.0","2","144","trial1","naming","0","0","0","0","SEAL","0","2623","1","White_Screen.jpg","7","186","Seal_Toy.jpg","7"
"022420","15:32:55","41","41","5.0.14.0","2","145","trial1","naming","0","0","0","0","ASHTRAY","0","3562","1","White_Screen.jpg","8","189","Ashtray_Empty.jpg","8"
"022420","15:32:55","41","41","5.0.14.0","2","146","trial1","naming","0","0","0","0","FOLDING CHAIR","0","4321","1","White_Screen.jpg","7","184","Chair_Folding.jpg","7"
"022420","15:32:55","41","41","5.0.14.0","2","147","trial1","naming","0","0","0","0","SQUILL","0","3839","1","White_Screen.jpg","8","27","Pen_Calligraphy.jpg","8"
"022420","15:32:55","41","41","5.0.14.0","2","148","trial1","naming","0","0","0","0","STETHOSCOPE","0","7796","1","White_Screen.jpg","6","87","DoorHandle.jpg","6"
"022420","15:32:55","41","41","5.0.14.0","2","149","trial1","naming","0","0","0","0","WALLET","0","2935","1","White_Screen.jpg","6","61","Wallet_ClosedBlack.jpg","6"
"022420","15:32:55","41","41","5.0.14.0","2","150","trial1","naming","0","0","0","0","FAN","0","2383","1","White_Screen.jpg","7","166","Fan_Ceiling.jpg","7"
"022420","15:32:55","41","41","5.0.14.0","2","151","trial1","naming","0","0","0","0","FILM","0","3709","1","White_Screen.jpg","7","151","Film_Single.jpg","7"
"022420","15:32:55","41","41","5.0.14.0","2","152","trial1","naming","0","0","0","0","RUG","0","3004","1","White_Screen.jpg","8","33","RugRoled.jpg","8"
"022420","15:32:55","41","41","5.0.14.0","2","154","trial1","naming","0","0","0","0","SIGN","0","4843","1","White_Screen.jpg","6","72","Sign_Washroom.jpg","6"
"022420","15:32:55","41","41","5.0.14.0","2","155","trial1","naming","0","0","0","0","PAN","0","3293","1","White_Screen.jpg","6","68","BakingDish.jpg","6"
"022420","15:32:55","41","41","5.0.14.0","2","156","trial1","naming","0","0","0","0","TOILET","0","3262","1","White_Screen.jpg","6","139","Toilet.jpg","6"
"022420","15:32:55","41","41","5.0.14.0","2","157","trial1","naming","0","0","0","0","GAME","0","7016","1","White_Screen.jpg","7","104","Fencing_HelmetSwords.jpg","7"
"022420","15:32:55","41","41","5.0.14.0","2","158","trial1","naming","0","0","0","0","CHILI PEPPER","0","4753","1","White_Screen.jpg","10","81","Pepper_Chili.jpg","10"
"022420","15:32:55","41","41","5.0.14.0","2","159","trial1","naming","0","0","0","0","CRAB","0","2561","1","White_Screen.jpg","7","5","Crab.jpg","7"
"022420","15:32:55","41","41","5.0.14.0","2","160","trial1","naming","0","0","0","0","BLOCKS","0","2552","1","White_Screen.jpg","6","161","Toy_BlocksWoodenPlain.jpg","6"
"022420","15:32:55","41","41","5.0.14.0","2","161","trial1","naming","0","0","0","0","WICKER CRIB","0","5637","1","White_Screen.jpg","9","30","Crib_Basket.jpg","9"
"022420","15:32:55","41","41","5.0.14.0","2","162","trial1","naming","0","0","0","0","FRENCH FRIES","0","3698","1","White_Screen.jpg","6","120","fries.jpg","6"
"022420","15:32:55","41","41","5.0.14.0","2","163","trial1","naming","0","0","0","0","CORK BOARD","0","5179","1","White_Screen.jpg","7","3","Corkboard.jpg","7"
"022420","15:32:55","41","41","5.0.14.0","2","164","trial1","naming","0","0","0","0","VEGETABLE GARDEN ","0","8440","1","White_Screen.jpg","6","145","HandRake.jpg","6"
"022420","15:32:55","41","41","5.0.14.0","2","165","trial1","naming","0","0","0","0","LIQUIR BOX","0","7039","1","White_Screen.jpg","8","130","Box_Wine.jpg","8"
"022420","15:32:55","41","41","5.0.14.0","2","166","trial1","naming","0","0","0","0","SCALE","0","3482","1","White_Screen.jpg","6","144","ScaleWeighing.jpg","6"
"022420","15:32:55","41","41","5.0.14.0","2","167","trial1","naming","0","0","0","0","HOE","0","2191","1","White_Screen.jpg","12","22","Shovel_Garden.jpg","12"
"022420","15:32:55","41","41","5.0.14.0","2","168","trial1","naming","0","0","0","0","WISHING WELL","0","4033","1","White_Screen.jpg","7","112","WaterWell.jpg","7"
"022420","15:32:55","41","41","5.0.14.0","2","169","trial1","naming","0","0","0","0","KLEENEX","0","3180","1","White_Screen.jpg","7","128","TissueBox.jpg","7"
"022420","15:32:55","41","41","5.0.14.0","2","170","trial1","naming","0","0","0","0","CANDY CANE","0","3202","1","White_Screen.jpg","7","69","Candy_Cane.jpg","7"
"022420","15:32:55","41","41","5.0.14.0","2","171","trial1","naming","0","0","0","0","DUST PAN","0","5151","1","White_Screen.jpg","7","116","DustPan.jpg","7"
"022420","15:32:55","41","41","5.0.14.0","2","172","trial1","naming","0","0","0","0","MATCH","0","3285","1","White_Screen.jpg","7","185","Match.jpg","7"
"022420","15:32:55","41","41","5.0.14.0","2","173","trial1","naming","0","0","0","0","HOUSE","0","2598","1","White_Screen.jpg","8","165","House_Doll.jpg","8"
"022420","15:32:55","41","41","5.0.14.0","2","174","trial1","naming","0","0","0","0","BURNER","0","2724","1","White_Screen.jpg","6","78","Stovetop.jpg","6"
"022420","15:32:55","41","41","5.0.14.0","2","175","trial1","naming","0","0","0","0","SPOON","0","2556","1","White_Screen.jpg","7","118","Spoon_Sugar.jpg","7"
"022420","15:32:55","41","41","5.0.14.0","2","176","trial1","naming","0","0","0","0","AIRPLANE","0","3002","1","White_Screen.jpg","9","53","Airplane_Small.jpg","9"
"022420","15:32:55","41","41","5.0.14.0","2","177","trial1","naming","0","0","0","0","HOCKEY STICK","0","4870","1","White_Screen.jpg","9","14","Toy_HockeyStick.jpg","9"
"022420","15:32:55","41","41","5.0.14.0","2","178","trial1","naming","0","0","0","0","WINE","0","3041","1","White_Screen.jpg","7","38","Bottle_Champagne.jpg","7"
"022420","15:32:55","41","41","5.0.14.0","2","179","trial1","naming","0","0","0","0","ROLLED UP MAG","0","5371","1","White_Screen.jpg","8","55","MagazineRoll.jpg","8"
"022420","15:32:55","41","41","5.0.14.0","2","180","trial1","naming","0","0","0","0","PLATE CHOPSTICKS","0","8401","1","White_Screen.jpg","6","125","Bowl_Chopsticks.jpg","6"
"022420","15:32:55","41","41","5.0.14.0","2","181","trial1","naming","0","0","0","0","GUITAR","0","2828","1","White_Screen.jpg","6","152","Guitar_Electric.jpg","6"
"022420","15:32:55","41","41","5.0.14.0","2","182","trial1","naming","0","0","0","0","SLIDE","0","2735","1","White_Screen.jpg","7","94","Toy_Slide.jpg","7"
