"date","time","group","subject","build","blocknum","trialnum","blockcode","trialcode","pretrialpause","posttrialpause","trialduration","trialtimeout","response","correct","latency","stimulusnumber1","stimulusitem1","stimulusonset1","stimulusnumber2","stimulusitem2","stimulusonset2"
"070419","17:35:01","1","1","5.0.14.0","2","1","trial1","naming","0","0","0","0","ship","0","5275","1","White_Screen.jpg","50","92","Ship_Battle.jpg","50"
"070419","17:35:01","1","1","5.0.14.0","2","2","trial1","naming","0","0","0","0","rug","0","3188","1","White_Screen.jpg","18","33","RugRoled.jpg","18"
"070419","17:35:01","1","1","5.0.14.0","2","3","trial1","naming","0","0","0","0","lips","0","2960","1","White_Screen.jpg","17","138","Lips_Wax.jpg","17"
"070419","17:35:01","1","1","5.0.14.0","2","4","trial1","naming","0","0","0","0","scarecrow","0","3471","1","White_Screen.jpg","18","47","Scarecrow.jpg","18"
"070419","17:35:01","1","1","5.0.14.0","2","5","trial1","naming","0","0","0","0","pot","0","4881","1","White_Screen.jpg","18","141","Jug_ClayAncient.jpg","18"
"070419","17:35:01","1","1","5.0.14.0","2","6","trial1","naming","0","0","0","0","pear","0","1648","1","White_Screen.jpg","18","31","Pear_Green.jpg","18"
"070419","17:35:01","1","1","5.0.14.0","2","7","trial1","naming","0","0","0","0","hedgehog","0","5884","1","White_Screen.jpg","18","200","Hedgehog.jpg","18"
"070419","17:35:01","1","1","5.0.14.0","2","8","trial1","naming","0","0","0","0","lolipop","0","2810","1","White_Screen.jpg","18","198","Lollipop_Rainbow.jpg","18"
"070419","17:35:01","1","1","5.0.14.0","2","9","trial1","naming","0","0","0","0","golf club","0","2966","1","White_Screen.jpg","17","180","Golf_Club.jpg","17"
"070419","17:35:01","1","1","5.0.14.0","2","10","trial1","naming","0","0","0","0","artichoke","0","2811","1","White_Screen.jpg","18","49","Artichoke.jpg","18"
"070419","17:35:01","1","1","5.0.14.0","2","11","trial1","naming","0","0","0","0","matchstick","0","3432","1","White_Screen.jpg","18","185","Match.jpg","18"
"070419","17:35:01","1","1","5.0.14.0","2","12","trial1","naming","0","0","0","0","starfish","0","2354","1","White_Screen.jpg","17","48","Starfish.jpg","17"
"070419","17:35:01","1","1","5.0.14.0","2","13","trial1","naming","0","0","0","0","lizard","0","2617","1","White_Screen.jpg","18","28","Toy_Lizard.jpg","18"
"070419","17:35:01","1","1","5.0.14.0","2","14","trial1","naming","0","0","0","0","doctors office toy","0","5213","1","White_Screen.jpg","18","80","Toy_BeadMaze.jpg","18"
"070419","17:35:01","1","1","5.0.14.0","2","15","trial1","naming","0","0","0","0","megaphone","0","6119","1","White_Screen.jpg","19","17","Megaphone.jpg","19"
"070419","17:35:01","1","1","5.0.14.0","2","16","trial1","naming","0","0","0","0","hammock","0","3220","1","White_Screen.jpg","18","57","Hammock.jpg","18"
"070419","17:35:01","1","1","5.0.14.0","2","17","trial1","naming","0","0","0","0","Ctrl+'Q'","1","3633","1","White_Screen.jpg","17","84","Truck_Pickup.jpg","17"
"070819","11:43:11","3","3","5.0.14.0","2","1","trial1","naming","0","0","0","0","paper clipEnter Name","0","10000","1","White_Screen.jpg","178","157","Clip_Paper.jpg","178"
"070819","11:43:11","3","3","5.0.14.0","2","2","trial1","naming","0","0","0","0","Enter Name","0","540","1","White_Screen.jpg","15","44","Toy_DinosaurTRex.jpg","15"
"070819","11:43:11","3","3","5.0.14.0","2","3","trial1","naming","0","0","0","0","sledEnter Name","0","4184","1","White_Screen.jpg","15","122","DogSled.jpg","15"
"070819","11:43:11","3","3","5.0.14.0","2","4","trial1","naming","0","0","0","0","peaEnter Name","0","3810","1","White_Screen.jpg","16","159","StringBean.jpg","16"
"070819","11:43:11","3","3","5.0.14.0","2","5","trial1","naming","0","0","0","0","chimesEnter Name","0","4470","1","White_Screen.jpg","16","121","Chime.jpg","16"
"070819","11:43:11","3","3","5.0.14.0","2","6","trial1","naming","0","0","0","0","snowmanEnter Name","0","4834","1","White_Screen.jpg","16","194","SnowmanDecor.jpg","16"
"070819","11:43:11","3","3","5.0.14.0","2","7","trial1","naming","0","0","0","0","ashtrayEnter Name","0","4860","1","White_Screen.jpg","14","189","Ashtray_Empty.jpg","14"
"070819","11:43:11","3","3","5.0.14.0","2","8","trial1","naming","0","0","0","0","sundaeEnter Name","0","5113","1","White_Screen.jpg","16","51","SundaeBanana.jpg","16"
"070819","11:43:11","3","3","5.0.14.0","2","9","trial1","naming","0","0","0","0","dustpanEnter Name","0","5784","1","White_Screen.jpg","13","116","DustPan.jpg","13"
"070819","11:43:11","3","3","5.0.14.0","2","10","trial1","naming","0","0","0","0","walkie talkieEnter Name","0","7270","1","White_Screen.jpg","14","18","WalkieTalkie_Red.jpg","14"
"070819","11:43:11","3","3","5.0.14.0","2","11","trial1","naming","0","0","0","0","fountainEnter Name","0","9366","1","White_Screen.jpg","17","16","SlushieMachine.jpg","17"
"070819","11:43:11","3","3","5.0.14.0","2","12","trial1","naming","0","0","0","0","vitaminsEnter Name","0","6391","1","White_Screen.jpg","16","46","PillBottle_Spilled.jpg","16"
"070819","11:43:11","3","3","5.0.14.0","2","13","trial1","naming","0","0","0","0","signEnter Name","0","2960","1","White_Screen.jpg","15","175","Sign_NoParking.jpg","15"
"070819","11:43:11","3","3","5.0.14.0","2","14","trial1","naming","0","0","0","0","hutEnter Name","0","3200","1","White_Screen.jpg","17","66","Gazebo.jpg","17"
"070819","11:43:11","3","3","5.0.14.0","2","15","trial1","naming","0","0","0","0","wellEnter Name","0","3116","1","White_Screen.jpg","15","112","WaterWell.jpg","15"
"070819","11:43:11","3","3","5.0.14.0","2","16","trial1","naming","0","0","0","0","needleEnter Name","0","4257","1","White_Screen.jpg","17","150","Syringe_Needle.jpg","17"
"070819","11:43:11","3","3","5.0.14.0","2","17","trial1","naming","0","0","0","0","turtleEnter Name","0","4142","1","White_Screen.jpg","17","79","Turtle.jpg","17"
"070819","11:43:11","3","3","5.0.14.0","2","18","trial1","naming","0","0","0","0","megaphoneEnter Name","0","6718","1","White_Screen.jpg","14","17","Megaphone.jpg","14"
"070819","11:43:11","3","3","5.0.14.0","2","19","trial1","naming","0","0","0","0","toyEnter Name","0","4717","1","White_Screen.jpg","21","80","Toy_BeadMaze.jpg","21"
"070819","11:43:11","3","3","5.0.14.0","2","20","trial1","naming","0","0","0","0","clothes stanEnter Name","0","9416","1","White_Screen.jpg","14","54","DryRack_Clothes.jpg","14"
"070819","11:43:11","3","3","5.0.14.0","2","21","trial1","naming","0","0","0","0","pickEnter Name","0","7904","1","White_Screen.jpg","15","1","Icepick.jpg","15"
"070819","11:43:11","3","3","5.0.14.0","2","22","trial1","naming","0","0","0","0","containerEnter Name","0","6533","1","White_Screen.jpg","16","190","Bottle_Specimen.jpg","16"
"070819","11:43:11","3","3","5.0.14.0","2","23","trial1","naming","0","0","0","0","clEnter Name","0","10000","1","White_Screen.jpg","15","2","ShearsGarden.jpg","15"
"070819","11:43:11","3","3","5.0.14.0","2","24","trial1","naming","0","0","0","0","clipperEnter Name","0","7528","1","White_Screen.jpg","18","188","Tray_Cafeteria.jpg","18"
"070819","11:43:11","3","3","5.0.14.0","2","25","trial1","naming","0","0","0","0","hoseEnter Name","0","3267","1","White_Screen.jpg","15","167","VacuumHose.jpg","15"
"070819","11:43:11","3","3","5.0.14.0","2","26","trial1","naming","0","0","0","0","staplesEnter Name","0","4265","1","White_Screen.jpg","16","162","Box_Staples.jpg","16"
"070819","11:43:11","3","3","5.0.14.0","2","27","trial1","naming","0","0","0","0","deckchairEnter Name","0","4710","1","White_Screen.jpg","18","117","Chair_Deck.jpg","18"
"070819","11:43:11","3","3","5.0.14.0","2","28","trial1","naming","0","0","0","0","shellEnter Name","0","3693","1","White_Screen.jpg","14","177","Snail.jpg","14"
"070819","11:43:11","3","3","5.0.14.0","2","29","trial1","naming","0","0","0","0","rugEnter Name","0","2357","1","White_Screen.jpg","14","33","RugRoled.jpg","14"
"070819","11:43:11","3","3","5.0.14.0","2","30","trial1","naming","0","0","0","0","spoonEnter Name","0","4423","1","White_Screen.jpg","14","39","Spoon_Wooden.jpg","14"
"070819","11:43:11","3","3","5.0.14.0","2","31","trial1","naming","0","0","0","0","trolleyEnter Name","0","4165","1","White_Screen.jpg","17","56","Cart_Groceries.jpg","17"
"070819","11:43:11","3","3","5.0.14.0","2","32","trial1","naming","0","0","0","0","burnerEnter Name","0","4140","1","White_Screen.jpg","16","78","Stovetop.jpg","16"
"070819","11:43:11","3","3","5.0.14.0","2","33","trial1","naming","0","0","0","0","truckEnter Name","0","5209","1","White_Screen.jpg","14","84","Truck_Pickup.jpg","14"
"070819","11:43:11","3","3","5.0.14.0","2","34","trial1","naming","0","0","0","0","signEnter Name","0","2992","1","White_Screen.jpg","17","72","Sign_Washroom.jpg","17"
"070819","11:43:11","3","3","5.0.14.0","2","35","trial1","naming","0","0","0","0","houseEnter Name","0","3653","1","White_Screen.jpg","15","165","House_Doll.jpg","15"
"070819","11:43:11","3","3","5.0.14.0","2","36","trial1","naming","0","0","0","0","blanketEnter Name","0","5387","1","White_Screen.jpg","15","26","Cast.jpg","15"
"070819","11:43:11","3","3","5.0.14.0","2","37","trial1","naming","0","0","0","0","discEnter Name","0","3889","1","White_Screen.jpg","15","9","Case_DVD.jpg","15"
"070819","11:43:11","3","3","5.0.14.0","2","38","trial1","naming","0","0","0","0","chipsEnter Name","0","4150","1","White_Screen.jpg","18","137","PokerChips.jpg","18"
"070819","11:43:11","3","3","5.0.14.0","2","39","trial1","naming","0","0","0","0","hatEnter Name","0","2939","1","White_Screen.jpg","17","133","Hat_Beanie.jpg","17"
"070819","11:43:11","3","3","5.0.14.0","2","40","trial1","naming","0","0","0","0","shortsEnter Name","0","7287","1","White_Screen.jpg","16","85","Pajamas.jpg","16"
"070819","11:43:11","3","3","5.0.14.0","2","41","trial1","naming","0","0","0","0","maskEnter Name","0","4588","1","White_Screen.jpg","15","52","Mask_African.jpg","15"
"070819","11:43:11","3","3","5.0.14.0","2","42","trial1","naming","0","0","0","0","oragamiEnter Name","0","6584","1","White_Screen.jpg","14","171","Origami_Boat.jpg","14"
"070819","11:43:11","3","3","5.0.14.0","2","43","trial1","naming","0","0","0","0","rakeEnter Name","0","3712","1","White_Screen.jpg","17","145","HandRake.jpg","17"
"070819","11:43:11","3","3","5.0.14.0","2","44","trial1","naming","0","0","0","0","stubsEnter Name","0","4224","1","White_Screen.jpg","15","155","Tickets_PrintWords.jpg","15"
"070819","11:43:11","3","3","5.0.14.0","2","45","trial1","naming","0","0","0","0","matchEnter Name","0","3045","1","White_Screen.jpg","16","185","Match.jpg","16"
"070819","11:43:11","3","3","5.0.14.0","2","46","trial1","naming","0","0","0","0","chair","0","9418","1","White_Screen.jpg","22","192","Chair_Bamboo.jpg","22"
"070819","11:43:11","3","3","5.0.14.0","2","47","trial1","naming","0","0","0","0","Ctrl+'Q'","1","6300","1","White_Screen.jpg","15","113","SkullDeer.jpg","15"
"070819","11:35:17","4","4","5.0.14.0","2","1","trial1","naming","0","0","0","0","pumice","0","10000","1","White_Screen.jpg","47","21","PumiceStone.jpg","47"
"070819","11:35:17","4","4","5.0.14.0","2","2","trial1","naming","0","0","0","0","stuffed animal","0","5672","1","White_Screen.jpg","14","41","Toy_Dog.jpg","14"
"070819","11:35:17","4","4","5.0.14.0","2","3","trial1","naming","0","0","0","0","ticket","0","4627","1","White_Screen.jpg","18","155","Tickets_PrintWords.jpg","18"
"070819","11:35:17","4","4","5.0.14.0","2","4","trial1","naming","0","0","0","0","glass","0","3523","1","White_Screen.jpg","10","42","Glass_Cup.jpg","10"
"070819","11:35:17","4","4","5.0.14.0","2","5","trial1","naming","0","0","0","0","candy dispenser","0","8462","1","White_Screen.jpg","14","90","CandyDispenser.jpg","14"
"070819","11:35:17","4","4","5.0.14.0","2","6","trial1","naming","0","0","0","0","spade","0","8735","1","White_Screen.jpg","19","22","Shovel_Garden.jpg","19"
"070819","11:35:17","4","4","5.0.14.0","2","7","trial1","naming","0","0","0","0","pig","0","4076","1","White_Screen.jpg","14","95","Pig.jpg","14"
"070819","11:35:17","4","4","5.0.14.0","2","8","trial1","naming","0","0","0","0","barrel","0","4847","1","White_Screen.jpg","10","178","Barrel_Wine.jpg","10"
"070819","11:35:17","4","4","5.0.14.0","2","9","trial1","naming","0","0","0","0","statue","0","3614","1","White_Screen.jpg","13","163","Statue_ManHorse.jpg","13"
"070819","11:35:17","4","4","5.0.14.0","2","10","trial1","naming","0","0","0","0","cap","0","3402","1","White_Screen.jpg","15","109","CapGraduation.jpg","15"
"070819","11:35:17","4","4","5.0.14.0","2","11","trial1","naming","0","0","0","0","scooper","0","7366","1","White_Screen.jpg","16","60","Scoop_IceCream.jpg","16"
"070819","11:35:17","4","4","5.0.14.0","2","12","trial1","naming","0","0","0","0","keyboard","0","3490","1","White_Screen.jpg","14","170","ComputerKeyboard.jpg","14"
"070819","11:35:17","4","4","5.0.14.0","2","13","trial1","naming","0","0","0","0","thimble","0","3530","1","White_Screen.jpg","9","160","Thimble.jpg","9"
"070819","11:35:17","4","4","5.0.14.0","2","14","trial1","naming","0","0","0","0","bone","0","5015","1","White_Screen.jpg","10","4","DogTreat.jpg","10"
"070819","11:35:17","4","4","5.0.14.0","2","15","trial1","naming","0","0","0","0","cable splitter","0","6453","1","White_Screen.jpg","15","142","Cable_AudioSplitter.jpg","15"
"070819","11:35:17","4","4","5.0.14.0","2","16","trial1","naming","0","0","0","0","spoon of sugar","0","7743","1","White_Screen.jpg","12","118","Spoon_Sugar.jpg","12"
"070819","11:35:17","4","4","5.0.14.0","2","17","trial1","naming","0","0","0","0","disk","0","2858","1","White_Screen.jpg","12","82","FloppyDisk.jpg","12"
"070819","11:35:17","4","4","5.0.14.0","2","18","trial1","naming","0","0","0","0","walkie talkie","0","7194","1","White_Screen.jpg","14","18","WalkieTalkie_Red.jpg","14"
"070819","11:35:17","4","4","5.0.14.0","2","19","trial1","naming","0","0","0","0","nightstand","0","5785","1","White_Screen.jpg","14","7","Nightstand.jpg","14"
"070819","11:35:17","4","4","5.0.14.0","2","20","trial1","naming","0","0","0","0","rug","0","2726","1","White_Screen.jpg","14","33","RugRoled.jpg","14"
"070819","11:35:17","4","4","5.0.14.0","2","21","trial1","naming","0","0","0","0","guitar","0","3152","1","White_Screen.jpg","13","35","Guitar_Acoustic.jpg","13"
"070819","11:35:17","4","4","5.0.14.0","2","22","trial1","naming","0","0","0","0","power switch","0","4279","1","White_Screen.jpg","13","67","Switch_Power.jpg","13"
"070819","11:35:17","4","4","5.0.14.0","2","23","trial1","naming","0","0","0","0","scarecrow","0","4644","1","White_Screen.jpg","13","47","Scarecrow.jpg","13"
"070819","11:35:17","4","4","5.0.14.0","2","24","trial1","naming","0","0","0","0","chair","0","4132","1","White_Screen.jpg","12","192","Chair_Bamboo.jpg","12"
"070819","11:35:17","4","4","5.0.14.0","2","25","trial1","naming","0","0","0","0","totem","0","8466","1","White_Screen.jpg","12","52","Mask_African.jpg","12"
"070819","11:35:17","4","4","5.0.14.0","2","26","trial1","naming","0","0","0","0","lion","0","3338","1","White_Screen.jpg","16","134","Lion.jpg","16"
"070819","11:35:17","4","4","5.0.14.0","2","27","trial1","naming","0","0","0","0","windshield fluid","0","6990","1","White_Screen.jpg","8","110","WindshieldWasherFluid.jpg","8"
"070819","11:35:17","4","4","5.0.14.0","2","28","trial1","naming","0","0","0","0","pillow","0","6094","1","White_Screen.jpg","15","8","Neckrest.jpg","15"
"070819","11:35:17","4","4","5.0.14.0","2","29","trial1","naming","0","0","0","0","drum","0","3189","1","White_Screen.jpg","16","102","Drum_Tall.jpg","16"
"070819","11:35:17","4","4","5.0.14.0","2","30","trial1","naming","0","0","0","0","pliers","0","4202","1","White_Screen.jpg","10","20","Pliers_ViceGrip.jpg","10"
"070819","11:35:17","4","4","5.0.14.0","2","31","trial1","naming","0","0","0","0","caraffe","0","7813","1","White_Screen.jpg","11","141","Jug_ClayAncient.jpg","11"
"070819","11:35:17","4","4","5.0.14.0","2","32","trial1","naming","0","0","0","0","truck","0","4451","1","White_Screen.jpg","15","84","Truck_Pickup.jpg","15"
"070819","11:35:17","4","4","5.0.14.0","2","33","trial1","naming","0","0","0","0","porcupine","0","4483","1","White_Screen.jpg","16","200","Hedgehog.jpg","16"
"070819","11:35:17","4","4","5.0.14.0","2","34","trial1","naming","0","0","0","0","burner","0","4991","1","White_Screen.jpg","14","78","Stovetop.jpg","14"
"070819","11:35:17","4","4","5.0.14.0","2","35","trial1","naming","0","0","0","0","fencing mask","0","5823","1","White_Screen.jpg","11","104","Fencing_HelmetSwords.jpg","11"
"070819","11:35:17","4","4","5.0.14.0","2","36","trial1","naming","0","0","0","0","meter","0","7359","1","White_Screen.jpg","13","127","MeterElectric.jpg","13"
"070819","11:35:17","4","4","5.0.14.0","2","37","trial1","naming","0","0","0","0","clothes","0","9078","1","White_Screen.jpg","14","85","Pajamas.jpg","14"
"070819","11:35:17","4","4","5.0.14.0","2","38","trial1","naming","0","0","0","0","record","0","5906","1","White_Screen.jpg","16","34","VinylRecord.jpg","16"
"070819","11:35:17","4","4","5.0.14.0","2","39","trial1","naming","0","0","0","0","ball","0","6678","1","White_Screen.jpg","10","187","Ball_Squashball.jpg","10"
"070819","11:35:17","4","4","5.0.14.0","2","40","trial1","naming","0","0","0","0","cabin","0","4826","1","White_Screen.jpg","20","77","House_Wooden.jpg","20"
"070819","11:35:17","4","4","5.0.14.0","2","41","trial1","naming","0","0","0","0","hammock","0","7164","1","White_Screen.jpg","14","57","Hammock.jpg","14"
"070819","11:35:17","4","4","5.0.14.0","2","42","trial1","naming","0","0","0","0","tripod","0","3509","1","White_Screen.jpg","12","36","Tripod.jpg","12"
"070819","11:35:17","4","4","5.0.14.0","2","43","trial1","naming","0","0","0","0","paper clip","0","4129","1","White_Screen.jpg","12","157","Clip_Paper.jpg","12"
"070819","11:35:17","4","4","5.0.14.0","2","44","trial1","naming","0","0","0","0","model house","0","8385","1","White_Screen.jpg","12","99","PagodaModel.jpg","12"
"070819","11:35:17","4","4","5.0.14.0","2","45","trial1","naming","0","0","0","0","diaper","0","7787","1","White_Screen.jpg","15","26","Cast.jpg","15"
"070819","11:35:17","4","4","5.0.14.0","2","46","trial1","naming","0","0","0","0","candy cane","0","4725","1","White_Screen.jpg","15","69","Candy_Cane.jpg","15"
"070819","11:35:17","4","4","5.0.14.0","2","47","trial1","naming","0","0","0","0","fire suit","0","5673","1","White_Screen.jpg","14","106","Pants_Firefighter.jpg","14"
"070819","11:35:17","4","4","5.0.14.0","2","48","trial1","naming","0","0","0","0","do","0","10000","1","White_Screen.jpg","12","93","DoorBolt.jpg","12"
"070819","11:35:17","4","4","5.0.14.0","2","49","trial1","naming","0","0","0","0","tiles","0","4129","1","White_Screen.jpg","15","74","Scrabble.jpg","15"
"070819","11:35:17","4","4","5.0.14.0","2","50","trial1","naming","0","0","0","0","cards","0","5214","1","White_Screen.jpg","12","191","Card_QueenSpade.jpg","12"
"070819","11:35:17","4","4","5.0.14.0","2","52","trial1","naming","0","0","0","0","measure","0","5208","1","White_Screen.jpg","10","131","MixingGlass.jpg","10"
"070819","11:35:17","4","4","5.0.14.0","2","53","trial1","naming","0","0","0","0","tray","0","5062","1","White_Screen.jpg","15","188","Tray_Cafeteria.jpg","15"
"070819","11:35:17","4","4","5.0.14.0","2","54","trial1","naming","0","0","0","0","sundae","0","6356","1","White_Screen.jpg","13","51","SundaeBanana.jpg","13"
"070819","11:35:17","4","4","5.0.14.0","2","55","trial1","naming","0","0","0","0","crab","0","3583","1","White_Screen.jpg","10","5","Crab.jpg","10"
"070819","11:35:17","4","4","5.0.14.0","2","56","trial1","naming","0","0","0","0","sink stopper","0","5785","1","White_Screen.jpg","15","101","DrainPlug.jpg","15"
"070819","11:35:17","4","4","5.0.14.0","2","57","trial1","naming","0","0","0","0","pencil sharpener","0","5309","1","White_Screen.jpg","10","199","PencilSharpener.jpg","10"
"070819","11:35:17","4","4","5.0.14.0","2","58","trial1","naming","0","0","0","0","strawberry shortcake","0","6369","1","White_Screen.jpg","11","100","TartStrawberry.jpg","11"
"070819","11:35:17","4","4","5.0.14.0","2","59","trial1","naming","0","0","0","0","telecaster","0","6990","1","White_Screen.jpg","12","152","Guitar_Electric.jpg","12"
"070819","11:35:17","4","4","5.0.14.0","2","60","trial1","naming","0","0","0","0","bathroom sign","0","4985","1","White_Screen.jpg","15","72","Sign_Washroom.jpg","15"
"070819","11:35:17","4","4","5.0.14.0","2","61","trial1","naming","0","0","0","0","radio","0","3641","1","White_Screen.jpg","14","91","Radio_Antique.jpg","14"
"070819","11:35:17","4","4","5.0.14.0","2","62","trial1","naming","0","0","0","0","chair","0","5072","1","White_Screen.jpg","13","184","Chair_Folding.jpg","13"
"070819","11:35:17","4","4","5.0.14.0","2","63","trial1","naming","0","0","0","0","chimes","0","4592","1","White_Screen.jpg","13","121","Chime.jpg","13"
"070819","11:35:17","4","4","5.0.14.0","2","64","trial1","naming","0","0","0","0","phone case","0","4123","1","White_Screen.jpg","11","111","PhoneCase.jpg","11"
"070819","11:35:17","4","4","5.0.14.0","2","65","trial1","naming","0","0","0","0","doll house","0","5055","1","White_Screen.jpg","11","165","House_Doll.jpg","11"
"070819","11:35:17","4","4","5.0.14.0","2","66","trial1","naming","0","0","0","0","av plug","0","8162","1","White_Screen.jpg","10","13","HDMIConnector.jpg","10"
"070819","11:35:17","4","4","5.0.14.0","2","67","trial1","naming","0","0","0","0","first aid kit","0","5578","1","White_Screen.jpg","13","193","Box_FirstAid.jpg","13"
"070819","11:35:17","4","4","5.0.14.0","2","68","trial1","naming","0","0","0","0","stopper","0","8191","1","White_Screen.jpg","13","87","DoorHandle.jpg","13"
"070819","11:35:17","4","4","5.0.14.0","2","69","trial1","naming","0","0","0","0","prong","0","8185","1","White_Screen.jpg","8","145","HandRake.jpg","8"
"070819","11:35:17","4","4","5.0.14.0","2","70","trial1","naming","0","0","0","0","utility tool","0","8738","1","White_Screen.jpg","14","147","Knife_Camping.jpg","14"
"070819","11:35:17","4","4","5.0.14.0","2","71","trial1","naming","0","0","0","0","cup","0","6050","1","White_Screen.jpg","11","174","Brace_Back.jpg","11"
"070819","11:35:17","4","4","5.0.14.0","2","72","trial1","naming","0","0","0","0","sunglasses","0","4493","1","White_Screen.jpg","17","98","Glasses_Sun.jpg","17"
"070819","11:35:17","4","4","5.0.14.0","2","73","trial1","naming","0","0","0","0","green bean","0","5393","1","White_Screen.jpg","14","159","StringBean.jpg","14"
"070819","11:35:17","4","4","5.0.14.0","2","74","trial1","naming","0","0","0","0","pill bottle","0","3924","1","White_Screen.jpg","14","190","Bottle_Specimen.jpg","14"
"070819","11:35:17","4","4","5.0.14.0","2","75","trial1","naming","0","0","0","0","dogsled","0","4816","1","White_Screen.jpg","13","122","DogSled.jpg","13"
"070819","11:35:17","4","4","5.0.14.0","2","76","trial1","naming","0","0","0","0","corkboard","0","5450","1","White_Screen.jpg","16","3","Corkboard.jpg","16"
"070819","11:35:17","4","4","5.0.14.0","2","77","trial1","naming","0","0","0","0","change","0","4758","1","White_Screen.jpg","15","172","CoinRolls.jpg","15"
"070819","11:35:17","4","4","5.0.14.0","2","78","trial1","naming","0","0","0","0","phone booth","0","5402","1","White_Screen.jpg","12","37","Telephone_Booth.jpg","12"
"070819","11:35:17","4","4","5.0.14.0","2","79","trial1","naming","0","0","0","0","water dial","0","7993","1","White_Screen.jpg","12","73","Fuse.jpg","12"
"070819","11:35:17","4","4","5.0.14.0","2","80","trial1","naming","0","0","0","0","dvd","0","3685","1","White_Screen.jpg","8","9","Case_DVD.jpg","8"
"070819","11:35:17","4","4","5.0.14.0","2","81","trial1","naming","0","0","0","0","battleship","0","4447","1","White_Screen.jpg","15","92","Ship_Battle.jpg","15"
"070819","11:35:17","4","4","5.0.14.0","2","82","trial1","naming","0","0","0","0","archway","0","3676","1","White_Screen.jpg","13","15","Arch.jpg","13"
"070819","11:35:17","4","4","5.0.14.0","2","83","trial1","naming","0","0","0","0","skull","0","8212","1","White_Screen.jpg","10","113","SkullDeer.jpg","10"
"070819","11:35:17","4","4","5.0.14.0","2","84","trial1","naming","0","0","0","0","package","0","4389","1","White_Screen.jpg","15","32","Parcel.jpg","15"
"070819","11:35:17","4","4","5.0.14.0","2","85","trial1","naming","0","0","0","0","cobra","0","8306","1","White_Screen.jpg","10","58","Snake_Cobra.jpg","10"
"070819","11:35:17","4","4","5.0.14.0","2","86","trial1","naming","0","0","0","0","Enter Name","0","10000","1","White_Screen.jpg","11","66","Gazebo.jpg","11"
"070819","11:35:17","4","4","5.0.14.0","2","87","trial1","naming","0","0","0","0","toy truck","0","4535","1","White_Screen.jpg","12","183","Toy_Truck.jpg","12"
"070819","11:35:17","4","4","5.0.14.0","2","88","trial1","naming","0","0","0","0","french horn","0","3741","1","White_Screen.jpg","13","62","Horn_French.jpg","13"
"070819","11:35:17","4","4","5.0.14.0","2","89","trial1","naming","0","0","0","0","shoulder pads","0","3900","1","White_Screen.jpg","13","164","ShoulderPads.jpg","13"
"070819","11:35:17","4","4","5.0.14.0","2","90","trial1","naming","0","0","0","0","caramels","0","3894","1","White_Screen.jpg","13","43","Candy_Toffee.jpg","13"
"070819","11:35:17","4","4","5.0.14.0","2","91","trial1","naming","0","0","0","0","toy","0","5688","1","White_Screen.jpg","12","80","Toy_BeadMaze.jpg","12"
"070819","11:35:17","4","4","5.0.14.0","2","92","trial1","naming","0","0","0","0","swordfish","0","4338","1","White_Screen.jpg","11","23","Fish_Swordfish.jpg","11"
"070819","11:35:17","4","4","5.0.14.0","2","93","trial1","naming","0","0","0","0","shears","0","3459","1","White_Screen.jpg","12","2","ShearsGarden.jpg","12"
"070819","11:35:17","4","4","5.0.14.0","2","94","trial1","naming","0","0","0","0","snowman","0","3414","1","White_Screen.jpg","10","194","SnowmanDecor.jpg","10"
"070819","11:35:17","4","4","5.0.14.0","2","95","trial1","naming","0","0","0","0","slushie station","0","6845","1","White_Screen.jpg","13","16","SlushieMachine.jpg","13"
"070819","11:35:17","4","4","5.0.14.0","2","96","trial1","naming","0","0","0","0","ash tray","0","3265","1","White_Screen.jpg","12","189","Ashtray_Empty.jpg","12"
"070819","11:35:17","4","4","5.0.14.0","2","97","trial1","naming","0","0","0","0","desk","0","3905","1","White_Screen.jpg","13","64","Desk_School.jpg","13"
"070819","11:35:17","4","4","5.0.14.0","2","98","trial1","naming","0","0","0","0","walkie talkie","0","4888","1","White_Screen.jpg","12","71","WalkieTalkie_Yellow.jpg","12"
"070819","11:35:17","4","4","5.0.14.0","2","99","trial1","naming","0","0","0","0","percussion trainer","0","7496","1","White_Screen.jpg","10","25","CrepeMaker.jpg","10"
"070819","11:35:17","4","4","5.0.14.0","2","100","trial1","naming","0","0","0","0","groceries","0","4591","1","White_Screen.jpg","11","56","Cart_Groceries.jpg","11"
"070819","11:35:17","4","4","5.0.14.0","2","101","trial1","naming","0","0","0","0","basket","0","4550","1","White_Screen.jpg","13","30","Crib_Basket.jpg","13"
"070819","11:35:17","4","4","5.0.14.0","2","103","trial1","naming","0","0","0","0","towel bar","0","5198","1","White_Screen.jpg","9","126","TowelRack_Brown.jpg","9"
"070819","11:35:17","4","4","5.0.14.0","2","104","trial1","naming","0","0","0","0","box","0","4838","1","White_Screen.jpg","9","130","Box_Wine.jpg","9"
"070819","11:35:17","4","4","5.0.14.0","2","105","trial1","naming","0","0","0","0","lei","0","2905","1","White_Screen.jpg","14","50","Lei.jpg","14"
"070819","11:35:17","4","4","5.0.14.0","2","106","trial1","naming","0","0","0","0","jar of cash","0","6653","1","White_Screen.jpg","10","195","Jar_Money.jpg","10"
"070819","11:35:17","4","4","5.0.14.0","2","107","trial1","naming","0","0","0","0","lollipop","0","4092","1","White_Screen.jpg","18","198","Lollipop_Rainbow.jpg","18"
"070819","11:35:17","4","4","5.0.14.0","2","108","trial1","naming","0","0","0","0","clarinet","0","4382","1","White_Screen.jpg","18","105","SaxophoneSoprano.jpg","18"
"070819","11:35:17","4","4","5.0.14.0","2","109","trial1","naming","0","0","0","0","pear","0","2718","1","White_Screen.jpg","16","31","Pear_Green.jpg","16"
"070819","11:35:17","4","4","5.0.14.0","2","110","trial1","naming","0","0","0","0","can opener","0","6737","1","White_Screen.jpg","15","156","BottleOpener.jpg","15"
"070819","11:35:17","4","4","5.0.14.0","2","111","trial1","naming","0","0","0","0","hammerhead shark","0","4436","1","White_Screen.jpg","16","140","Shark_Hammerhead.jpg","16"
"070819","11:35:17","4","4","5.0.14.0","2","112","trial1","naming","0","0","0","0","box of tissues","0","4190","1","White_Screen.jpg","17","128","TissueBox.jpg","17"
"070819","11:35:17","4","4","5.0.14.0","2","113","trial1","naming","0","0","0","0","slide","0","3174","1","White_Screen.jpg","14","94","Toy_Slide.jpg","14"
"070819","11:35:17","4","4","5.0.14.0","2","114","trial1","naming","0","0","0","0","street light","0","5413","1","White_Screen.jpg","14","119","LampPost_OneBulb.jpg","14"
"070819","11:35:17","4","4","5.0.14.0","2","115","trial1","naming","0","0","0","0","clogs","0","4083","1","White_Screen.jpg","13","40","Shoes_DutchClogs.jpg","13"
"070819","11:35:17","4","4","5.0.14.0","2","116","trial1","naming","0","0","0","0","blueprints","0","7037","1","White_Screen.jpg","15","108","Blueprints.jpg","15"
"070819","11:35:17","4","4","5.0.14.0","2","117","trial1","naming","0","0","0","0","roasting pan","0","5762","1","White_Screen.jpg","14","68","BakingDish.jpg","14"
"070819","11:35:17","4","4","5.0.14.0","2","118","trial1","naming","0","0","0","0","toilet","0","3628","1","White_Screen.jpg","12","139","Toilet.jpg","12"
"070819","11:35:17","4","4","5.0.14.0","2","119","trial1","naming","0","0","0","0","clothes rack","0","6462","1","White_Screen.jpg","12","54","DryRack_Clothes.jpg","12"
"070819","11:35:17","4","4","5.0.14.0","2","120","trial1","naming","0","0","0","0","telephone","0","3192","1","White_Screen.jpg","12","132","Telephone_Dial.jpg","12"
"070819","11:35:17","4","4","5.0.14.0","2","121","trial1","naming","0","0","0","0","whoopie cushion","0","6508","1","White_Screen.jpg","12","124","HotWaterBottle.jpg","12"
"070819","11:35:17","4","4","5.0.14.0","2","122","trial1","naming","0","0","0","0","farm e","0","10000","1","White_Screen.jpg","10","70","Seeder.jpg","10"
"070819","11:35:17","4","4","5.0.14.0","2","123","trial1","naming","0","0","0","0","corkscrew","0","5681","1","White_Screen.jpg","17","135","Corkscrew.jpg","17"
"070819","11:35:17","4","4","5.0.14.0","2","124","trial1","naming","0","0","0","0","chili pepper","0","5021","1","White_Screen.jpg","12","81","Pepper_Chili.jpg","12"
"070819","11:35:17","4","4","5.0.14.0","2","125","trial1","naming","0","0","0","0","football player","0","5432","1","White_Screen.jpg","12","136","PlayerFootball.jpg","12"
"070819","11:35:17","4","4","5.0.14.0","2","126","trial1","naming","0","0","0","0","toboggan","0","6277","1","White_Screen.jpg","17","133","Hat_Beanie.jpg","17"
"070819","11:35:17","4","4","5.0.14.0","2","127","trial1","naming","0","0","0","0","teeth","0","6054","1","White_Screen.jpg","14","10","TeethModel.jpg","14"
"070819","11:35:17","4","4","5.0.14.0","2","128","trial1","naming","0","0","0","0","hat","0","3371","1","White_Screen.jpg","14","19","Hat_Sheriff.jpg","14"
"070819","11:35:17","4","4","5.0.14.0","2","129","trial1","naming","0","0","0","0","jewelry box","0","3974","1","White_Screen.jpg","11","154","Box_JeweleryWooden.jpg","11"
"070819","11:35:17","4","4","5.0.14.0","2","130","trial1","naming","0","0","0","0","velvet bag","0","5416","1","White_Screen.jpg","15","129","Pouch_Red.jpg","15"
"070819","11:35:17","4","4","5.0.14.0","2","131","trial1","naming","0","0","0","0","scale","0","3378","1","White_Screen.jpg","14","144","ScaleWeighing.jpg","14"
"070819","11:35:17","4","4","5.0.14.0","2","132","trial1","naming","0","0","0","0","film","0","4454","1","White_Screen.jpg","13","151","Film_Single.jpg","13"
"070819","11:35:17","4","4","5.0.14.0","2","133","trial1","naming","0","0","0","0","rice","0","2859","1","White_Screen.jpg","17","153","RiceRaw.jpg","17"
"070819","11:35:17","4","4","5.0.14.0","2","134","trial1","naming","0","0","0","0","box","0","2704","1","White_Screen.jpg","14","182","Box_Package.jpg","14"
"070819","11:35:17","4","4","5.0.14.0","2","135","trial1","naming","0","0","0","0","pistol","0","3329","1","White_Screen.jpg","11","86","Gun_Revolver.jpg","11"
"070819","11:35:17","4","4","5.0.14.0","2","136","trial1","naming","0","0","0","0","caramel apple","0","4023","1","White_Screen.jpg","14","176","Apple_Candy.jpg","14"
"070819","11:35:17","4","4","5.0.14.0","2","137","trial1","naming","0","0","0","0","cotton balls","0","4598","1","White_Screen.jpg","13","76","Jar_Cotton.jpg","13"
"070819","11:35:17","4","4","5.0.14.0","2","138","trial1","naming","0","0","0","0","skeleton","0","3431","1","White_Screen.jpg","17","45","HumanSkeleton.jpg","17"
"070819","11:35:17","4","4","5.0.14.0","2","139","trial1","naming","0","0","0","0","chopsticks","0","7298","1","White_Screen.jpg","13","125","Bowl_Chopsticks.jpg","13"
"070819","11:35:17","4","4","5.0.14.0","2","140","trial1","naming","0","0","0","0","vacuum hose","0","5230","1","White_Screen.jpg","10","167","VacuumHose.jpg","10"
"070819","11:35:17","4","4","5.0.14.0","2","141","trial1","naming","0","0","0","0","wallet","0","3035","1","White_Screen.jpg","11","61","Wallet_ClosedBlack.jpg","11"
"070819","11:35:17","4","4","5.0.14.0","2","142","trial1","naming","0","0","0","0","chips","0","3067","1","White_Screen.jpg","13","137","PokerChips.jpg","13"
"070819","11:35:17","4","4","5.0.14.0","2","143","trial1","naming","0","0","0","0","skirt","0","2878","1","White_Screen.jpg","13","148","Skirt_Stripes.jpg","13"
"070819","11:35:17","4","4","5.0.14.0","2","144","trial1","naming","0","0","0","0","bag of wheat","0","8443","1","White_Screen.jpg","12","197","Bag_Grains.jpg","12"
"070819","11:35:17","4","4","5.0.14.0","2","145","trial1","naming","0","0","0","0","staples","0","3783","1","White_Screen.jpg","14","162","Box_Staples.jpg","14"
"070819","11:35:17","4","4","5.0.14.0","2","146","trial1","naming","0","0","0","0","hoodie","0","3808","1","White_Screen.jpg","13","173","Hoodie.jpg","13"
"070819","11:35:17","4","4","5.0.14.0","2","147","trial1","naming","0","0","0","0","space heater","0","5120","1","White_Screen.jpg","10","59","Heater_ElectricUpright.jpg","10"
"070819","11:35:17","4","4","5.0.14.0","2","148","trial1","naming","0","0","0","0","pencil","0","6634","1","White_Screen.jpg","16","1","Icepick.jpg","16"
"070819","11:35:17","4","4","5.0.14.0","2","149","trial1","naming","0","0","0","0","salamander","0","4636","1","White_Screen.jpg","15","28","Toy_Lizard.jpg","15"
"070819","11:35:17","4","4","5.0.14.0","2","150","trial1","naming","0","0","0","0","match","0","2907","1","White_Screen.jpg","12","185","Match.jpg","12"
"070819","11:35:17","4","4","5.0.14.0","2","151","trial1","naming","0","0","0","0","tofu","0","3031","1","White_Screen.jpg","12","12","Tofu.jpg","12"
"070819","11:35:17","4","4","5.0.14.0","2","152","trial1","naming","0","0","0","0","wheelbarrow","0","9451","1","White_Screen.jpg","14","123","Cart_Wooden.jpg","14"
"070819","11:35:17","4","4","5.0.14.0","2","154","trial1","naming","0","0","0","0","blocks","0","2957","1","White_Screen.jpg","11","161","Toy_BlocksWoodenPlain.jpg","11"
"070819","11:35:17","4","4","5.0.14.0","2","155","trial1","naming","0","0","0","0","lips","0","5272","1","White_Screen.jpg","17","138","Lips_Wax.jpg","17"
"070819","11:35:17","4","4","5.0.14.0","2","156","trial1","naming","0","0","0","0","lock","0","3299","1","White_Screen.jpg","9","196","Lock_Door.jpg","9"
"070819","11:35:17","4","4","5.0.14.0","2","157","trial1","naming","0","0","0","0","baby carrier","0","8048","1","White_Screen.jpg","16","89","CarSeat.jpg","16"
"070819","11:35:17","4","4","5.0.14.0","2","158","trial1","naming","0","0","0","0","dinosaur","0","3519","1","White_Screen.jpg","13","44","Toy_DinosaurTRex.jpg","13"
"070819","11:35:17","4","4","5.0.14.0","2","159","trial1","naming","0","0","0","0","dropper","0","3947","1","White_Screen.jpg","14","168","Dropper.jpg","14"
"070819","11:35:17","4","4","5.0.14.0","2","160","trial1","naming","0","0","0","0","playset","0","4071","1","White_Screen.jpg","12","83","Playground.jpg","12"
"070819","11:35:17","4","4","5.0.14.0","2","161","trial1","naming","0","0","0","0","no parking sign","0","4283","1","White_Screen.jpg","15","175","Sign_NoParking.jpg","15"
"070819","11:35:17","4","4","5.0.14.0","2","162","trial1","naming","0","0","0","0","starfish","0","3214","1","White_Screen.jpg","15","48","Starfish.jpg","15"
"070819","11:35:17","4","4","5.0.14.0","2","163","trial1","naming","0","0","0","0","dust pan","0","5694","1","White_Screen.jpg","18","116","DustPan.jpg","18"
"070819","11:35:17","4","4","5.0.14.0","2","164","trial1","naming","0","0","0","0","beach chair","0","3441","1","White_Screen.jpg","15","117","Chair_Deck.jpg","15"
"070819","11:35:17","4","4","5.0.14.0","2","165","trial1","naming","0","0","0","0","safari hat","0","3742","1","White_Screen.jpg","10","103","Hat_Explorer.jpg","10"
"070819","11:35:17","4","4","5.0.14.0","2","166","trial1","naming","0","0","0","0","sea turtle","0","3384","1","White_Screen.jpg","10","79","Turtle.jpg","10"
"070819","11:35:17","4","4","5.0.14.0","2","167","trial1","naming","0","0","0","0","stamp","0","3236","1","White_Screen.jpg","15","181","StampAndSeal.jpg","15"
"070819","11:35:17","4","4","5.0.14.0","2","168","trial1","naming","0","0","0","0","totalled truck","0","5179","1","White_Screen.jpg","12","24","Car_Totalled.jpg","12"
"070819","11:35:17","4","4","5.0.14.0","2","169","trial1","naming","0","0","0","0","magazine","0","5970","1","White_Screen.jpg","10","55","MagazineRoll.jpg","10"
"070819","11:35:17","4","4","5.0.14.0","2","170","trial1","naming","0","0","0","0","taple player","0","5959","1","White_Screen.jpg","15","114","Walkman.jpg","15"
"070819","11:35:17","4","4","5.0.14.0","2","171","trial1","naming","0","0","0","0","earrings","0","3459","1","White_Screen.jpg","17","107","Earrings_Dangling.jpg","17"
"070819","11:35:17","4","4","5.0.14.0","2","172","trial1","naming","0","0","0","0","shell","0","3182","1","White_Screen.jpg","14","177","Snail.jpg","14"
"070819","11:35:17","4","4","5.0.14.0","2","173","trial1","naming","0","0","0","0","bat","0","2278","1","White_Screen.jpg","14","97","Toy_Bat.jpg","14"
"070819","11:35:17","4","4","5.0.14.0","2","174","trial1","naming","0","0","0","0","paper boat","0","5241","1","White_Screen.jpg","13","171","Origami_Boat.jpg","13"
"070819","11:35:17","4","4","5.0.14.0","2","175","trial1","naming","0","0","0","0","ceiling fan","0","3631","1","White_Screen.jpg","13","166","Fan_Ceiling.jpg","13"
"070819","11:35:17","4","4","5.0.14.0","2","176","trial1","naming","0","0","0","0","bullhorn","0","3716","1","White_Screen.jpg","14","17","Megaphone.jpg","14"
"070819","11:35:17","4","4","5.0.14.0","2","177","trial1","naming","0","0","0","0","caramels","0","5283","1","White_Screen.jpg","19","75","Candy_Caramel.jpg","19"
"070819","11:35:17","4","4","5.0.14.0","2","178","trial1","naming","0","0","0","0","vacuum","0","6125","1","White_Screen.jpg","11","65","Steam_Cleaner.jpg","11"
"070819","11:35:17","4","4","5.0.14.0","2","179","trial1","naming","0","0","0","0","iron","0","4288","1","White_Screen.jpg","13","180","Golf_Club.jpg","13"
"070819","11:35:17","4","4","5.0.14.0","2","180","trial1","naming","0","0","0","0","fries","0","3370","1","White_Screen.jpg","13","120","fries.jpg","13"
"070819","11:35:17","4","4","5.0.14.0","2","181","trial1","naming","0","0","0","0","fan","0","3130","1","White_Screen.jpg","11","88","Fan_Straw.jpg","11"
"070819","11:35:17","4","4","5.0.14.0","2","182","trial1","naming","0","0","0","0","pills","0","3959","1","White_Screen.jpg","10","46","PillBottle_Spilled.jpg","10"
"070819","11:35:17","4","4","5.0.14.0","2","183","trial1","naming","0","0","0","0","cloud","0","2998","1","White_Screen.jpg","11","149","Cloud.jpg","11"
"070819","11:35:17","4","4","5.0.14.0","2","184","trial1","naming","0","0","0","0","well","0","5101","1","White_Screen.jpg","12","112","WaterWell.jpg","12"
"070819","11:35:17","4","4","5.0.14.0","2","185","trial1","naming","0","0","0","0","hippo","0","3309","1","White_Screen.jpg","13","179","Hippopotamus.jpg","13"
"070819","11:35:17","4","4","5.0.14.0","2","186","trial1","naming","0","0","0","0","scraper","0","7582","1","White_Screen.jpg","11","143","SeatBuckle.jpg","11"
"070819","11:35:17","4","4","5.0.14.0","2","187","trial1","naming","0","0","0","0","fountain pen","0","4188","1","White_Screen.jpg","13","27","Pen_Calligraphy.jpg","13"
"070819","11:35:17","4","4","5.0.14.0","2","188","trial1","naming","0","0","0","0","syringe","0","3313","1","White_Screen.jpg","11","150","Syringe_Needle.jpg","11"
"070819","11:35:17","4","4","5.0.14.0","2","189","trial1","naming","0","0","0","0","bagel","0","3799","1","White_Screen.jpg","15","115","Bagel.jpg","15"
"070819","11:35:17","4","4","5.0.14.0","2","190","trial1","naming","0","0","0","0","toy hockey stick","0","8785","1","White_Screen.jpg","12","14","Toy_HockeyStick.jpg","12"
"070819","11:35:17","4","4","5.0.14.0","2","191","trial1","naming","0","0","0","0","hourglass","0","3654","1","White_Screen.jpg","10","146","Hourglass.jpg","10"
"070819","11:35:17","4","4","5.0.14.0","2","192","trial1","naming","0","0","0","0","plane","0","3722","1","White_Screen.jpg","14","53","Airplane_Small.jpg","14"
"070819","11:35:17","4","4","5.0.14.0","2","193","trial1","naming","0","0","0","0","water station","0","3835","1","White_Screen.jpg","15","96","WaterCooler.jpg","15"
"070819","11:35:17","4","4","5.0.14.0","2","194","trial1","naming","0","0","0","0","fridge","0","2953","1","White_Screen.jpg","13","63","Fridge.jpg","13"
"070819","11:35:17","4","4","5.0.14.0","2","195","trial1","naming","0","0","0","0","spoon","0","3762","1","White_Screen.jpg","17","39","Spoon_Wooden.jpg","17"
"070819","11:35:17","4","4","5.0.14.0","2","196","trial1","naming","0","0","0","0","tomato","0","3784","1","White_Screen.jpg","15","169","Tomato.jpg","15"
"070819","11:35:17","4","4","5.0.14.0","2","197","trial1","naming","0","0","0","0","champagne","0","4623","1","White_Screen.jpg","15","38","Bottle_Champagne.jpg","15"
"070819","11:35:17","4","4","5.0.14.0","2","198","trial1","naming","0","0","0","0","sponges","0","3183","1","White_Screen.jpg","14","29","SpongeScrubbing.jpg","14"
"070819","11:35:17","4","4","5.0.14.0","2","199","trial1","naming","0","0","0","0","mortar and pestle","0","5167","1","White_Screen.jpg","12","158","MortarPestle_BlackStone.jpg","12"
"070819","11:35:17","4","4","5.0.14.0","2","200","trial1","naming","0","0","0","0","sea lion","0","4120","1","White_Screen.jpg","13","186","Seal_Toy.jpg","13"
"070819","11:35:17","4","4","5.0.14.0","2","201","trial1","naming","0","0","0","0","christmas tree","0","5068","1","White_Screen.jpg","18","11","Toy_Christmastree.jpg","18"
"070819","11:35:17","4","4","5.0.14.0","2","202","trial1","naming","0","0","0","0","artichoke","0","3346","1","White_Screen.jpg","13","49","Artichoke.jpg","13"
"070819","11:35:17","4","4","5.0.14.0","2","203","trial1","naming","0","0","0","0","journal","0","3722","1","White_Screen.jpg","16","6","Folder_Plastic.jpg","16"
"070819","11:35:17","4","4","5.0.14.0","3","1","demographics_block","gender","0","0","0","0","male","1","8717","0","0","0","0","0","0"
"070819","11:35:17","4","4","5.0.14.0","3","1","demographics_block","age","0","0","0","0","37","1","8717","0","0","0","0","0","0"
"070819","11:35:17","4","4","5.0.14.0","3","1","demographics_block","education","0","0","0","0","16","1","8717","0","0","0","0","0","0"
"070819","11:35:17","4","4","5.0.14.0","3","2","demographics_block","left_right_handed","0","0","0","0","Right","1","5665","0","0","0","0","0","0"
"070819","11:35:17","4","4","5.0.14.0","3","2","demographics_block","raceoption1","0","0","0","0","0","1","5665","0","0","0","0","0","0"
"070819","11:35:17","4","4","5.0.14.0","3","2","demographics_block","raceoption2","0","0","0","0","","1","5665","0","0","0","0","0","0"
"070819","11:35:17","4","4","5.0.14.0","3","2","demographics_block","raceoption3","0","0","0","0","","1","5665","0","0","0","0","0","0"
"070819","11:35:17","4","4","5.0.14.0","3","2","demographics_block","raceoption4","0","0","0","0","","1","5665","0","0","0","0","0","0"
"070819","11:35:17","4","4","5.0.14.0","3","2","demographics_block","raceoption5","0","0","0","0","","1","5665","0","0","0","0","0","0"
"070819","11:35:17","4","4","5.0.14.0","3","2","demographics_block","raceoption6","0","0","0","0","","1","5665","0","0","0","0","0","0"
"070819","11:35:17","4","4","5.0.14.0","3","2","demographics_block","raceoption7","0","0","0","0","","1","5665","0","0","0","0","0","0"
"070819","11:35:17","4","4","5.0.14.0","3","2","demographics_block","raceoption8","0","0","0","0","","1","5665","0","0","0","0","0","0"
"070819","11:35:17","4","4","5.0.14.0","3","2","demographics_block","raceoption9","0","0","0","0","","1","5665","0","0","0","0","0","0"
"070819","11:35:17","4","4","5.0.14.0","3","2","demographics_block","raceother","0","0","0","0","","1","5665","0","0","0","0","0","0"
"070819","11:35:17","4","4","5.0.14.0","3","2","demographics_block","raceother","0","0","0","0","","1","5665","0","0","0","0","0","0"
"070819","11:35:17","4","4","5.0.14.0","3","2","demographics_block","english_language","0","0","0","0","Yes","1","5665","0","0","0","0","0","0"
"070819","11:35:17","4","4","5.0.14.0","3","2","demographics_block","english_languageother","0","0","0","0","","1","5665","0","0","0","0","0","0"
"070819","11:35:17","4","4","5.0.14.0","3","3","demographics_block","eyesight","0","0","0","0","Yes","1","3897","0","0","0","0","0","0"
"070819","11:35:17","4","4","5.0.14.0","3","3","demographics_block","colorblind","0","0","0","0","No","1","3897","0","0","0","0","0","0"
"070819","11:35:17","4","4","5.0.14.0","4","1","worker_id_block","worker_id_textbox","0","0","0","0","A1P6OXEJ86HQRM","1","11261","0","0","0","0","0","0"
"070819","10:54:04","9","9","5.0.14.0","2","1","trial1","naming","0","0","0","0","rugEnter Name","0","10000","1","White_Screen.jpg","75","33","RugRoled.jpg","75"
"070819","10:54:04","9","9","5.0.14.0","2","2","trial1","naming","0","0","0","0","cannister","0","5238","1","White_Screen.jpg","5","76","Jar_Cotton.jpg","5"
"070819","10:54:04","9","9","5.0.14.0","2","3","trial1","naming","0","0","0","0","SkeletonEnter Name","0","8170","1","White_Screen.jpg","5","45","HumanSkeleton.jpg","5"
"070819","10:54:04","9","9","5.0.14.0","2","4","trial1","naming","0","0","0","0","Ctrl+'Q'","1","8087","1","White_Screen.jpg","5","196","Lock_Door.jpg","5"
"070819","11:03:14","10","10","5.0.14.0","2","1","trial1","naming","0","0","0","0","wagon","0","4196","1","White_Screen.jpg","258","123","Cart_Wooden.jpg","258"
"070819","11:03:14","10","10","5.0.14.0","2","2","trial1","naming","0","0","0","0","spade","0","2405","1","White_Screen.jpg","8","22","Shovel_Garden.jpg","8"
"070819","11:03:14","10","10","5.0.14.0","2","3","trial1","naming","0","0","0","0","staples","0","2429","1","White_Screen.jpg","8","162","Box_Staples.jpg","8"
"070819","11:03:14","10","10","5.0.14.0","2","4","trial1","naming","0","0","0","0","ceiling fan","0","3796","1","White_Screen.jpg","7","166","Fan_Ceiling.jpg","7"
"070819","11:03:14","10","10","5.0.14.0","2","5","trial1","naming","0","0","0","0","","0","10000","1","White_Screen.jpg","7","70","Seeder.jpg","7"
"070819","11:03:14","10","10","5.0.14.0","2","6","trial1","naming","0","0","0","0","Ctrl+'Q'","1","8134","1","White_Screen.jpg","10","29","SpongeScrubbing.jpg","10"
"070819","10:06:46","12","12","5.0.14.0","2","1","trial1","naming","0","0","0","0","LIONEnter Name","0","5779","1","White_Screen.jpg","37","134","Lion.jpg","37"
"070819","10:06:46","12","12","5.0.14.0","2","2","trial1","naming","0","0","0","0","BARBE","0","10000","1","White_Screen.jpg","3","126","TowelRack_Brown.jpg","3"
"070819","10:06:46","12","12","5.0.14.0","2","3","trial1","naming","0","0","0","0","RUG","0","8326","1","White_Screen.jpg","3","33","RugRoled.jpg","3"
"070819","10:06:46","12","12","5.0.14.0","2","4","trial1","naming","0","0","0","0","mask","0","8709","1","White_Screen.jpg","3","52","Mask_African.jpg","3"
"070819","10:06:46","12","12","5.0.14.0","2","5","trial1","naming","0","0","0","0","cask Name","0","10000","1","White_Screen.jpg","3","178","Barrel_Wine.jpg","3"
"070819","10:06:46","12","12","5.0.14.0","2","6","trial1","naming","0","0","0","0","fan","0","5801","1","White_Screen.jpg","3","166","Fan_Ceiling.jpg","3"
"070819","10:06:46","12","12","5.0.14.0","2","7","trial1","naming","0","0","0","0","ashtray","0","5901","1","White_Screen.jpg","3","189","Ashtray_Empty.jpg","3"
"070819","10:06:46","12","12","5.0.14.0","2","8","trial1","naming","0","0","0","0","water cooler","0","8733","1","White_Screen.jpg","43","96","WaterCooler.jpg","43"
"070819","10:06:46","12","12","5.0.14.0","2","9","trial1","naming","0","0","0","0","graduation cap","0","7703","1","White_Screen.jpg","3","109","CapGraduation.jpg","3"
"070819","10:06:46","12","12","5.0.14.0","2","10","trial1","naming","0","0","0","0","earrings","0","7405","1","White_Screen.jpg","22","107","Earrings_Dangling.jpg","22"
"070819","10:06:46","12","12","5.0.14.0","2","11","trial1","naming","0","0","0","0","fan","0","5742","1","White_Screen.jpg","3","88","Fan_Straw.jpg","3"
"070819","10:06:46","12","12","5.0.14.0","2","12","trial1","naming","0","0","0","0","oar","0","6141","1","White_Screen.jpg","3","39","Spoon_Wooden.jpg","3"
"070819","10:06:46","12","12","5.0.14.0","2","13","trial1","naming","0","0","0","0","garden fork","0","8212","1","White_Screen.jpg","1","145","HandRake.jpg","1"
"070819","10:06:46","12","12","5.0.14.0","2","14","trial1","naming","0","0","0","0","dog biscuit","0","7254","1","White_Screen.jpg","3","4","DogTreat.jpg","3"
"070819","10:06:46","12","12","5.0.14.0","2","15","trial1","naming","0","0","0","0","wind chime","0","8315","1","White_Screen.jpg","3","121","Chime.jpg","3"
"070819","10:06:46","12","12","5.0.14.0","2","16","trial1","naming","0","0","0","0","seak","0","6002","1","White_Screen.jpg","4","186","Seal_Toy.jpg","4"
"070819","10:06:46","12","12","5.0.14.0","2","17","trial1","naming","0","0","0","0","house","0","5565","1","White_Screen.jpg","3","165","House_Doll.jpg","3"
"070819","10:06:46","12","12","5.0.14.0","2","18","trial1","naming","0","0","0","0","french fries","0","8628","1","White_Screen.jpg","3","120","fries.jpg","3"
"070819","10:06:46","12","12","5.0.14.0","2","19","trial1","naming","0","0","0","0","phone booth","0","7357","1","White_Screen.jpg","3","37","Telephone_Booth.jpg","3"
"070819","10:06:46","12","12","5.0.14.0","2","20","trial1","naming","0","0","0","0","end table","0","8326","1","White_Screen.jpg","3","7","Nightstand.jpg","3"
"070819","10:06:46","12","12","5.0.14.0","2","21","trial1","naming","0","0","0","0","cotton jar","0","9876","1","White_Screen.jpg","3","76","Jar_Cotton.jpg","3"
"070819","10:06:46","12","12","5.0.14.0","2","22","trial1","naming","0","0","0","0","lei","0","6015","1","White_Screen.jpg","19","50","Lei.jpg","19"
"070819","10:06:46","12","12","5.0.14.0","2","23","trial1","naming","0","0","0","0","eye dropper","0","8433","1","White_Screen.jpg","3","168","Dropper.jpg","3"
"070819","10:06:46","12","12","5.0.14.0","2","24","trial1","naming","0","0","0","0","no parking sign","0","9563","1","White_Screen.jpg","3","175","Sign_NoParking.jpg","3"
"070819","10:06:46","12","12","5.0.14.0","2","25","trial1","naming","0","0","0","0","head rest","0","8321","1","White_Screen.jpg","3","8","Neckrest.jpg","3"
"070819","10:06:46","12","12","5.0.14.0","2","26","trial1","naming","0","0","0","0","fencing equipme","0","10000","1","White_Screen.jpg","3","104","Fencing_HelmetSwords.jpg","3"
"070819","10:06:46","12","12","5.0.14.0","2","27","trial1","naming","0","0","0","0","ho","0","10000","1","White_Screen.jpg","3","146","Hourglass.jpg","3"
"070819","10:06:46","12","12","5.0.14.0","2","28","trial1","naming","0","0","0","0","ice cream scoop","0","9846","1","White_Screen.jpg","3","60","Scoop_IceCream.jpg","3"
"070819","10:06:46","12","12","5.0.14.0","2","29","trial1","naming","0","0","0","0","pear","0","4955","1","White_Screen.jpg","3","31","Pear_Green.jpg","3"
"070819","10:06:46","12","12","5.0.14.0","2","30","trial1","naming","0","0","0","0","medicine","0","10000","1","White_Screen.jpg","3","190","Bottle_Specimen.jpg","3"
"070819","10:06:46","12","12","5.0.14.0","2","31","trial1","naming","0","0","0","0","paperclip","0","7338","1","White_Screen.jpg","3","157","Clip_Paper.jpg","3"
"070819","10:06:46","12","12","5.0.14.0","2","32","trial1","naming","0","0","0","0","first aid kit","0","7835","1","White_Screen.jpg","3","193","Box_FirstAid.jpg","3"
"070819","10:06:46","12","12","5.0.14.0","2","33","trial1","naming","0","0","0","0","antifreeze bo","0","10000","1","White_Screen.jpg","3","110","WindshieldWasherFluid.jpg","3"
"070819","10:06:46","12","12","5.0.14.0","2","34","trial1","naming","0","0","0","0","toy hockey sti","0","10000","1","White_Screen.jpg","3","14","Toy_HockeyStick.jpg","3"
"070819","10:06:46","12","12","5.0.14.0","2","35","trial1","naming","0","0","0","0","airplane","0","7068","1","White_Screen.jpg","3","53","Airplane_Small.jpg","3"
"070819","10:06:46","12","12","5.0.14.0","2","36","trial1","naming","0","0","0","0","thimble","0","6213","1","White_Screen.jpg","3","160","Thimble.jpg","3"
"070819","10:06:46","12","12","5.0.14.0","2","37","trial1","naming","0","0","0","0","snake","0","4979","1","White_Screen.jpg","3","58","Snake_Cobra.jpg","3"
"070819","10:06:46","12","12","5.0.14.0","2","38","trial1","naming","0","0","0","0","pen","0","10000","1","White_Screen.jpg","3","27","Pen_Calligraphy.jpg","3"
"070819","10:06:46","12","12","5.0.14.0","2","39","trial1","naming","0","0","0","0","Enter Name","0","112","1","White_Screen.jpg","3","42","Glass_Cup.jpg","3"
"070819","10:06:46","12","12","5.0.14.0","2","40","trial1","naming","0","0","0","0","pie cutter","0","9835","1","White_Screen.jpg","3","87","DoorHandle.jpg","3"
"070819","10:06:46","12","12","5.0.14.0","2","41","trial1","naming","0","0","0","0","vacuum hose","0","7680","1","White_Screen.jpg","3","167","VacuumHose.jpg","3"
"070819","10:06:46","12","12","5.0.14.0","2","42","trial1","naming","0","0","0","0","photo negative","0","9059","1","White_Screen.jpg","3","151","Film_Single.jpg","3"
"070819","10:06:46","12","12","5.0.14.0","2","43","trial1","naming","0","0","0","0","box","0","5317","1","White_Screen.jpg","3","130","Box_Wine.jpg","3"
"070819","10:06:46","12","12","5.0.14.0","2","44","trial1","naming","0","0","0","0","child car se","0","10000","1","White_Screen.jpg","4","89","CarSeat.jpg","4"
"070819","10:06:46","12","12","5.0.14.0","2","45","trial1","naming","0","0","0","0","vegetable","0","10000","1","White_Screen.jpg","3","49","Artichoke.jpg","3"
"070819","10:06:46","12","12","5.0.14.0","2","46","trial1","naming","0","0","0","0","Enter Name","0","248","1","White_Screen.jpg","42","90","CandyDispenser.jpg","42"
"070819","10:06:46","12","12","5.0.14.0","2","47","trial1","naming","0","0","0","0","Enter Name","0","10000","1","White_Screen.jpg","3","113","SkullDeer.jpg","3"
"070819","10:06:46","12","12","5.0.14.0","2","48","trial1","naming","0","0","0","0","bat","0","5552","1","White_Screen.jpg","3","97","Toy_Bat.jpg","3"
"070819","10:06:46","12","12","5.0.14.0","2","49","trial1","naming","0","0","0","0","burner","0","6295","1","White_Screen.jpg","3","78","Stovetop.jpg","3"
"070819","10:06:46","12","12","5.0.14.0","2","50","trial1","naming","0","0","0","0","bulletin board","0","9246","1","White_Screen.jpg","3","3","Corkboard.jpg","3"
"070819","10:06:46","12","12","5.0.14.0","2","52","trial1","naming","0","0","0","0","Ctrl+'Q'","1","8907","1","White_Screen.jpg","3","118","Spoon_Sugar.jpg","3"
"070819","11:54:31","8","8","5.0.14.0","2","1","trial1","naming","0","0","0","0","hot pad","0","5655","1","White_Screen.jpg","90","124","HotWaterBottle.jpg","90"
"070819","11:54:31","8","8","5.0.14.0","2","2","trial1","naming","0","0","0","0","measuring cup","0","4697","1","White_Screen.jpg","12","131","MixingGlass.jpg","12"
"070819","11:54:31","8","8","5.0.14.0","2","3","trial1","naming","0","0","0","0","radio","0","3442","1","White_Screen.jpg","18","91","Radio_Antique.jpg","18"
"070819","11:54:31","8","8","5.0.14.0","2","4","trial1","naming","0","0","0","0","teeth","0","2903","1","White_Screen.jpg","12","10","TeethModel.jpg","12"
"070819","11:54:31","8","8","5.0.14.0","2","5","trial1","naming","0","0","0","0","coin rolls","0","7536","1","White_Screen.jpg","14","172","CoinRolls.jpg","14"
"070819","11:54:31","8","8","5.0.14.0","2","6","trial1","naming","0","0","0","0","sleigh","0","4215","1","White_Screen.jpg","13","122","DogSled.jpg","13"
"070819","11:54:31","8","8","5.0.14.0","2","7","trial1","naming","0","0","0","0","heater","0","3896","1","White_Screen.jpg","11","59","Heater_ElectricUpright.jpg","11"
"070819","11:54:31","8","8","5.0.14.0","2","8","trial1","naming","0","0","0","0","dustpa","0","10000","1","White_Screen.jpg","12","116","DustPan.jpg","12"
"070819","11:54:31","8","8","5.0.14.0","2","9","trial1","naming","0","0","0","0","sponge","0","4315","1","White_Screen.jpg","14","29","SpongeScrubbing.jpg","14"
"070819","11:54:31","8","8","5.0.14.0","2","10","trial1","naming","0","0","0","0","brussel sprout","0","6820","1","White_Screen.jpg","12","49","Artichoke.jpg","12"
"070819","11:54:31","8","8","5.0.14.0","2","11","trial1","naming","0","0","0","0","eye drop","0","2983","1","White_Screen.jpg","13","168","Dropper.jpg","13"
"070819","11:54:31","8","8","5.0.14.0","2","12","trial1","naming","0","0","0","0","slicer","0","7106","1","White_Screen.jpg","12","143","SeatBuckle.jpg","12"
"070819","11:54:31","8","8","5.0.14.0","2","13","trial1","naming","0","0","0","0","arch","0","2578","1","White_Screen.jpg","12","15","Arch.jpg","12"
"070819","11:54:31","8","8","5.0.14.0","2","14","trial1","naming","0","0","0","0","earrings","0","2579","1","White_Screen.jpg","14","107","Earrings_Dangling.jpg","14"
"070819","11:54:31","8","8","5.0.14.0","2","15","trial1","naming","0","0","0","0","chopsticks","0","3182","1","White_Screen.jpg","13","125","Bowl_Chopsticks.jpg","13"
"070819","11:54:31","8","8","5.0.14.0","2","16","trial1","naming","0","0","0","0","dog treat","0","5565","1","White_Screen.jpg","13","4","DogTreat.jpg","13"
"070819","11:54:31","8","8","5.0.14.0","2","17","trial1","naming","0","0","0","0","dress","0","2666","1","White_Screen.jpg","13","148","Skirt_Stripes.jpg","13"
"070819","11:54:31","8","8","5.0.14.0","2","18","trial1","naming","0","0","0","0","hammock","0","4767","1","White_Screen.jpg","12","57","Hammock.jpg","12"
"070819","11:54:31","8","8","5.0.14.0","2","19","trial1","naming","0","0","0","0","grocery cart","0","3856","1","White_Screen.jpg","14","56","Cart_Groceries.jpg","14"
"070819","11:54:31","8","8","5.0.14.0","2","20","trial1","naming","0","0","0","0","rug","0","2181","1","White_Screen.jpg","12","33","RugRoled.jpg","12"
"070819","11:54:31","8","8","5.0.14.0","2","21","trial1","naming","0","0","0","0","seal","0","2427","1","White_Screen.jpg","11","186","Seal_Toy.jpg","11"
"070819","11:54:31","8","8","5.0.14.0","2","22","trial1","naming","0","0","0","0","overalls","0","3567","1","White_Screen.jpg","17","106","Pants_Firefighter.jpg","17"
"070819","11:54:31","8","8","5.0.14.0","2","23","trial1","naming","0","0","0","0","telephone","0","3381","1","White_Screen.jpg","12","132","Telephone_Dial.jpg","12"
"070819","11:54:31","8","8","5.0.14.0","2","24","trial1","naming","0","0","0","0","floppy disk","0","8267","1","White_Screen.jpg","13","82","FloppyDisk.jpg","13"
"070819","11:54:31","8","8","5.0.14.0","2","25","trial1","naming","0","0","0","0","wooden blocks","0","7122","1","White_Screen.jpg","15","161","Toy_BlocksWoodenPlain.jpg","15"
"070819","11:54:31","8","8","5.0.14.0","2","26","trial1","naming","0","0","0","0","bullhorn","0","4079","1","White_Screen.jpg","16","17","Megaphone.jpg","16"
"070819","11:54:31","8","8","5.0.14.0","2","27","trial1","naming","0","0","0","0","hippopotamus","0","6782","1","White_Screen.jpg","13","179","Hippopotamus.jpg","13"
"070819","11:54:31","8","8","5.0.14.0","2","28","trial1","naming","0","0","0","0","pith helmet","0","7407","1","White_Screen.jpg","13","103","Hat_Explorer.jpg","13"
"070819","11:54:31","8","8","5.0.14.0","2","29","trial1","naming","0","0","0","0","syringe","0","2730","1","White_Screen.jpg","16","150","Syringe_Needle.jpg","16"
"070819","11:54:31","8","8","5.0.14.0","2","30","trial1","naming","0","0","0","0","knit cap","0","5258","1","White_Screen.jpg","12","133","Hat_Beanie.jpg","12"
"070819","11:54:31","8","8","5.0.14.0","2","31","trial1","naming","0","0","0","0","seashell","0","3633","1","White_Screen.jpg","13","177","Snail.jpg","13"
"070819","11:54:31","8","8","5.0.14.0","2","32","trial1","naming","0","0","0","0","scarecrow","0","4347","1","White_Screen.jpg","14","47","Scarecrow.jpg","14"
"070819","11:54:31","8","8","5.0.14.0","2","33","trial1","naming","0","0","0","0","rock","0","2246","1","White_Screen.jpg","14","21","PumiceStone.jpg","14"
"070819","11:54:31","8","8","5.0.14.0","2","34","trial1","naming","0","0","0","0","wooden spoon","0","7068","1","White_Screen.jpg","12","39","Spoon_Wooden.jpg","12"
"070819","11:54:31","8","8","5.0.14.0","2","35","trial1","naming","0","0","0","0","snake","0","2113","1","White_Screen.jpg","13","58","Snake_Cobra.jpg","13"
"070819","11:54:31","8","8","5.0.14.0","2","36","trial1","naming","0","0","0","0","phone case","0","4663","1","White_Screen.jpg","12","111","PhoneCase.jpg","12"
"070819","11:54:31","8","8","5.0.14.0","2","37","trial1","naming","0","0","0","0","celining fan","0","3574","1","White_Screen.jpg","12","166","Fan_Ceiling.jpg","12"
"070819","11:54:31","8","8","5.0.14.0","2","38","trial1","naming","0","0","0","0","stuffed animal","0","4290","1","White_Screen.jpg","13","41","Toy_Dog.jpg","13"
"070819","11:54:31","8","8","5.0.14.0","2","39","trial1","naming","0","0","0","0","antlers","0","2783","1","White_Screen.jpg","15","113","SkullDeer.jpg","15"
"070819","11:54:31","8","8","5.0.14.0","2","40","trial1","naming","0","0","0","0","snowman","0","2603","1","White_Screen.jpg","13","194","SnowmanDecor.jpg","13"
"070819","11:54:31","8","8","5.0.14.0","2","41","trial1","naming","0","0","0","0","origami","0","3750","1","White_Screen.jpg","12","171","Origami_Boat.jpg","12"
"070819","11:54:31","8","8","5.0.14.0","2","42","trial1","naming","0","0","0","0","starfish","0","2712","1","White_Screen.jpg","12","48","Starfish.jpg","12"
"070819","11:54:31","8","8","5.0.14.0","2","43","trial1","naming","0","0","0","0","lamp post","0","3560","1","White_Screen.jpg","13","119","LampPost_OneBulb.jpg","13"
"070819","11:54:31","8","8","5.0.14.0","2","44","trial1","naming","0","0","0","0","skeleton","0","2811","1","White_Screen.jpg","24","45","HumanSkeleton.jpg","24"
"070819","11:54:31","8","8","5.0.14.0","2","45","trial1","naming","0","0","0","0","flute","0","3328","1","White_Screen.jpg","12","105","SaxophoneSoprano.jpg","12"
"070819","11:54:31","8","8","5.0.14.0","2","46","trial1","naming","0","0","0","0","mortar and pestle","0","4449","1","White_Screen.jpg","13","158","MortarPestle_BlackStone.jpg","13"
"070819","11:54:31","8","8","5.0.14.0","2","47","trial1","naming","0","0","0","0","farm equipment","0","7190","1","White_Screen.jpg","13","70","Seeder.jpg","13"
"070819","11:54:31","8","8","5.0.14.0","2","48","trial1","naming","0","0","0","0","jock strap","0","4194","1","White_Screen.jpg","14","174","Brace_Back.jpg","14"
"070819","11:54:31","8","8","5.0.14.0","2","49","trial1","naming","0","0","0","0","cotton balls","0","3469","1","White_Screen.jpg","12","76","Jar_Cotton.jpg","12"
"070819","11:54:31","8","8","5.0.14.0","2","50","trial1","naming","0","0","0","0","lollipop","0","3585","1","White_Screen.jpg","13","198","Lollipop_Rainbow.jpg","13"
"070819","11:54:31","8","8","5.0.14.0","2","52","trial1","naming","0","0","0","0","lunch tray","0","3980","1","White_Screen.jpg","14","188","Tray_Cafeteria.jpg","14"
"070819","11:54:31","8","8","5.0.14.0","2","53","trial1","naming","0","0","0","0","shovel","0","3201","1","White_Screen.jpg","12","22","Shovel_Garden.jpg","12"
"070819","11:54:31","8","8","5.0.14.0","2","54","trial1","naming","0","0","0","0","drainer","0","5363","1","White_Screen.jpg","12","101","DrainPlug.jpg","12"
"070819","11:54:31","8","8","5.0.14.0","2","55","trial1","naming","0","0","0","0","garden shears","0","3721","1","White_Screen.jpg","15","2","ShearsGarden.jpg","15"
"070819","11:54:31","8","8","5.0.14.0","2","56","trial1","naming","0","0","0","0","slushie machine","0","4324","1","White_Screen.jpg","15","16","SlushieMachine.jpg","15"
"070819","11:54:31","8","8","5.0.14.0","2","57","trial1","naming","0","0","0","0","candy","0","4557","1","White_Screen.jpg","14","43","Candy_Toffee.jpg","14"
"070819","11:54:31","8","8","5.0.14.0","2","58","trial1","naming","0","0","0","0","football player","0","4097","1","White_Screen.jpg","14","136","PlayerFootball.jpg","14"
"070819","11:54:31","8","8","5.0.14.0","2","59","trial1","naming","0","0","0","0","box","0","2826","1","White_Screen.jpg","13","130","Box_Wine.jpg","13"
"070819","11:54:31","8","8","5.0.14.0","2","60","trial1","naming","0","0","0","0","statue","0","2421","1","White_Screen.jpg","13","163","Statue_ManHorse.jpg","13"
"070819","11:54:31","8","8","5.0.14.0","2","61","trial1","naming","0","0","0","0","pills","0","2737","1","White_Screen.jpg","13","46","PillBottle_Spilled.jpg","13"
"070819","11:54:31","8","8","5.0.14.0","2","62","trial1","naming","0","0","0","0","guitar","0","2440","1","White_Screen.jpg","12","35","Guitar_Acoustic.jpg","12"
"070819","11:54:31","8","8","5.0.14.0","2","63","trial1","naming","0","0","0","0","doughnut","0","3940","1","White_Screen.jpg","12","115","Bagel.jpg","12"
"070819","11:54:31","8","8","5.0.14.0","2","64","trial1","naming","0","0","0","0","car crash","0","4054","1","White_Screen.jpg","13","24","Car_Totalled.jpg","13"
"070819","11:54:31","8","8","5.0.14.0","2","65","trial1","naming","0","0","0","0","tickets","0","4397","1","White_Screen.jpg","12","155","Tickets_PrintWords.jpg","12"
"070819","11:54:31","8","8","5.0.14.0","2","66","trial1","naming","0","0","0","0","bat","0","2009","1","White_Screen.jpg","13","97","Toy_Bat.jpg","13"
"070819","11:54:31","8","8","5.0.14.0","2","67","trial1","naming","0","0","0","0","power meter","0","5651","1","White_Screen.jpg","13","127","MeterElectric.jpg","13"
"070819","11:54:31","8","8","5.0.14.0","2","68","trial1","naming","0","0","0","0","french fries","0","4268","1","White_Screen.jpg","12","120","fries.jpg","12"
"070819","11:54:31","8","8","5.0.14.0","2","69","trial1","naming","0","0","0","0","golf club","0","6820","1","White_Screen.jpg","15","180","Golf_Club.jpg","15"
"070819","11:54:31","8","8","5.0.14.0","2","70","trial1","naming","0","0","0","0","money jar","0","4373","1","White_Screen.jpg","14","195","Jar_Money.jpg","14"
"070819","11:54:31","8","8","5.0.14.0","2","71","trial1","naming","0","0","0","0","wagon","0","3459","1","White_Screen.jpg","13","123","Cart_Wooden.jpg","13"
"070819","11:54:31","8","8","5.0.14.0","2","72","trial1","naming","0","0","0","0","wallet","0","3168","1","White_Screen.jpg","14","61","Wallet_ClosedBlack.jpg","14"
"070819","11:54:31","8","8","5.0.14.0","2","73","trial1","naming","0","0","0","0","quill pen","0","5543","1","White_Screen.jpg","12","27","Pen_Calligraphy.jpg","12"
"070819","11:54:31","8","8","5.0.14.0","2","74","trial1","naming","0","0","0","0","box","0","3643","1","White_Screen.jpg","13","182","Box_Package.jpg","13"
"070819","11:54:31","8","8","5.0.14.0","2","75","trial1","naming","0","0","0","0","electric guitar","0","4787","1","White_Screen.jpg","14","152","Guitar_Electric.jpg","14"
"070819","11:54:31","8","8","5.0.14.0","2","76","trial1","naming","0","0","0","0","car seat","0","4751","1","White_Screen.jpg","14","89","CarSeat.jpg","14"
"070819","11:54:31","8","8","5.0.14.0","2","77","trial1","naming","0","0","0","0","oven burner","0","8871","1","White_Screen.jpg","14","78","Stovetop.jpg","14"
"070819","11:54:31","8","8","5.0.14.0","2","78","trial1","naming","0","0","0","0","magazine","0","3405","1","White_Screen.jpg","13","55","MagazineRoll.jpg","13"
"070819","11:54:31","8","8","5.0.14.0","2","79","trial1","naming","0","0","0","0","ash tray","0","3352","1","White_Screen.jpg","13","189","Ashtray_Empty.jpg","13"
"070819","11:54:31","8","8","5.0.14.0","2","80","trial1","naming","0","0","0","0","hourglass","0","4174","1","White_Screen.jpg","12","146","Hourglass.jpg","12"
"070819","11:54:31","8","8","5.0.14.0","2","81","trial1","naming","0","0","0","0","keyboard","0","2924","1","White_Screen.jpg","15","170","ComputerKeyboard.jpg","15"
"070819","11:54:31","8","8","5.0.14.0","2","82","trial1","naming","0","0","0","0","sundae","0","2876","1","White_Screen.jpg","13","51","SundaeBanana.jpg","13"
"070819","11:54:31","8","8","5.0.14.0","2","83","trial1","naming","0","0","0","0","bulletin board","0","3524","1","White_Screen.jpg","13","3","Corkboard.jpg","13"
"070819","11:54:31","8","8","5.0.14.0","2","84","trial1","naming","0","0","0","0","well","0","2139","1","White_Screen.jpg","13","112","WaterWell.jpg","13"
"070819","11:54:31","8","8","5.0.14.0","2","85","trial1","naming","0","0","0","0","cloud","0","2185","1","White_Screen.jpg","12","149","Cloud.jpg","12"
"070819","11:54:31","8","8","5.0.14.0","2","86","trial1","naming","0","0","0","0","turtle","0","2637","1","White_Screen.jpg","12","79","Turtle.jpg","12"
"070819","11:54:31","8","8","5.0.14.0","2","87","trial1","naming","0","0","0","0","toy truck","0","2907","1","White_Screen.jpg","12","183","Toy_Truck.jpg","12"
"070819","11:54:31","8","8","5.0.14.0","2","88","trial1","naming","0","0","0","0","spoonful of sugar","0","6343","1","White_Screen.jpg","12","118","Spoon_Sugar.jpg","12"
"070819","11:54:31","8","8","5.0.14.0","2","89","trial1","naming","0","0","0","0","diaper","0","2925","1","White_Screen.jpg","15","26","Cast.jpg","15"
"070819","11:54:31","8","8","5.0.14.0","2","90","trial1","naming","0","0","0","0","jewelry box","0","5489","1","White_Screen.jpg","14","154","Box_JeweleryWooden.jpg","14"
"070819","11:54:31","8","8","5.0.14.0","2","91","trial1","naming","0","0","0","0","toilet","0","2313","1","White_Screen.jpg","13","139","Toilet.jpg","13"
"070819","11:54:31","8","8","5.0.14.0","2","92","trial1","naming","0","0","0","0","paperclip","0","5307","1","White_Screen.jpg","12","157","Clip_Paper.jpg","12"
"070819","11:54:31","8","8","5.0.14.0","2","93","trial1","naming","0","0","0","0","truck","0","2657","1","White_Screen.jpg","13","84","Truck_Pickup.jpg","13"
"070819","11:54:31","8","8","5.0.14.0","2","94","trial1","naming","0","0","0","0","candy cane","0","2826","1","White_Screen.jpg","14","69","Candy_Cane.jpg","14"
"070819","11:54:31","8","8","5.0.14.0","2","95","trial1","naming","0","0","0","0","tape player","0","3101","1","White_Screen.jpg","13","114","Walkman.jpg","13"
"070819","11:54:31","8","8","5.0.14.0","2","96","trial1","naming","0","0","0","0","revolver","0","3463","1","White_Screen.jpg","13","86","Gun_Revolver.jpg","13"
"070819","11:54:31","8","8","5.0.14.0","2","97","trial1","naming","0","0","0","0","casino chips","0","4792","1","White_Screen.jpg","12","137","PokerChips.jpg","12"
"070819","11:54:31","8","8","5.0.14.0","2","98","trial1","naming","0","0","0","0","aircraft carrier","0","5617","1","White_Screen.jpg","13","92","Ship_Battle.jpg","13"
"070819","11:54:31","8","8","5.0.14.0","2","99","trial1","naming","0","0","0","0","pick axe","0","4217","1","White_Screen.jpg","12","1","Icepick.jpg","12"
"070819","11:54:31","8","8","5.0.14.0","2","100","trial1","naming","0","0","0","0","strawberry shortcake","0","6113","1","White_Screen.jpg","14","100","TartStrawberry.jpg","14"
"070819","11:54:31","8","8","5.0.14.0","2","101","trial1","naming","0","0","0","0","lizard","0","3220","1","White_Screen.jpg","13","28","Toy_Lizard.jpg","13"
"070819","11:54:31","8","8","5.0.14.0","2","103","trial1","naming","0","0","0","0","rice","0","3179","1","White_Screen.jpg","16","153","RiceRaw.jpg","16"
"070819","11:54:31","8","8","5.0.14.0","2","104","trial1","naming","0","0","0","0","hoodie","0","2743","1","White_Screen.jpg","12","173","Hoodie.jpg","12"
"070819","11:54:31","8","8","5.0.14.0","2","105","trial1","naming","0","0","0","0","spark plug","0","5626","1","White_Screen.jpg","15","73","Fuse.jpg","15"
"070819","11:54:31","8","8","5.0.14.0","2","106","trial1","naming","0","0","0","0","playing cards","0","4444","1","White_Screen.jpg","12","191","Card_QueenSpade.jpg","12"
"070819","11:54:31","8","8","5.0.14.0","2","107","trial1","naming","0","0","0","0","water cooler","0","5618","1","White_Screen.jpg","12","96","WaterCooler.jpg","12"
"070819","11:54:31","8","8","5.0.14.0","2","108","trial1","naming","0","0","0","0","refrigerator","0","3484","1","White_Screen.jpg","13","63","Fridge.jpg","13"
"070819","11:54:31","8","8","5.0.14.0","2","109","trial1","naming","0","0","0","0","beach chair","0","3528","1","White_Screen.jpg","12","117","Chair_Deck.jpg","12"
"070819","11:54:31","8","8","5.0.14.0","2","110","trial1","naming","0","0","0","0","steamer","0","2634","1","White_Screen.jpg","13","65","Steam_Cleaner.jpg","13"
"070819","11:54:31","8","8","5.0.14.0","2","111","trial1","naming","0","0","0","0","lion","0","2070","1","White_Screen.jpg","14","134","Lion.jpg","14"
"070819","11:54:31","8","8","5.0.14.0","2","112","trial1","naming","0","0","0","0","garden rake","0","3257","1","White_Screen.jpg","12","145","HandRake.jpg","12"
"070819","11:54:31","8","8","5.0.14.0","2","113","trial1","naming","0","0","0","0","lips","0","2181","1","White_Screen.jpg","16","138","Lips_Wax.jpg","16"
"070819","11:54:31","8","8","5.0.14.0","2","114","trial1","naming","0","0","0","0","cooking pan","0","3233","1","White_Screen.jpg","13","68","BakingDish.jpg","13"
"070819","11:54:31","8","8","5.0.14.0","2","115","trial1","naming","0","0","0","0","hammerhead shark","0","4090","1","White_Screen.jpg","14","140","Shark_Hammerhead.jpg","14"
"070819","11:54:31","8","8","5.0.14.0","2","116","trial1","naming","0","0","0","0","baby basket","0","4428","1","White_Screen.jpg","13","30","Crib_Basket.jpg","13"
"070819","11:54:31","8","8","5.0.14.0","2","117","trial1","naming","0","0","0","0","luau necklaice","0","10000","1","White_Screen.jpg","12","50","Lei.jpg","12"
"070819","11:54:31","8","8","5.0.14.0","2","118","trial1","naming","0","0","0","0","adapter","0","4380","1","White_Screen.jpg","14","13","HDMIConnector.jpg","14"
"070819","11:54:31","8","8","5.0.14.0","2","119","trial1","naming","0","0","0","0","tripod","0","7086","1","White_Screen.jpg","14","36","Tripod.jpg","14"
"070819","11:54:31","8","8","5.0.14.0","2","120","trial1","naming","0","0","0","0","slide","0","2512","1","White_Screen.jpg","13","94","Toy_Slide.jpg","13"
"070819","11:54:31","8","8","5.0.14.0","2","121","trial1","naming","0","0","0","0","dresser","0","2715","1","White_Screen.jpg","12","7","Nightstand.jpg","12"
"070819","11:54:31","8","8","5.0.14.0","2","122","trial1","naming","0","0","0","0","sunglasses","0","2953","1","White_Screen.jpg","11","98","Glasses_Sun.jpg","11"
"070819","11:54:31","8","8","5.0.14.0","2","123","trial1","naming","0","0","0","0","wind chimes","0","6520","1","White_Screen.jpg","13","121","Chime.jpg","13"
"070819","11:54:31","8","8","5.0.14.0","2","124","trial1","naming","0","0","0","0","playground","0","3089","1","White_Screen.jpg","16","83","Playground.jpg","16"
"070819","11:54:31","8","8","5.0.14.0","2","125","trial1","naming","0","0","0","0","glass","0","2560","1","White_Screen.jpg","13","42","Glass_Cup.jpg","13"
"070819","11:54:31","8","8","5.0.14.0","2","126","trial1","naming","0","0","0","0","blueprints","0","5347","1","White_Screen.jpg","13","108","Blueprints.jpg","13"
"070819","11:54:31","8","8","5.0.14.0","2","127","trial1","naming","0","0","0","0","mixer","0","4872","1","White_Screen.jpg","13","60","Scoop_IceCream.jpg","13"
"070819","11:54:31","8","8","5.0.14.0","2","128","trial1","naming","0","0","0","0","mask","0","2173","1","White_Screen.jpg","15","52","Mask_African.jpg","15"
"070819","11:54:31","8","8","5.0.14.0","2","129","trial1","naming","0","0","0","0","first aid kit","0","3839","1","White_Screen.jpg","12","193","Box_FirstAid.jpg","12"
"070819","11:54:31","8","8","5.0.14.0","2","130","trial1","naming","0","0","0","0","dinosaur","0","2897","1","White_Screen.jpg","12","44","Toy_DinosaurTRex.jpg","12"
"070819","11:54:31","8","8","5.0.14.0","2","131","trial1","naming","0","0","0","0","dollhouse","0","3312","1","White_Screen.jpg","12","165","House_Doll.jpg","12"
"070819","11:54:31","8","8","5.0.14.0","2","132","trial1","naming","0","0","0","0","camping chair","0","3244","1","White_Screen.jpg","12","184","Chair_Folding.jpg","12"
"070819","11:54:31","8","8","5.0.14.0","2","133","trial1","naming","0","0","0","0","candy machine","0","4514","1","White_Screen.jpg","13","90","CandyDispenser.jpg","13"
"070819","11:54:31","8","8","5.0.14.0","2","134","trial1","naming","0","0","0","0","package","0","2798","1","White_Screen.jpg","13","32","Parcel.jpg","13"
"070819","11:54:31","8","8","5.0.14.0","2","135","trial1","naming","0","0","0","0","tissue box","0","5266","1","White_Screen.jpg","12","128","TissueBox.jpg","12"
"070819","11:54:31","8","8","5.0.14.0","2","136","trial1","naming","0","0","0","0","clay","0","3920","1","White_Screen.jpg","12","12","Tofu.jpg","12"
"070819","11:54:31","8","8","5.0.14.0","2","137","trial1","naming","0","0","0","0","french horn","0","3619","1","White_Screen.jpg","12","62","Horn_French.jpg","12"
"070819","11:54:31","8","8","5.0.14.0","2","138","trial1","naming","0","0","0","0","restroom sign","0","4056","1","White_Screen.jpg","11","72","Sign_Washroom.jpg","11"
"070819","11:54:31","8","8","5.0.14.0","2","139","trial1","naming","0","0","0","0","candy apple","0","3524","1","White_Screen.jpg","13","176","Apple_Candy.jpg","13"
"070819","11:54:31","8","8","5.0.14.0","2","140","trial1","naming","0","0","0","0","pig","0","2282","1","White_Screen.jpg","14","95","Pig.jpg","14"
"070819","11:54:31","8","8","5.0.14.0","2","141","trial1","naming","0","0","0","0","pee bottle","0","7630","1","White_Screen.jpg","14","190","Bottle_Specimen.jpg","14"
"070819","11:54:31","8","8","5.0.14.0","2","142","trial1","naming","0","0","0","0","match stick","0","3904","1","White_Screen.jpg","12","185","Match.jpg","12"
"070819","11:54:31","8","8","5.0.14.0","2","143","trial1","naming","0","0","0","0","antique desk","0","8153","1","White_Screen.jpg","12","64","Desk_School.jpg","12"
"070819","11:54:31","8","8","5.0.14.0","2","144","trial1","naming","0","0","0","0","radio","0","3351","1","White_Screen.jpg","13","18","WalkieTalkie_Red.jpg","13"
"070819","11:54:31","8","8","5.0.14.0","2","145","trial1","naming","0","0","0","0","pear","0","3226","1","White_Screen.jpg","19","31","Pear_Green.jpg","19"
"070819","11:54:31","8","8","5.0.14.0","2","146","trial1","naming","0","0","0","0","beach chair","0","4765","1","White_Screen.jpg","14","192","Chair_Bamboo.jpg","14"
"070819","11:54:31","8","8","5.0.14.0","2","147","trial1","naming","0","0","0","0","clogs","0","2228","1","White_Screen.jpg","12","40","Shoes_DutchClogs.jpg","12"
"070819","11:54:31","8","8","5.0.14.0","2","148","trial1","naming","0","0","0","0","scrabble letters","0","4855","1","White_Screen.jpg","13","74","Scrabble.jpg","13"
"070819","11:54:31","8","8","5.0.14.0","2","149","trial1","naming","0","0","0","0","toy hockey stick","0","5443","1","White_Screen.jpg","14","14","Toy_HockeyStick.jpg","14"
"070819","11:54:31","8","8","5.0.14.0","2","150","trial1","naming","0","0","0","0","shorts","0","5289","1","White_Screen.jpg","13","85","Pajamas.jpg","13"
"070819","11:54:31","8","8","5.0.14.0","2","151","trial1","naming","0","0","0","0","crap","0","2082","1","White_Screen.jpg","15","5","Crab.jpg","15"
"070819","11:54:31","8","8","5.0.14.0","2","152","trial1","naming","0","0","0","0","windshield fluid","0","7175","1","White_Screen.jpg","12","110","WindshieldWasherFluid.jpg","12"
"070819","11:54:31","8","8","5.0.14.0","2","154","trial1","naming","0","0","0","0","airplane","0","8265","1","White_Screen.jpg","12","53","Airplane_Small.jpg","12"
"070819","11:54:31","8","8","5.0.14.0","2","155","trial1","naming","0","0","0","0","vase","0","3896","1","White_Screen.jpg","17","141","Jug_ClayAncient.jpg","17"
"070819","11:54:31","8","8","5.0.14.0","2","156","trial1","naming","0","0","0","0","dvd","0","4662","1","White_Screen.jpg","13","9","Case_DVD.jpg","13"
"070819","11:54:31","8","8","5.0.14.0","2","157","trial1","naming","0","0","0","0","tomato","0","2548","1","White_Screen.jpg","12","169","Tomato.jpg","12"
"070819","11:54:31","8","8","5.0.14.0","2","158","trial1","naming","0","0","0","0","toy","0","7197","1","White_Screen.jpg","12","80","Toy_BeadMaze.jpg","12"
"070819","11:54:31","8","8","5.0.14.0","2","159","trial1","naming","0","0","0","0","lock","0","3508","1","White_Screen.jpg","12","93","DoorBolt.jpg","12"
"070819","11:54:31","8","8","5.0.14.0","2","160","trial1","naming","0","0","0","0","towel rack","0","3201","1","White_Screen.jpg","12","126","TowelRack_Brown.jpg","12"
"070819","11:54:31","8","8","5.0.14.0","2","161","trial1","naming","0","0","0","0","porcupine","0","3539","1","White_Screen.jpg","12","200","Hedgehog.jpg","12"
"070819","11:54:31","8","8","5.0.14.0","2","162","trial1","naming","0","0","0","0","scale","0","2751","1","White_Screen.jpg","12","25","CrepeMaker.jpg","12"
"070819","11:54:31","8","8","5.0.14.0","2","163","trial1","naming","0","0","0","0","bottle opener","0","3486","1","White_Screen.jpg","12","156","BottleOpener.jpg","12"
"070819","11:54:31","8","8","5.0.14.0","2","164","trial1","naming","0","0","0","0","no parking sign","0","5811","1","White_Screen.jpg","12","175","Sign_NoParking.jpg","12"
"070819","11:54:31","8","8","5.0.14.0","2","165","trial1","naming","0","0","0","0","drum","0","2730","1","White_Screen.jpg","12","102","Drum_Tall.jpg","12"
"070819","11:54:31","8","8","5.0.14.0","2","166","trial1","naming","0","0","0","0","stamp","0","2442","1","White_Screen.jpg","13","181","StampAndSeal.jpg","13"
"070819","11:54:31","8","8","5.0.14.0","2","167","trial1","naming","0","0","0","0","champagne","0","3368","1","White_Screen.jpg","12","38","Bottle_Champagne.jpg","12"
"070819","11:54:31","8","8","5.0.14.0","2","168","trial1","naming","0","0","0","0","record","0","2584","1","White_Screen.jpg","12","34","VinylRecord.jpg","12"
"070819","11:54:31","8","8","5.0.14.0","2","169","trial1","naming","0","0","0","0","fan","0","2115","1","White_Screen.jpg","12","88","Fan_Straw.jpg","12"
"070819","11:54:31","8","8","5.0.14.0","2","170","trial1","naming","0","0","0","0","tree","0","4939","1","White_Screen.jpg","12","11","Toy_Christmastree.jpg","12"
"070819","11:54:31","8","8","5.0.14.0","2","171","trial1","naming","0","0","0","0","wooden sculpture","0","7127","1","White_Screen.jpg","14","99","PagodaModel.jpg","14"
"070819","11:54:31","8","8","5.0.14.0","2","172","trial1","naming","0","0","0","0","candy","0","2632","1","White_Screen.jpg","12","75","Candy_Caramel.jpg","12"
"070819","11:54:31","8","8","5.0.14.0","2","173","trial1","naming","0","0","0","0","vacuum hose","0","4366","1","White_Screen.jpg","13","167","VacuumHose.jpg","13"
"070819","11:54:31","8","8","5.0.14.0","2","174","trial1","naming","0","0","0","0","headphone adapter","0","6732","1","White_Screen.jpg","12","142","Cable_AudioSplitter.jpg","12"
"070819","11:54:31","8","8","5.0.14.0","2","175","trial1","naming","0","0","0","0","pillow","0","2983","1","White_Screen.jpg","12","8","Neckrest.jpg","12"
"070819","11:54:31","8","8","5.0.14.0","2","176","trial1","naming","0","0","0","0","scale","0","3762","1","White_Screen.jpg","13","144","ScaleWeighing.jpg","13"
"070819","11:54:31","8","8","5.0.14.0","2","177","trial1","naming","0","0","0","0","peapod","0","3729","1","White_Screen.jpg","12","159","StringBean.jpg","12"
"070819","11:54:31","8","8","5.0.14.0","2","178","trial1","naming","0","0","0","0","wooden keg","0","7067","1","White_Screen.jpg","13","178","Barrel_Wine.jpg","13"
"070819","11:54:31","8","8","5.0.14.0","2","179","trial1","naming","0","0","0","0","cottage","0","3789","1","White_Screen.jpg","13","77","House_Wooden.jpg","13"
"070819","11:54:31","8","8","5.0.14.0","2","180","trial1","naming","0","0","0","0","plush bag","0","5203","1","White_Screen.jpg","15","129","Pouch_Red.jpg","15"
"070819","11:54:31","8","8","5.0.14.0","2","181","trial1","naming","0","0","0","0","fencing mask","0","7587","1","White_Screen.jpg","14","104","Fencing_HelmetSwords.jpg","14"
"070819","11:54:31","8","8","5.0.14.0","2","182","trial1","naming","0","0","0","0","staples","0","2985","1","White_Screen.jpg","13","162","Box_Staples.jpg","13"
"070819","11:54:31","8","8","5.0.14.0","2","183","trial1","naming","0","0","0","0","drying rack","0","4776","1","White_Screen.jpg","14","54","DryRack_Clothes.jpg","14"
"070819","11:54:31","8","8","5.0.14.0","2","184","trial1","naming","0","0","0","0","deadbolt","0","4013","1","White_Screen.jpg","16","196","Lock_Door.jpg","16"
"070819","11:54:31","8","8","5.0.14.0","2","185","trial1","naming","0","0","0","0","shark","0","4745","1","White_Screen.jpg","14","23","Fish_Swordfish.jpg","14"
"070819","11:54:31","8","8","5.0.14.0","2","186","trial1","naming","0","0","0","0","telephone booth","0","4441","1","White_Screen.jpg","12","37","Telephone_Booth.jpg","12"
"070819","11:54:31","8","8","5.0.14.0","2","187","trial1","naming","0","0","0","0","hut","0","4132","1","White_Screen.jpg","13","66","Gazebo.jpg","13"
"070819","11:54:31","8","8","5.0.14.0","2","188","trial1","naming","0","0","0","0","sheriff hat","0","4650","1","White_Screen.jpg","13","19","Hat_Sheriff.jpg","13"
"070819","11:54:31","8","8","5.0.14.0","2","189","trial1","naming","0","0","0","0","rice","0","3304","1","White_Screen.jpg","14","197","Bag_Grains.jpg","14"
"070819","11:54:31","8","8","5.0.14.0","2","190","trial1","naming","0","0","0","0","film","0","2949","1","White_Screen.jpg","13","151","Film_Single.jpg","13"
"070819","11:54:31","8","8","5.0.14.0","2","191","trial1","naming","0","0","0","0","vice grip","0","4735","1","White_Screen.jpg","12","20","Pliers_ViceGrip.jpg","12"
"070819","11:54:31","8","8","5.0.14.0","2","192","trial1","naming","0","0","0","0","mortar","0","2578","1","White_Screen.jpg","12","109","CapGraduation.jpg","12"
"070819","11:54:31","8","8","5.0.14.0","2","193","trial1","naming","0","0","0","0","radio","0","4249","1","White_Screen.jpg","14","71","WalkieTalkie_Yellow.jpg","14"
"070819","11:54:31","8","8","5.0.14.0","2","194","trial1","naming","0","0","0","0","thimble","0","3236","1","White_Screen.jpg","13","160","Thimble.jpg","13"
"070819","11:54:31","8","8","5.0.14.0","2","195","trial1","naming","0","0","0","0","book","0","2673","1","White_Screen.jpg","12","6","Folder_Plastic.jpg","12"
"070819","11:54:31","8","8","5.0.14.0","2","196","trial1","naming","0","0","0","0","chili pepper","0","5341","1","White_Screen.jpg","14","81","Pepper_Chili.jpg","14"
"070819","11:54:31","8","8","5.0.14.0","2","197","trial1","naming","0","0","0","0","corkscrew","0","4736","1","White_Screen.jpg","13","135","Corkscrew.jpg","13"
"070819","11:54:31","8","8","5.0.14.0","2","198","trial1","naming","0","0","0","0","bal","0","2432","1","White_Screen.jpg","12","187","Ball_Squashball.jpg","12"
"070819","11:54:31","8","8","5.0.14.0","2","199","trial1","naming","0","0","0","0","shoulder pads","0","5029","1","White_Screen.jpg","12","164","ShoulderPads.jpg","12"
"070819","11:54:31","8","8","5.0.14.0","2","200","trial1","naming","0","0","0","0","can opener","0","5717","1","White_Screen.jpg","12","87","DoorHandle.jpg","12"
"070819","11:54:31","8","8","5.0.14.0","2","201","trial1","naming","0","0","0","0","sharpener","0","6905","1","White_Screen.jpg","12","199","PencilSharpener.jpg","12"
"070819","11:54:31","8","8","5.0.14.0","2","202","trial1","naming","0","0","0","0","switch","0","2707","1","White_Screen.jpg","13","67","Switch_Power.jpg","13"
"070819","11:54:31","8","8","5.0.14.0","2","203","trial1","naming","0","0","0","0","swiss army knife","0","5342","1","White_Screen.jpg","14","147","Knife_Camping.jpg","14"
"070819","11:54:31","8","8","5.0.14.0","3","1","demographics_block","gender","0","0","0","0","Male","1","7646","0","0","0","0","0","0"
"070819","11:54:31","8","8","5.0.14.0","3","1","demographics_block","age","0","0","0","0","35","1","7646","0","0","0","0","0","0"
"070819","11:54:31","8","8","5.0.14.0","3","1","demographics_block","education","0","0","0","0","16","1","7646","0","0","0","0","0","0"
"070819","11:54:31","8","8","5.0.14.0","3","2","demographics_block","left_right_handed","0","0","0","0","Right","1","6258","0","0","0","0","0","0"
"070819","11:54:31","8","8","5.0.14.0","3","2","demographics_block","raceoption1","0","0","0","0","0","1","6258","0","0","0","0","0","0"
"070819","11:54:31","8","8","5.0.14.0","3","2","demographics_block","raceoption2","0","0","0","0","","1","6258","0","0","0","0","0","0"
"070819","11:54:31","8","8","5.0.14.0","3","2","demographics_block","raceoption3","0","0","0","0","","1","6258","0","0","0","0","0","0"
"070819","11:54:31","8","8","5.0.14.0","3","2","demographics_block","raceoption4","0","0","0","0","","1","6258","0","0","0","0","0","0"
"070819","11:54:31","8","8","5.0.14.0","3","2","demographics_block","raceoption5","0","0","0","0","","1","6258","0","0","0","0","0","0"
"070819","11:54:31","8","8","5.0.14.0","3","2","demographics_block","raceoption6","0","0","0","0","","1","6258","0","0","0","0","0","0"
"070819","11:54:31","8","8","5.0.14.0","3","2","demographics_block","raceoption7","0","0","0","0","","1","6258","0","0","0","0","0","0"
"070819","11:54:31","8","8","5.0.14.0","3","2","demographics_block","raceoption8","0","0","0","0","","1","6258","0","0","0","0","0","0"
"070819","11:54:31","8","8","5.0.14.0","3","2","demographics_block","raceoption9","0","0","0","0","","1","6258","0","0","0","0","0","0"
"070819","11:54:31","8","8","5.0.14.0","3","2","demographics_block","raceother","0","0","0","0","","1","6258","0","0","0","0","0","0"
"070819","11:54:31","8","8","5.0.14.0","3","2","demographics_block","raceother","0","0","0","0","","1","6258","0","0","0","0","0","0"
"070819","11:54:31","8","8","5.0.14.0","3","2","demographics_block","english_language","0","0","0","0","Yes","1","6258","0","0","0","0","0","0"
"070819","11:54:31","8","8","5.0.14.0","3","2","demographics_block","english_languageother","0","0","0","0","","1","6258","0","0","0","0","0","0"
"070819","11:54:31","8","8","5.0.14.0","3","3","demographics_block","eyesight","0","0","0","0","Yes","1","8928","0","0","0","0","0","0"
"070819","11:54:31","8","8","5.0.14.0","3","3","demographics_block","colorblind","0","0","0","0","No","1","8928","0","0","0","0","0","0"
"070819","11:54:31","8","8","5.0.14.0","4","1","worker_id_block","worker_id_textbox","0","0","0","0","A7P3R1AIA4TVV","1","3058","0","0","0","0","0","0"
"070819","09:19:23","15","15","5.0.14.0","2","1","trial1","naming","0","0","0","0","fan","0","4485","1","White_Screen.jpg","9","88","Fan_Straw.jpg","9"
"070819","09:19:23","15","15","5.0.14.0","2","2","trial1","naming","0","0","0","0","belt","0","8357","1","White_Screen.jpg","1","174","Brace_Back.jpg","1"
"070819","09:19:23","15","15","5.0.14.0","2","3","trial1","naming","0","0","0","0","swordfish","0","3903","1","White_Screen.jpg","4","23","Fish_Swordfish.jpg","4"
"070819","09:19:23","15","15","5.0.14.0","2","4","trial1","naming","0","0","0","0","wagon","0","2339","1","White_Screen.jpg","4","123","Cart_Wooden.jpg","4"
"070819","09:19:23","15","15","5.0.14.0","2","5","trial1","naming","0","0","0","0","sea turtle","0","5135","1","White_Screen.jpg","4","79","Turtle.jpg","4"
"070819","09:19:23","15","15","5.0.14.0","2","6","trial1","naming","0","0","0","0","slide","0","2150","1","White_Screen.jpg","4","94","Toy_Slide.jpg","4"
"070819","09:19:23","15","15","5.0.14.0","2","7","trial1","naming","0","0","0","0","tripod","0","2658","1","White_Screen.jpg","4","36","Tripod.jpg","4"
"070819","09:19:23","15","15","5.0.14.0","2","8","trial1","naming","0","0","0","0","scrabble","0","3910","1","White_Screen.jpg","7","74","Scrabble.jpg","7"
"070819","09:19:23","15","15","5.0.14.0","2","9","trial1","naming","0","0","0","0","film","0","3230","1","White_Screen.jpg","1","151","Film_Single.jpg","1"
"070819","09:19:23","15","15","5.0.14.0","2","10","trial1","naming","0","0","0","0","floppy disk","0","7376","1","White_Screen.jpg","3","82","FloppyDisk.jpg","3"
"070819","09:19:23","15","15","5.0.14.0","2","11","trial1","naming","0","0","0","0","plane","0","5070","1","White_Screen.jpg","3","53","Airplane_Small.jpg","3"
"070819","09:19:23","15","15","5.0.14.0","2","12","trial1","naming","0","0","0","0","bongo drum","0","3381","1","White_Screen.jpg","5","102","Drum_Tall.jpg","5"
"070819","09:19:23","15","15","5.0.14.0","2","13","trial1","naming","0","0","0","0","corkscrew","0","4158","1","White_Screen.jpg","5","135","Corkscrew.jpg","5"
"070819","09:19:23","15","15","5.0.14.0","2","14","trial1","naming","0","0","0","0","snowman","0","1758","1","White_Screen.jpg","4","194","SnowmanDecor.jpg","4"
"070819","09:19:23","15","15","5.0.14.0","2","15","trial1","naming","0","0","0","0","record","0","2459","1","White_Screen.jpg","4","34","VinylRecord.jpg","4"
"070819","09:19:23","15","15","5.0.14.0","2","16","trial1","naming","0","0","0","0","bathroom sign","0","4688","1","White_Screen.jpg","4","72","Sign_Washroom.jpg","4"
"070819","09:19:23","15","15","5.0.14.0","2","17","trial1","naming","0","0","0","0","toilet","0","2268","1","White_Screen.jpg","4","139","Toilet.jpg","4"
"070819","09:19:23","15","15","5.0.14.0","2","18","trial1","naming","0","0","0","0","bottle opener","0","5376","1","White_Screen.jpg","4","156","BottleOpener.jpg","4"
"070819","09:19:23","15","15","5.0.14.0","2","19","trial1","naming","0","0","0","0","lion","0","1517","1","White_Screen.jpg","4","134","Lion.jpg","4"
"070819","09:19:23","15","15","5.0.14.0","2","20","trial1","naming","0","0","0","0","bat","0","1451","1","White_Screen.jpg","4","97","Toy_Bat.jpg","4"
"070819","09:19:23","15","15","5.0.14.0","2","21","trial1","naming","0","0","0","0","neck pillow","0","3066","1","White_Screen.jpg","4","8","Neckrest.jpg","4"
"070819","09:19:23","15","15","5.0.14.0","2","22","trial1","naming","0","0","0","0","ticket","0","1951","1","White_Screen.jpg","4","155","Tickets_PrintWords.jpg","4"
"070819","09:19:23","15","15","5.0.14.0","2","23","trial1","naming","0","0","0","0","phone case","0","3260","1","White_Screen.jpg","4","111","PhoneCase.jpg","4"
"070819","09:19:23","15","15","5.0.14.0","2","24","trial1","naming","0","0","0","0","hat","0","2991","1","White_Screen.jpg","4","103","Hat_Explorer.jpg","4"
"070819","09:19:23","15","15","5.0.14.0","2","25","trial1","naming","0","0","0","0","graduation cap","0","3992","1","White_Screen.jpg","3","109","CapGraduation.jpg","3"
"070819","09:19:23","15","15","5.0.14.0","2","26","trial1","naming","0","0","0","0","sundae","0","2471","1","White_Screen.jpg","4","51","SundaeBanana.jpg","4"
"070819","09:19:23","15","15","5.0.14.0","2","27","trial1","naming","0","0","0","0","beanie","0","3800","1","White_Screen.jpg","4","133","Hat_Beanie.jpg","4"
"070819","09:19:23","15","15","5.0.14.0","2","28","trial1","naming","0","0","0","0","towel bar","0","3486","1","White_Screen.jpg","4","126","TowelRack_Brown.jpg","4"
"070819","09:19:23","15","15","5.0.14.0","2","29","trial1","naming","0","0","0","0","archway","0","4424","1","White_Screen.jpg","4","15","Arch.jpg","4"
"070819","09:19:23","15","15","5.0.14.0","2","30","trial1","naming","0","0","0","0","keyboard","0","2960","1","White_Screen.jpg","4","170","ComputerKeyboard.jpg","4"
"070819","09:19:23","15","15","5.0.14.0","2","31","trial1","naming","0","0","0","0","pear","0","1326","1","White_Screen.jpg","4","31","Pear_Green.jpg","4"
"070819","09:19:23","15","15","5.0.14.0","2","32","trial1","naming","0","0","0","0","lock","0","2913","1","White_Screen.jpg","4","196","Lock_Door.jpg","4"
"070819","09:19:23","15","15","5.0.14.0","2","33","trial1","naming","0","0","0","0","hoe","0","3135","1","White_Screen.jpg","1","145","HandRake.jpg","1"
"070819","09:19:23","15","15","5.0.14.0","2","34","trial1","naming","0","0","0","0","lips","0","2175","1","White_Screen.jpg","2","138","Lips_Wax.jpg","2"
"070819","09:19:23","15","15","5.0.14.0","2","35","trial1","naming","0","0","0","0","mask","0","3375","1","White_Screen.jpg","1","52","Mask_African.jpg","1"
"070819","09:19:23","15","15","5.0.14.0","2","36","trial1","naming","0","0","0","0","scale","0","1941","1","White_Screen.jpg","2","144","ScaleWeighing.jpg","2"
"070819","09:19:23","15","15","5.0.14.0","2","37","trial1","naming","0","0","0","0","latch","0","6230","1","White_Screen.jpg","3","93","DoorBolt.jpg","3"
"070819","09:19:23","15","15","5.0.14.0","2","38","trial1","naming","0","0","0","0","street lamp","0","5220","1","White_Screen.jpg","3","119","LampPost_OneBulb.jpg","3"
"070819","09:19:23","15","15","5.0.14.0","2","39","trial1","naming","0","0","0","0","wallet","0","1708","1","White_Screen.jpg","3","61","Wallet_ClosedBlack.jpg","3"
"070819","09:19:23","15","15","5.0.14.0","2","40","trial1","naming","0","0","0","0","trex","0","7668","1","White_Screen.jpg","3","44","Toy_DinosaurTRex.jpg","3"
"070819","09:19:23","15","15","5.0.14.0","2","41","trial1","naming","0","0","0","0","dustpan","0","3230","1","White_Screen.jpg","4","116","DustPan.jpg","4"
"070819","09:19:23","15","15","5.0.14.0","2","42","trial1","naming","0","0","0","0","diaper","0","4559","1","White_Screen.jpg","5","26","Cast.jpg","5"
"070819","09:19:23","15","15","5.0.14.0","2","43","trial1","naming","0","0","0","0","vacuum","0","5604","1","White_Screen.jpg","4","65","Steam_Cleaner.jpg","4"
"070819","09:19:23","15","15","5.0.14.0","2","44","trial1","naming","0","0","0","0","staples","0","3649","1","White_Screen.jpg","4","162","Box_Staples.jpg","4"
"070819","09:19:23","15","15","5.0.14.0","2","45","trial1","naming","0","0","0","0","fire pants","0","5911","1","White_Screen.jpg","4","106","Pants_Firefighter.jpg","4"
"070819","09:19:23","15","15","5.0.14.0","2","46","trial1","naming","0","0","0","0","telephone booth","0","2901","1","White_Screen.jpg","4","37","Telephone_Booth.jpg","4"
"070819","09:19:23","15","15","5.0.14.0","2","47","trial1","naming","0","0","0","0","quad chair","0","4421","1","White_Screen.jpg","4","184","Chair_Folding.jpg","4"
"070819","09:19:23","15","15","5.0.14.0","2","48","trial1","naming","0","0","0","0","Enter Name","0","10000","1","White_Screen.jpg","4","25","CrepeMaker.jpg","4"
"070819","09:19:23","15","15","5.0.14.0","2","49","trial1","naming","0","0","0","0","package","0","3423","1","White_Screen.jpg","5","32","Parcel.jpg","5"
"070819","09:19:23","15","15","5.0.14.0","2","50","trial1","naming","0","0","0","0","statue","0","1949","1","White_Screen.jpg","4","163","Statue_ManHorse.jpg","4"
"070819","09:19:23","15","15","5.0.14.0","2","52","trial1","naming","0","0","0","0","dog treat","0","3014","1","White_Screen.jpg","2","4","DogTreat.jpg","2"
"070819","09:19:23","15","15","5.0.14.0","2","53","trial1","naming","0","0","0","0","air conditioner","0","5604","1","White_Screen.jpg","2","59","Heater_ElectricUpright.jpg","2"
"070819","09:19:23","15","15","5.0.14.0","2","54","trial1","naming","0","0","0","0","fountain pen","0","3128","1","White_Screen.jpg","2","27","Pen_Calligraphy.jpg","2"
"070819","09:19:23","15","15","5.0.14.0","2","55","trial1","naming","0","0","0","0","end table","0","7598","1","White_Screen.jpg","5","7","Nightstand.jpg","5"
