"group","subject","blockcode","trialcode","trialnum","values.stimulus","response","correct","latency"
"76","76","encoding","encoding","1","House_Rural.jpg","37","0","1364"
"76","76","encoding","encoding","2","Megaphone.jpg","37","0","1123"
"76","76","encoding","encoding","3","GPS.jpg","37","0","1275"
"76","76","encoding","encoding","4","Toy_Firetruck.jpg","37","0","1098"
"76","76","encoding","encoding","5","StringBean.jpg","37","0","1353"
"76","76","encoding","encoding","6","ComputerKeyboard.jpg","36","0","993"
"76","76","encoding","encoding","7","Toy_Rooster.jpg","37","0","1088"
"76","76","encoding","encoding","8","Bottle_Blue.jpg","37","0","1367"
"76","76","encoding","encoding","9","Kangaroo_WithJoey.jpg","37","0","791"
"76","76","encoding","encoding","10","Yarmulke.jpg","36","0","1086"
"76","76","encoding","encoding","11","LifeJacket_Orangejpg.jpg","37","0","797"
"76","76","encoding","encoding","12","BumperCar.jpg","36","0","1269"
"76","76","encoding","encoding","13","Bag_Toiletry.jpg","37","0","1948"
"76","76","encoding","encoding","14","Blanket.jpg","36","0","987"
"76","76","encoding","encoding","15","ShinPads.jpg","37","0","1450"
"76","76","encoding","encoding","16","Toy_TrailerAirport.jpg","37","0","1138"
"76","76","encoding","encoding","17","Helmet_Football.jpg","37","0","841"
"76","76","encoding","encoding","18","Glass_Beer.jpg","36","0","737"
"76","76","encoding","encoding","19","ManholeCover.jpg","37","0","1248"
"76","76","encoding","encoding","20","Instrument_African.jpg","37","0","1592"
"76","76","encoding","encoding","21","Squash_Butternut.jpg","37","0","1247"
"76","76","encoding","encoding","22","Comb.jpg","36","0","816"
"76","76","encoding","encoding","23","DrillBit.jpg","36","0","1567"
"76","76","encoding","encoding","24","Jacks.jpg","36","0","1373"
"76","76","encoding","encoding","25","Statue_Cat.jpg","36","0","1709"
"76","76","encoding","encoding","26","Suit_Women.jpg","36","0","1564"
"76","76","encoding","encoding","27","VinylRecord.jpg","36","0","1060"
"76","76","encoding","encoding","28","RugRoled.jpg","36","0","795"
"76","76","encoding","encoding","29","Bottle_Oil.jpg","36","0","731"
"76","76","encoding","encoding","30","PulleyWooden.jpg","37","0","1570"
"76","76","encoding","encoding","31","CigarCase.jpg","36","0","850"
"76","76","encoding","encoding","32","SledgeHammer.jpg","36","0","1217"
"76","76","encoding","encoding","33","Cantaloupe.jpg","36","0","736"
"76","76","encoding","encoding","34","Tray_Muffin.jpg","36","0","824"
"76","76","encoding","encoding","35","Stovetop.jpg","36","0","791"
"76","76","encoding","encoding","36","NetButterfly.jpg","37","0","1055"
"76","76","encoding","encoding","37","PlayerFootball.jpg","37","0","742"
"76","76","encoding","encoding","38","Bowl_Chopsticks.jpg","36","0","1061"
"76","76","encoding","encoding","39","CashRegister_Antique.jpg","36","0","1180"
"76","76","encoding","encoding","40","Stationary.jpg","36","0","796"
"76","76","encoding","encoding","41","Boat_Dinghy.jpg","37","0","772"
"76","76","encoding","encoding","42","Hippopotamus.jpg","37","0","979"
"76","76","encoding","encoding","43","Cake_Cheese.jpg","36","0","1035"
"76","76","encoding","encoding","44","TelephoneSwitchboard.jpg","36","0","1226"
"76","76","encoding","encoding","45","Domino.jpg","36","0","1010"
"76","76","encoding","encoding","46","Cane_Metal.jpg","36","0","1057"
"76","76","encoding","encoding","47","FloorTile.jpg","36","0","840"
"76","76","encoding","encoding","48","Boots_KneeHigh.jpg","37","0","1192"
"76","76","encoding","encoding","49","Horn_French.jpg","36","0","863"
"76","76","encoding","encoding","50","Bag_PaperWithFlour.jpg","36","0","887"
"76","76","encoding","encoding","51","Pillow_Plaid.jpg","36","0","614"
"76","76","encoding","encoding","52","ShoeLace_Flat.jpg","36","0","742"
"76","76","encoding","encoding","53","Rake_Long.jpg","37","0","874"
"76","76","encoding","encoding","54","Gloves_Bicycle.jpg","36","0","1557"
"76","76","encoding","encoding","55","EyeChart.jpg","36","0","1084"
"76","76","encoding","encoding","56","Toy_Lizard.jpg","37","0","811"
"76","76","encoding","encoding","57","Mug_Travel.jpg","37","0","1411"
"76","76","encoding","encoding","58","Pliers_ViceGrip.jpg","36","0","1250"
"76","76","encoding","encoding","59","Fortress.jpg","37","0","826"
"76","76","encoding","encoding","60","VacuumHandheld.jpg","36","0","985"
"76","76","encoding","encoding","62","Candy_Lozenge.jpg","36","0","1418"
"76","76","encoding","encoding","63","Stove_Portable.jpg","37","0","1745"
"76","76","encoding","encoding","64","Mat_Door.jpg","36","0","1017"
"76","76","encoding","encoding","65","PickupTruck.jpg","37","0","912"
"76","76","encoding","encoding","66","Pacifier.jpg","36","0","1279"
"76","76","encoding","encoding","67","Mitt_Oven.jpg","36","0","1007"
"76","76","encoding","encoding","68","Scooter.jpg","37","0","934"
"76","76","encoding","encoding","69","Ball_Baseball.jpg","37","0","822"
"76","76","encoding","encoding","70","CandleSnuffer.jpg","36","0","1214"
"76","76","encoding","encoding","71","Stool_Foot.jpg","36","0","628"
"76","76","encoding","encoding","72","Guacamole.jpg","36","0","1436"
"76","76","encoding","encoding","73","Locomotive.jpg","36","0","1483"
"76","76","encoding","encoding","74","Olives.jpg","36","0","1635"
"76","76","encoding","encoding","75","Bag_Satchel.jpg","36","0","1234"
"76","76","encoding","encoding","76","Bag_String.jpg","36","0","1049"
"76","76","encoding","encoding","77","Caterpillar.jpg","37","0","649"
"76","76","encoding","encoding","78","Quartz.jpg","36","0","1536"
"76","76","encoding","encoding","79","Puffin.jpg","37","0","775"
"76","76","encoding","encoding","80","Stamp.jpg","36","0","808"
"76","76","encoding","encoding","81","Sink_Kitchen.jpg","36","0","710"
"76","76","encoding","encoding","82","Tray_Medical.jpg","36","0","862"
"76","76","encoding","encoding","83","Bucket_WoodenLight.jpg","37","0","1109"
"76","76","encoding","encoding","84","HerbsInBag.jpg","37","0","1405"
"76","76","encoding","encoding","85","Artichoke.jpg","37","0","1285"
"76","76","encoding","encoding","86","Hubcap.jpg","37","0","1100"
"76","76","encoding","encoding","87","Chipmunk.jpg","37","0","667"
"76","76","encoding","encoding","88","Candleholder_LampShaped.jpg","36","0","1203"
"76","76","encoding","encoding","89","Sandwich_Ham.jpg","36","0","642"
"76","76","encoding","encoding","90","Candy_Toffee.jpg","36","0","953"
"76","76","encoding","encoding","91","PumpBreast.jpg","36","0","936"
"76","76","encoding","encoding","92","Clock_Grandfather.jpg","36","0","784"
"76","76","encoding","encoding","93","CookieCutter_Bell.jpg","36","0","1071"
"76","76","encoding","encoding","94","ButterDish.jpg","36","0","703"
"76","76","encoding","encoding","95","Ferret.jpg","37","0","790"
"76","76","encoding","encoding","96","Lens_ColourFilter.jpg","36","0","686"
"76","76","encoding","encoding","97","Dragonfly.jpg","37","0","797"
"76","76","encoding","encoding","98","Crutches.jpg","36","0","765"
"76","76","encoding","encoding","99","Can_Olives.jpg","36","0","820"
"76","76","encoding","encoding","100","Generator.jpg","37","0","1212"
"76","76","encoding","encoding","101","Box_Jewellery.jpg","36","0","763"
"76","76","encoding","encoding","102","Tractor_Yellow.jpg","37","0","818"
"76","76","encoding","encoding","103","Colosseum.jpg","37","0","770"
"76","76","encoding","encoding","104","PylonTraffic.jpg","37","0","769"
"76","76","encoding","encoding","105","Strainer_Tea.jpg","36","0","1393"
"76","76","encoding","encoding","106","Vase_Decorative.jpg","36","0","696"
"76","76","encoding","encoding","107","Toy_BlocksWoodenPlain.jpg","36","0","1055"
"76","76","encoding","encoding","108","Jug_Wicker.jpg","36","0","687"
"76","76","encoding","encoding","109","Paddle_Ball.jpg","36","0","999"
"76","76","encoding","encoding","110","Sandcastle.jpg","37","0","710"
"76","76","encoding","encoding","111","Booth_Carnival.jpg","37","0","997"
"76","76","encoding","encoding","112","Table_Poker.jpg","36","0","1221"
"76","76","encoding","encoding","113","Nuts_Pecan.jpg","36","0","1132"
"76","76","encoding","encoding","114","Barometer_Wood.jpg","36","0","939"
"76","76","encoding","encoding","115","Clothespin_Red.jpg","37","0","1091"
"76","76","encoding","encoding","116","Steeple.jpg","37","0","666"
"76","76","encoding","encoding","117","Pot_Cooking.jpg","36","0","842"
"76","76","encoding","encoding","118","Scroll.jpg","36","0","986"
"76","76","encoding","encoding","119","EspressoMachine.jpg","36","0","1017"
"76","76","encoding","encoding","120","PowerDoorPushButton.jpg","36","0","1568"
"76","76","encoding","encoding","121","Pretzel_Knot.jpg","36","0","1032"
"76","76","encoding","encoding","123","Barbecue_Charcoal.jpg","37","0","1119"
"76","76","encoding","encoding","124","Sign_TrafficArrow.jpg","37","0","838"
"76","76","encoding","encoding","125","Rope_Manila.jpg","36","0","1150"
"76","76","encoding","encoding","126","BicycleHandleGrip.jpg","36","0","1133"
"76","76","encoding","encoding","127","PeriodicTable.jpg","36","0","1036"
"76","76","encoding","encoding","128","Ball_Tennis.jpg","37","0","1028"
"76","76","encoding","encoding","129","Hotdog_Weiner.jpg","36","0","1667"
"76","76","encoding","encoding","130","Fencing_HelmetSwords.jpg","36","0","1395"
"76","76","encoding","encoding","131","Machine_Bread.jpg","36","0","1074"
"76","76","encoding","encoding","132","WateringCan_PlasticDarkGreen.jpg","37","0","882"
"76","76","encoding","encoding","133","LintRemover.jpg","36","0","1513"
"76","76","encoding","encoding","134","Cooler.jpg","37","0","881"
"76","76","encoding","encoding","135","Jacket_Suit.jpg","36","0","840"
"76","76","encoding","encoding","136","Foam_Accoustic.jpg","36","0","1279"
"76","76","encoding","encoding","137","Stick_Honey.jpg","36","0","983"
"76","76","encoding","encoding","138","Toy_DonkeyPlastic.jpg","37","0","686"
"76","76","encoding","encoding","139","NewspaperStack.jpg","36","0","1166"
"76","76","encoding","encoding","140","Camel_Dromedary.jpg","37","0","717"
"76","76","encoding","encoding","141","Bottle_Specimen.jpg","36","0","764"
"76","76","encoding","encoding","142","Bench_Black.jpg","37","0","1556"
"76","76","encoding","encoding","143","Box_WoodenClosed.jpg","36","0","636"
"76","76","encoding","encoding","144","Egg_Chocolate.jpg","36","0","811"
"76","76","encoding","encoding","145","Hourglass.jpg","36","0","978"
"76","76","encoding","encoding","146","TissueBox.jpg","36","0","962"
"76","76","encoding","encoding","147","Bowl_Sugar.jpg","36","0","833"
"76","76","encoding","encoding","148","Toy_Chameleon.jpg","37","0","1025"
"76","76","encoding","encoding","149","Steamer.jpg","36","0","888"
"76","76","encoding","encoding","150","Mirror_Handheld.jpg","36","0","776"
"76","76","encoding","encoding","151","PowderProtein.jpg","36","0","662"
"76","76","encoding","encoding","152","Tray_Metal.jpg","36","0","638"
"76","76","encoding","encoding","153","Drink_Cocktail.jpg","36","0","1533"
"76","76","encoding","encoding","154","Flower_Tulip.jpg","37","0","837"
"76","76","encoding","encoding","155","Toy_RobotClassic.jpg","36","0","1068"
"76","76","encoding","encoding","156","Leaf_Green.jpg","37","0","771"
"76","76","encoding","encoding","157","Chair_Dining.jpg","36","0","819"
"76","76","encoding","encoding","158","Toy_ElephantPlastic.jpg","36","0","1498"
"76","76","encoding","encoding","159","Hammer.jpg","36","0","1033"
"76","76","encoding","encoding","160","Cake_Wedding.jpg","36","0","1113"
"76","76","encoding","encoding","161","Tube_Paint.jpg","36","0","776"
"76","76","encoding","encoding","162","CandyDispenser.jpg","36","0","1095"
"76","76","encoding","encoding","163","ChocolateBar_HalfUnwrapped.jpg","36","0","888"
"76","76","encoding","encoding","164","DoorBell.jpg","37","0","1703"
"76","76","encoding","encoding","165","RibbonSpool.jpg","36","0","855"
"76","76","encoding","encoding","166","Toblerone.jpg","36","0","957"
"76","76","encoding","encoding","167","Ladder.jpg","37","0","949"
"76","76","encoding","encoding","168","Gum_Pack.jpg","36","0","956"
"76","76","encoding","encoding","169","Pouch_Red.jpg","36","0","1196"
"76","76","encoding","encoding","170","Fridge.jpg","36","0","820"
"76","76","encoding","encoding","171","Buffalo.jpg","37","0","635"
"76","76","encoding","encoding","172","Stool_Metal.jpg","36","0","818"
"76","76","encoding","encoding","173","Hat_Hard.jpg","37","0","746"
"76","76","encoding","encoding","174","ChiliFlakes.jpg","36","0","833"
"76","76","encoding","encoding","175","Stick_IceHockey.jpg","37","0","864"
"76","76","encoding","encoding","176","Dresser.jpg","36","0","616"
"76","76","encoding","encoding","177","MetalDetector.jpg","36","0","1199"
"76","76","retrieval","new_objects","1","Bible.jpg","37","1","1047"
"76","76","retrieval","old_objects","2","Scooter.jpg","36","1","1028"
"76","76","retrieval","old_objects","3","Ball_Baseball.jpg","36","1","906"
"76","76","retrieval","new_objects","4","Knife_Kitchen.jpg","37","1","861"
"76","76","retrieval","old_objects","5","Strainer_Tea.jpg","36","1","1025"
"76","76","retrieval","new_objects","6","DiaperChangingStation.jpg","37","1","895"
"76","76","retrieval","old_objects","7","Locomotive.jpg","36","1","923"
"76","76","retrieval","old_objects","8","Cake_Wedding.jpg","36","1","885"
"76","76","retrieval","new_objects","9","Tweezers.jpg","36","0","1192"
"76","76","retrieval","new_objects","10","Starfish.jpg","37","1","993"
"76","76","retrieval","new_objects","11","CementFinisher.jpg","37","1","1007"
"76","76","retrieval","old_objects","12","Pliers_ViceGrip.jpg","36","1","1030"
"76","76","retrieval","old_objects","13","Cantaloupe.jpg","36","1","1027"
"76","76","retrieval","new_objects","14","Squash_Pumpkin.jpg","37","1","1121"
"76","76","retrieval","new_objects","15","Walker_Blue.jpg","37","1","724"
"76","76","retrieval","new_objects","16","Dreamcatcher.jpg","37","1","814"
"76","76","retrieval","new_objects","17","Bread_Roll.jpg","37","1","1028"
"76","76","retrieval","new_objects","18","Shark_Hammerhead.jpg","37","1","794"
"76","76","retrieval","new_objects","19","Flamingo_Cartoon.jpg","37","1","721"
"76","76","retrieval","old_objects","20","Paddle_Ball.jpg","36","1","731"
"76","76","retrieval","new_objects","21","PaperTowel_Brown.jpg","37","1","653"
"76","76","retrieval","new_objects","22","Jack.jpg","37","1","1225"
"76","76","retrieval","new_objects","23","Nutcracker.jpg","37","1","1103"
"76","76","retrieval","new_objects","24","Clip_Chip.jpg","36","0","690"
"76","76","retrieval","new_objects","25","Camera_Security.jpg","37","1","757"
"76","76","retrieval","new_objects","26","Bandage_Wrap.jpg","37","1","798"
"76","76","retrieval","new_objects","27","Cannister_Gas.jpg","37","1","749"
"76","76","retrieval","new_objects","28","Barrel_Upright.jpg","37","1","758"
"76","76","retrieval","old_objects","29","Mat_Door.jpg","36","1","702"
"76","76","retrieval","new_objects","30","Lettuce_GreenLeaf.jpg","37","1","665"
"76","76","retrieval","old_objects","31","Tractor_Yellow.jpg","36","1","733"
"76","76","retrieval","old_objects","32","Hotdog_Weiner.jpg","36","1","655"
"76","76","retrieval","old_objects","33","Toy_Firetruck.jpg","36","1","731"
"76","76","retrieval","new_objects","34","Nuts_PeanutsPeeled.jpg","36","0","1053"
"76","76","retrieval","old_objects","35","Hat_Hard.jpg","36","1","705"
"76","76","retrieval","new_objects","36","Chairs_Stacked.jpg","37","1","620"
"76","76","retrieval","old_objects","37","Barometer_Wood.jpg","36","1","674"
"76","76","retrieval","old_objects","38","Glass_Beer.jpg","36","1","766"
"76","76","retrieval","new_objects","39","Cage_Bird.jpg","37","1","606"
"76","76","retrieval","new_objects","40","SnowGlobe.jpg","37","1","741"
"76","76","retrieval","old_objects","41","Statue_Cat.jpg","36","1","638"
"76","76","retrieval","old_objects","42","Bench_Black.jpg","36","1","652"
"76","76","retrieval","new_objects","43","Glove_Rubber.jpg","37","1","664"
"76","76","retrieval","new_objects","44","Toolbox_BlackOpen.jpg","37","1","821"
"76","76","retrieval","old_objects","45","VacuumHandheld.jpg","36","1","675"
"76","76","retrieval","new_objects","46","Helmet_Bicycle.jpg","37","1","791"
"76","76","retrieval","old_objects","47","NetButterfly.jpg","36","1","710"
"76","76","retrieval","new_objects","48","Speaker_Computer.jpg","37","1","641"
"76","76","retrieval","new_objects","49","Pipe_Drain.jpg","37","1","767"
"76","76","retrieval","new_objects","50","Bird_Toucan.jpg","36","0","750"
"76","76","retrieval","new_objects","51","Knee.jpg","37","1","671"
"76","76","retrieval","new_objects","52","Star.jpg","37","1","1259"
"76","76","retrieval","old_objects","53","Cooler.jpg","36","1","599"
"76","76","retrieval","new_objects","54","Cornucopia.jpg","37","1","918"
"76","76","retrieval","old_objects","55","Buffalo.jpg","36","1","656"
"76","76","retrieval","old_objects","56","LintRemover.jpg","36","1","677"
"76","76","retrieval","new_objects","57","Box_WoodenOpen.jpg","36","0","937"
"76","76","retrieval","new_objects","58","JoustingSpear.jpg","37","1","820"
"76","76","retrieval","old_objects","59","EyeChart.jpg","36","1","809"
"76","76","retrieval","new_objects","60","Scalpel.jpg","37","1","968"
"76","76","retrieval","new_objects","62","WaterColorPaintset.jpg","37","1","949"
"76","76","retrieval","new_objects","63","MonaLisa.jpg","37","1","854"
"76","76","retrieval","old_objects","64","Comb.jpg","36","1","795"
"76","76","retrieval","new_objects","65","SewingPin_Single.jpg","37","1","1017"
"76","76","retrieval","old_objects","66","Stamp.jpg","36","1","655"
"76","76","retrieval","new_objects","67","Hotdog_WithBun.jpg","37","1","908"
"76","76","retrieval","new_objects","68","Eraser.jpg","37","1","751"
"76","76","retrieval","new_objects","69","TireRims.jpg","37","1","847"
"76","76","retrieval","old_objects","70","Tube_Paint.jpg","36","1","676"
"76","76","retrieval","new_objects","71","HairClip.jpg","37","1","768"
"76","76","retrieval","old_objects","72","Sink_Kitchen.jpg","36","1","632"
"76","76","retrieval","old_objects","73","Fridge.jpg","36","1","661"
"76","76","retrieval","old_objects","74","Jacks.jpg","36","1","674"
"76","76","retrieval","old_objects","75","Puffin.jpg","37","0","1310"
"76","76","retrieval","new_objects","76","Bucket_Halloween.jpg","37","1","777"
"76","76","retrieval","old_objects","77","Bottle_Blue.jpg","36","1","665"
"76","76","retrieval","new_objects","78","LumiereBeautyBeast.jpg","37","1","637"
"76","76","retrieval","old_objects","79","Chair_Dining.jpg","36","1","610"
"76","76","retrieval","new_objects","80","Toy_BeadMaze.jpg","37","1","617"
"76","76","retrieval","old_objects","81","Ball_Tennis.jpg","36","1","648"
"76","76","retrieval","new_objects","82","Bottle_Beer.jpg","37","1","700"
"76","76","retrieval","old_objects","83","Sandwich_Ham.jpg","36","1","623"
"76","76","retrieval","old_objects","84","Stool_Metal.jpg","36","1","645"
"76","76","retrieval","new_objects","85","Pumpkin.jpg","37","1","898"
"76","76","retrieval","new_objects","86","SelfieStick.jpg","36","0","972"
"76","76","retrieval","new_objects","87","Swan.jpg","37","1","725"
"76","76","retrieval","old_objects","88","Bucket_WoodenLight.jpg","36","1","646"
"76","76","retrieval","old_objects","89","Table_Poker.jpg","36","1","843"
"76","76","retrieval","new_objects","90","Hat_Party.jpg","37","1","608"
"76","76","retrieval","old_objects","91","Cake_Cheese.jpg","36","1","983"
"76","76","retrieval","old_objects","92","Blanket.jpg","36","1","646"
"76","76","retrieval","new_objects","93","Pants_Jeans.jpg","37","1","708"
"76","76","retrieval","old_objects","94","Box_WoodenClosed.jpg","36","1","686"
"76","76","retrieval","new_objects","95","SolderingWire.jpg","36","0","1169"
"76","76","retrieval","new_objects","96","Lock_Key.jpg","37","1","754"
"76","76","retrieval","old_objects","97","Machine_Bread.jpg","36","1","723"
"76","76","retrieval","old_objects","98","BicycleHandleGrip.jpg","36","1","869"
"76","76","retrieval","old_objects","99","CashRegister_Antique.jpg","36","1","728"
"76","76","retrieval","old_objects","100","MetalDetector.jpg","36","1","698"
"76","76","retrieval","old_objects","101","Bag_String.jpg","36","1","1061"
"76","76","retrieval","new_objects","102","RiceRaw.jpg","37","1","738"
"76","76","retrieval","new_objects","103","PaperShredder.jpg","37","1","899"
"76","76","retrieval","new_objects","104","Box_FirstAidOpen.jpg","37","1","1326"
"76","76","retrieval","new_objects","105","Bottle_Bleach.jpg","37","1","856"
"76","76","retrieval","old_objects","106","Squash_Butternut.jpg","36","1","685"
"76","76","retrieval","new_objects","107","Mirror_Makeup.jpg","36","0","984"
"76","76","retrieval","old_objects","108","House_Rural.jpg","36","1","816"
"76","76","retrieval","old_objects","109","Jacket_Suit.jpg","36","1","653"
"76","76","retrieval","new_objects","110","CarJack.jpg","37","1","1042"
"76","76","retrieval","new_objects","111","Candle_Blue.jpg","37","1","1080"
"76","76","retrieval","new_objects","112","FlipFlop_PairBlue.jpg","37","1","1027"
"76","76","retrieval","old_objects","113","PickupTruck.jpg","36","1","729"
"76","76","retrieval","old_objects","114","Egg_Chocolate.jpg","36","1","723"
"76","76","retrieval","new_objects","115","Glass_Cup.jpg","37","1","965"
"76","76","retrieval","old_objects","116","Stick_IceHockey.jpg","36","1","702"
"76","76","retrieval","new_objects","117","Exercise_Stretch.jpg","37","1","825"
"76","76","retrieval","old_objects","118","Artichoke.jpg","36","1","750"
"76","76","retrieval","old_objects","119","Toy_Rooster.jpg","36","1","671"
"76","76","retrieval","new_objects","120","Ashtray_Empty.jpg","37","1","851"
"76","76","retrieval","new_objects","121","Earrings_Dangling.jpg","37","1","856"
"76","76","retrieval","old_objects","123","Yarmulke.jpg","36","1","1060"
"76","76","retrieval","new_objects","124","Fuse.jpg","37","1","945"
"76","76","retrieval","new_objects","125","Pear_Yellow.jpg","37","1","913"
"76","76","retrieval","old_objects","126","Hourglass.jpg","36","1","876"
"76","76","retrieval","old_objects","127","Candleholder_LampShaped.jpg","36","1","1008"
"76","76","retrieval","new_objects","128","Truck_Dump.jpg","36","0","1271"
"76","76","retrieval","new_objects","129","Coconut.jpg","37","1","931"
"76","76","retrieval","old_objects","130","Toy_ElephantPlastic.jpg","36","1","780"
"76","76","retrieval","new_objects","131","Ruler_Digital.jpg","37","1","876"
"76","76","retrieval","old_objects","132","Domino.jpg","36","1","753"
"76","76","retrieval","new_objects","133","Cranberry.jpg","36","0","1064"
"76","76","retrieval","old_objects","134","Stove_Portable.jpg","36","1","765"
"76","76","retrieval","old_objects","135","Stovetop.jpg","36","1","621"
"76","76","retrieval","old_objects","136","Vase_Decorative.jpg","36","1","707"
"76","76","retrieval","new_objects","137","CapGraduation.jpg","37","1","678"
"76","76","retrieval","new_objects","138","Toy_RabbitPlushie.jpg","37","1","897"
"76","76","retrieval","old_objects","139","SledgeHammer.jpg","36","1","668"
"76","76","retrieval","old_objects","140","Toy_Lizard.jpg","36","1","952"
"76","76","retrieval","old_objects","141","Barbecue_Charcoal.jpg","36","1","1040"
"76","76","retrieval","old_objects","142","ShinPads.jpg","36","1","687"
"76","76","retrieval","new_objects","143","CinderBlock.jpg","37","1","865"
"76","76","retrieval","new_objects","144","CashRegister_Modern.jpg","37","1","1006"
"76","76","retrieval","new_objects","145","Chair_PlasticGreen.jpg","37","1","860"
"76","76","retrieval","new_objects","146","ChalkLineTool.jpg","37","1","1041"
"76","76","retrieval","new_objects","147","Stool_Camping.jpg","36","0","1126"
"76","76","retrieval","new_objects","148","HairClipper.jpg","36","0","848"
"76","76","retrieval","new_objects","149","Lynx.jpg","37","1","725"
"76","76","retrieval","old_objects","150","NewspaperStack.jpg","36","1","671"
"76","76","retrieval","new_objects","151","GogglesSwim.jpg","37","1","731"
"76","76","retrieval","old_objects","152","LifeJacket_Orangejpg.jpg","36","1","740"
"76","76","retrieval","old_objects","153","ButterDish.jpg","36","1","694"
"76","76","retrieval","new_objects","154","Helmet_Soldier.jpg","37","1","929"
"76","76","retrieval","new_objects","155","ComputerKeyboard_F1.jpg","37","1","858"
"76","76","retrieval","old_objects","156","Fortress.jpg","36","1","703"
"76","76","retrieval","old_objects","157","Booth_Carnival.jpg","36","1","626"
"76","76","retrieval","new_objects","158","PenHolder.jpg","37","1","1088"
"76","76","retrieval","old_objects","159","Toy_RobotClassic.jpg","36","1","699"
"76","76","retrieval","old_objects","160","Boots_KneeHigh.jpg","37","0","742"
"76","76","retrieval","old_objects","161","Colosseum.jpg","36","1","1064"
"76","76","retrieval","old_objects","162","Hippopotamus.jpg","36","1","708"
"76","76","retrieval","old_objects","163","Generator.jpg","36","1","782"
"76","76","retrieval","new_objects","164","SolderingIron.jpg","36","0","1318"
"76","76","retrieval","old_objects","165","Nuts_Pecan.jpg","36","1","832"
"76","76","retrieval","new_objects","166","Crab.jpg","37","1","733"
"76","76","retrieval","old_objects","167","Caterpillar.jpg","36","1","655"
"76","76","retrieval","new_objects","168","Brush_Shoe.jpg","37","1","955"
"76","76","retrieval","old_objects","169","PumpBreast.jpg","36","1","780"
"76","76","retrieval","new_objects","170","Elephant.jpg","36","0","916"
"76","76","retrieval","old_objects","171","ManholeCover.jpg","36","1","790"
"76","76","retrieval","old_objects","172","Stool_Foot.jpg","36","1","693"
"76","76","retrieval","new_objects","173","Nametag.jpg","37","1","1088"
"76","76","retrieval","new_objects","174","Syringe_Needle.jpg","37","1","1268"
"76","76","retrieval","new_objects","175","Pen_Ballpoint.jpg","37","1","1496"
"76","76","retrieval","new_objects","176","Grill_Gas.jpg","37","1","1003"
"76","76","retrieval","new_objects","177","RollerBlade.jpg","37","1","1353"
"76","76","retrieval","new_objects","178","Chainsaw.jpg","37","1","938"
"76","76","retrieval","new_objects","179","EyeDrops.jpg","37","1","1163"
"76","76","retrieval","new_objects","180","Bat_Cricket.jpg","37","1","1051"
"76","76","retrieval","new_objects","181","DryingMachine.jpg","37","1","1201"
"76","76","retrieval","new_objects","182","Walkman.jpg","37","1","935"
"76","76","retrieval","old_objects","184","Pacifier.jpg","36","1","1092"
"76","76","retrieval","new_objects","185","Lips_Real.jpg","37","1","743"
"76","76","retrieval","new_objects","186","Ghost.jpg","37","1","921"
"76","76","retrieval","old_objects","187","Boat_Dinghy.jpg","36","1","771"
"76","76","retrieval","old_objects","188","Pot_Cooking.jpg","36","1","667"
"76","76","retrieval","old_objects","189","Toy_DonkeyPlastic.jpg","36","1","768"
"76","76","retrieval","old_objects","190","CookieCutter_Bell.jpg","36","1","751"
"76","76","retrieval","old_objects","191","Horn_French.jpg","36","1","672"
"76","76","retrieval","new_objects","192","FileFolder.jpg","37","1","836"
"76","76","retrieval","old_objects","193","PlayerFootball.jpg","36","1","729"
"76","76","retrieval","old_objects","194","PulleyWooden.jpg","36","1","1052"
"76","76","retrieval","old_objects","195","TissueBox.jpg","36","1","680"
"76","76","retrieval","new_objects","196","Drum_Cymbal.jpg","37","1","1147"
"76","76","retrieval","new_objects","197","Shoes_WomenBoots.jpg","37","1","1229"
"76","76","retrieval","old_objects","198","Gloves_Bicycle.jpg","36","1","915"
"76","76","retrieval","old_objects","199","Candy_Toffee.jpg","36","1","637"
"76","76","retrieval","new_objects","200","Decoration_ChristmasWhite.jpg","37","1","914"
"76","76","retrieval","old_objects","201","Flower_Tulip.jpg","36","1","700"
"76","76","retrieval","old_objects","202","Gum_Pack.jpg","36","1","566"
"76","76","retrieval","old_objects","203","Mirror_Handheld.jpg","36","1","607"
"76","76","retrieval","old_objects","204","Jug_Wicker.jpg","37","0","781"
"76","76","retrieval","new_objects","205","Necklace_Black.jpg","37","1","701"
"76","76","retrieval","old_objects","206","HerbsInBag.jpg","36","1","655"
"76","76","retrieval","old_objects","207","Lens_ColourFilter.jpg","36","1","716"
"76","76","retrieval","old_objects","208","DrillBit.jpg","36","1","646"
"76","76","retrieval","new_objects","209","Tree_ChristmasMini.jpg","37","1","835"
"76","76","retrieval","new_objects","210","Icepick.jpg","36","0","656"
"76","76","retrieval","new_objects","211","PocketKnife.jpg","37","1","902"
"76","76","retrieval","new_objects","212","DoubleBass.jpg","36","0","680"
"76","76","retrieval","new_objects","213","Rock_Mimetite.jpg","36","0","827"
"76","76","retrieval","old_objects","214","ChocolateBar_HalfUnwrapped.jpg","36","1","777"
"76","76","retrieval","old_objects","215","Cane_Metal.jpg","36","1","641"
"76","76","retrieval","old_objects","216","PowerDoorPushButton.jpg","36","1","903"
"76","76","retrieval","old_objects","217","Instrument_African.jpg","36","1","913"
"76","76","retrieval","new_objects","218","SaxophoneSoprano.jpg","37","1","875"
"76","76","retrieval","new_objects","219","Castle_Sand.jpg","36","0","752"
"76","76","retrieval","new_objects","220","Radio_Modern.jpg","37","1","1008"
"76","76","retrieval","old_objects","221","Toy_Chameleon.jpg","36","1","911"
"76","76","retrieval","old_objects","222","PeriodicTable.jpg","36","1","1098"
"76","76","retrieval","old_objects","223","Box_Jewellery.jpg","36","1","685"
"76","76","retrieval","old_objects","224","DoorBell.jpg","36","1","728"
"76","76","retrieval","old_objects","225","Toblerone.jpg","36","1","722"
"76","76","retrieval","old_objects","226","Dragonfly.jpg","36","1","828"
"76","76","retrieval","old_objects","227","Mug_Travel.jpg","36","1","706"
"76","76","retrieval","new_objects","228","RibbonPin.jpg","37","1","732"
"76","76","retrieval","new_objects","229","TeethMould.jpg","37","1","983"
"76","76","retrieval","old_objects","230","CigarCase.jpg","36","1","821"
"76","76","retrieval","old_objects","231","Pouch_Red.jpg","36","1","700"
"76","76","retrieval","new_objects","232","CarSeat.jpg","37","1","1054"
"76","76","retrieval","new_objects","233","Statue_Jesus.jpg","37","1","939"
"76","76","retrieval","new_objects","234","Dolly.jpg","37","1","988"
"76","76","retrieval","new_objects","235","TomatoSauce.jpg","37","1","844"
"76","76","retrieval","new_objects","236","Seal_animal.jpg","37","1","1033"
"76","76","retrieval","new_objects","237","DonaldDuck_Toy.jpg","37","1","911"
"76","76","retrieval","new_objects","238","Knife_Butter.jpg","37","1","857"
"76","76","retrieval","new_objects","239","Jar_Cotton.jpg","37","1","927"
"76","76","retrieval","new_objects","240","Canister_Tea.jpg","37","1","784"
"76","76","retrieval","old_objects","241","ShoeLace_Flat.jpg","36","1","768"
"76","76","retrieval","new_objects","242","Pajamas.jpg","37","1","759"
"76","76","retrieval","old_objects","243","FloorTile.jpg","36","1","648"
"76","76","retrieval","new_objects","245","Carabiner_Orange.jpg","37","1","925"
"76","76","retrieval","old_objects","246","Stick_Honey.jpg","36","1","879"
"76","76","retrieval","old_objects","247","CandyDispenser.jpg","36","1","787"
"76","76","retrieval","new_objects","248","WagonPilgrim.jpg","37","1","723"
"76","76","retrieval","old_objects","249","Bottle_Oil.jpg","36","1","693"
"76","76","retrieval","old_objects","250","Bag_PaperWithFlour.jpg","36","1","640"
"76","76","retrieval","new_objects","251","Jar_Capers.jpg","37","1","765"
"76","76","retrieval","old_objects","252","Bowl_Chopsticks.jpg","36","1","702"
"76","76","retrieval","old_objects","253","Suit_Women.jpg","36","1","673"
"76","76","retrieval","old_objects","254","Pretzel_Knot.jpg","36","1","580"
"76","76","retrieval","old_objects","255","Bottle_Specimen.jpg","36","1","708"
"76","76","retrieval","new_objects","256","DryRack_Clothes.jpg","37","1","742"
"76","76","retrieval","new_objects","257","EyeExamDevice.jpg","37","1","1248"
"76","76","retrieval","new_objects","258","Weights_Dumbells.jpg","36","0","932"
"76","76","retrieval","new_objects","259","Tiara.jpg","37","1","718"
"76","76","retrieval","new_objects","260","Faucet.jpg","37","1","880"
"76","76","retrieval","new_objects","261","Crossbow.jpg","37","1","1043"
"76","76","retrieval","new_objects","262","Lychee.jpg","37","1","769"
"76","76","retrieval","old_objects","263","ChiliFlakes.jpg","36","1","697"
"76","76","retrieval","old_objects","264","PylonTraffic.jpg","36","1","892"
"76","76","retrieval","old_objects","265","Sign_TrafficArrow.jpg","36","1","799"
"76","76","retrieval","old_objects","266","Bowl_Sugar.jpg","36","1","662"
"76","76","retrieval","old_objects","267","Mitt_Oven.jpg","36","1","906"
"76","76","retrieval","new_objects","268","Toaster_MetalSleek.jpg","37","1","981"
"76","76","retrieval","old_objects","269","Foam_Accoustic.jpg","36","1","660"
"76","76","retrieval","old_objects","270","Fencing_HelmetSwords.jpg","36","1","761"
"76","76","retrieval","old_objects","271","Kangaroo_WithJoey.jpg","36","1","970"
"76","76","retrieval","old_objects","272","Toy_BlocksWoodenPlain.jpg","36","1","658"
"76","76","retrieval","old_objects","273","Tray_Medical.jpg","36","1","791"
"76","76","retrieval","old_objects","274","Hammer.jpg","36","1","646"
"76","76","retrieval","old_objects","275","Camel_Dromedary.jpg","36","1","875"
"76","76","retrieval","old_objects","276","TelephoneSwitchboard.jpg","36","1","888"
"76","76","retrieval","old_objects","277","Bag_Satchel.jpg","36","1","731"
"76","76","retrieval","old_objects","278","Pillow_Plaid.jpg","36","1","645"
"76","76","retrieval","old_objects","279","Drink_Cocktail.jpg","36","1","722"
"76","76","retrieval","new_objects","280","Snowpea.jpg","36","0","644"
"76","76","retrieval","old_objects","281","Sandcastle.jpg","36","1","625"
"76","76","retrieval","new_objects","282","CoffeeGrinder.jpg","37","1","927"
"76","76","retrieval","old_objects","283","EspressoMachine.jpg","36","1","721"
"76","76","retrieval","new_objects","284","ElasticBand.jpg","36","0","971"
"76","76","retrieval","old_objects","285","Bag_Toiletry.jpg","36","1","668"
"76","76","retrieval","new_objects","286","Sign_Parking.jpg","37","1","728"
"76","76","retrieval","old_objects","287","Toy_TrailerAirport.jpg","36","1","802"
"76","76","retrieval","old_objects","288","Rope_Manila.jpg","36","1","664"
"76","76","retrieval","new_objects","289","HairDryer.jpg","36","0","1076"
"76","76","retrieval","new_objects","290","Bread_Carrot.jpg","37","1","817"
"76","76","retrieval","new_objects","291","Jug_GallonWhite.jpg","36","0","1158"
"76","76","retrieval","old_objects","292","RugRoled.jpg","36","1","1127"
"76","76","retrieval","new_objects","293","Gun_Glue.jpg","37","1","1273"
"76","76","retrieval","new_objects","294","Staircase_Straight.jpg","37","1","869"
"76","76","retrieval","old_objects","295","Leaf_Green.jpg","36","1","689"
"76","76","retrieval","old_objects","296","StringBean.jpg","36","1","629"
"76","76","retrieval","new_objects","297","Egg_Wooden.jpg","37","1","889"
"76","76","retrieval","new_objects","298","Razor.jpg","37","1","1053"
"76","76","retrieval","new_objects","299","Cracker_Saltine.jpg","37","1","714"
"76","76","retrieval","old_objects","300","WateringCan_PlasticDarkGreen.jpg","36","1","660"
"76","76","retrieval","new_objects","301","BuildingChinese.jpg","37","1","1137"
"76","76","retrieval","new_objects","302","OnionRings.jpg","37","1","962"
"76","76","retrieval","new_objects","303","Bird_Duck.jpg","37","1","1236"
"76","76","retrieval","new_objects","304","Boxcutter.jpg","36","0","1064"
"76","76","retrieval","old_objects","306","Olives.jpg","36","1","751"
"76","76","retrieval","old_objects","307","ComputerKeyboard.jpg","36","1","1048"
"76","76","retrieval","old_objects","308","Ferret.jpg","36","1","949"
"76","76","retrieval","new_objects","309","Bird_Parrot.jpg","37","1","957"
"76","76","retrieval","old_objects","310","Steeple.jpg","37","0","1126"
"76","76","retrieval","old_objects","311","BumperCar.jpg","36","1","808"
"76","76","retrieval","new_objects","312","Bowl_Chinese.jpg","37","1","767"
"76","76","retrieval","new_objects","313","GasStation.jpg","37","1","799"
"76","76","retrieval","old_objects","314","Helmet_Football.jpg","36","1","661"
"76","76","retrieval","old_objects","315","VinylRecord.jpg","36","1","626"
"76","76","retrieval","new_objects","316","Flashlight.jpg","36","0","969"
"76","76","retrieval","old_objects","317","Clothespin_Red.jpg","36","1","640"
"76","76","retrieval","new_objects","318","Balalaika.jpg","37","1","830"
"76","76","retrieval","new_objects","319","Shrimp.jpg","37","1","963"
"76","76","retrieval","new_objects","320","WaterHeater.jpg","37","1","939"
"76","76","retrieval","old_objects","321","Guacamole.jpg","36","1","764"
"76","76","retrieval","new_objects","322","Tape_Washi.jpg","37","1","709"
"76","76","retrieval","old_objects","323","Crutches.jpg","36","1","704"
"76","76","retrieval","new_objects","324","Steam_Cleaner.jpg","37","1","834"
"76","76","retrieval","new_objects","325","Bag_Grains.jpg","37","1","1272"
"76","76","retrieval","new_objects","326","PotatoMasher_Grate.jpg","36","0","1123"
"76","76","retrieval","old_objects","327","Tray_Metal.jpg","37","0","1342"
"76","76","retrieval","new_objects","328","Defribrillator.jpg","37","1","1231"
"76","76","retrieval","old_objects","329","Clock_Grandfather.jpg","36","1","612"
"76","76","retrieval","new_objects","330","FortuneCookie.jpg","37","1","867"
"76","76","retrieval","old_objects","331","Ladder.jpg","36","1","661"
"76","76","retrieval","old_objects","332","Stationary.jpg","36","1","723"
"76","76","retrieval","old_objects","333","Dresser.jpg","36","1","621"
"76","76","retrieval","old_objects","334","Hubcap.jpg","36","1","827"
"76","76","retrieval","old_objects","335","Scroll.jpg","36","1","673"
"76","76","retrieval","new_objects","336","ClothesDryingRack.jpg","36","0","902"
"76","76","retrieval","old_objects","337","Chipmunk.jpg","36","1","704"
"76","76","retrieval","new_objects","338","Mask_VenetianLongNose.jpg","37","1","739"
"76","76","retrieval","new_objects","339","Toy_Shapesorter.jpg","37","1","844"
"76","76","retrieval","new_objects","340","LightBulb_Christmas.jpg","37","1","906"
"76","76","retrieval","old_objects","341","Can_Olives.jpg","36","1","844"
"76","76","retrieval","new_objects","342","Garlic_Clove.jpg","37","1","825"
"76","76","retrieval","old_objects","343","Megaphone.jpg","36","1","727"
"76","76","retrieval","old_objects","344","RibbonSpool.jpg","36","1","634"
"76","76","retrieval","new_objects","345","Computer_ExpansionCard.jpg","37","1","998"
"76","76","retrieval","old_objects","346","Candy_Lozenge.jpg","36","1","677"
"76","76","retrieval","old_objects","347","Quartz.jpg","36","1","705"
"76","76","retrieval","old_objects","348","Steamer.jpg","36","1","732"
"76","76","retrieval","old_objects","349","Tray_Muffin.jpg","36","1","669"
"76","76","retrieval","old_objects","350","CandleSnuffer.jpg","36","1","738"
"76","76","retrieval","new_objects","351","GiftBow.jpg","37","1","1139"
"76","76","retrieval","old_objects","352","GPS.jpg","36","1","724"
"76","76","retrieval","new_objects","353","IceCubes copy.jpg","37","1","758"
"76","76","retrieval","old_objects","354","Rake_Long.jpg","36","1","688"
"76","76","retrieval","old_objects","355","PowderProtein.jpg","36","1","1075"
"76","76","demographics_block","gender","1","PowderProtein.jpg","female","1","20717"
"76","76","demographics_block","age","1","PowderProtein.jpg","65","1","20717"
"76","76","demographics_block","education","1","PowderProtein.jpg","13","1","20717"
"76","76","demographics_block","left_right_handed","2","PowderProtein.jpg","Right","1","8914"
"76","76","demographics_block","raceoption1","2","PowderProtein.jpg","0","1","8914"
"76","76","demographics_block","raceoption2","2","PowderProtein.jpg","","1","8914"
"76","76","demographics_block","raceoption3","2","PowderProtein.jpg","","1","8914"
"76","76","demographics_block","raceoption4","2","PowderProtein.jpg","","1","8914"
"76","76","demographics_block","raceoption5","2","PowderProtein.jpg","","1","8914"
"76","76","demographics_block","raceoption6","2","PowderProtein.jpg","","1","8914"
"76","76","demographics_block","raceoption7","2","PowderProtein.jpg","","1","8914"
"76","76","demographics_block","raceoption8","2","PowderProtein.jpg","","1","8914"
"76","76","demographics_block","raceoption9","2","PowderProtein.jpg","","1","8914"
"76","76","demographics_block","raceother","2","PowderProtein.jpg","","1","8914"
"76","76","demographics_block","raceother","2","PowderProtein.jpg","","1","8914"
"76","76","demographics_block","english_language","2","PowderProtein.jpg","Yes","1","8914"
"76","76","demographics_block","english_languageother","2","PowderProtein.jpg","","1","8914"
"76","76","demographics_block","eyesight","3","PowderProtein.jpg","Yes","1","6956"
"76","76","demographics_block","colorblind","3","PowderProtein.jpg","No","1","6956"
"76","76","worker_id_block","worker_id_textbox","1","PowderProtein.jpg","A14IPKOBOPID9H","1","29667"
"79","79","encoding","encoding","1","Bag_Toiletry.jpg","36","0","989"
"79","79","encoding","encoding","2","Stick_Honey.jpg","0","0","2000"
"79","79","encoding","encoding","3","PeriodicTable.jpg","36","0","1047"
"79","79","encoding","encoding","4","HerbsInBag.jpg","36","0","149"
"79","79","encoding","encoding","5","BicycleHandleGrip.jpg","37","0","223"
"79","79","encoding","encoding","6","Gloves_Bicycle.jpg","36","0","158"
"79","79","encoding","encoding","7","Cantaloupe.jpg","36","0","175"
"79","79","encoding","encoding","8","Machine_Bread.jpg","36","0","659"
"79","79","encoding","encoding","9","Egg_Chocolate.jpg","36","0","129"
"79","79","encoding","encoding","10","Artichoke.jpg","37","0","1202"
"79","79","encoding","encoding","11","Clothespin_Red.jpg","37","0","177"
"79","79","encoding","encoding","12","Tractor_Yellow.jpg","0","0","2000"
"79","79","encoding","encoding","13","Dragonfly.jpg","36","0","1612"
"79","79","encoding","encoding","14","Mat_Door.jpg","36","0","628"
"79","79","encoding","encoding","15","BumperCar.jpg","36","0","681"
"79","79","encoding","encoding","16","Toy_Rooster.jpg","36","0","1434"
"79","79","encoding","encoding","17","Bottle_Blue.jpg","36","0","607"
"79","79","encoding","encoding","18","Pacifier.jpg","36","0","864"
"79","79","encoding","encoding","19","PowerDoorPushButton.jpg","36","0","1315"
"79","79","encoding","encoding","20","RibbonSpool.jpg","36","0","1272"
"79","79","encoding","encoding","21","GPS.jpg","36","0","1416"
"79","79","encoding","encoding","22","ButterDish.jpg","36","0","1818"
"79","79","encoding","encoding","23","Tray_Muffin.jpg","36","0","1141"
"79","79","encoding","encoding","24","Bag_String.jpg","36","0","1455"
"79","79","encoding","encoding","25","CandyDispenser.jpg","36","0","888"
"79","79","encoding","encoding","26","EspressoMachine.jpg","36","0","2"
"79","79","encoding","encoding","27","Jug_Wicker.jpg","36","0","1343"
"79","79","encoding","encoding","28","Toy_DonkeyPlastic.jpg","36","0","891"
"79","79","encoding","encoding","29","Guacamole.jpg","36","0","1072"
"79","79","encoding","encoding","30","Cane_Metal.jpg","36","0","777"
"79","79","encoding","encoding","31","WateringCan_PlasticDarkGreen.jpg","37","0","349"
"79","79","encoding","encoding","32","Flower_Tulip.jpg","36","0","883"
"79","79","encoding","encoding","33","Sink_Kitchen.jpg","36","0","673"
"79","79","encoding","encoding","34","ChiliFlakes.jpg","0","0","2000"
"79","79","encoding","encoding","35","Vase_Decorative.jpg","0","0","2000"
"79","79","encoding","encoding","36","TelephoneSwitchboard.jpg","36","0","15"
"79","79","encoding","encoding","37","Pillow_Plaid.jpg","36","0","805"
"79","79","encoding","encoding","38","Sandcastle.jpg","36","0","856"
"79","79","encoding","encoding","39","Pretzel_Knot.jpg","37","0","652"
"79","79","encoding","encoding","40","CigarCase.jpg","0","0","2000"
"79","79","encoding","encoding","41","Tube_Paint.jpg","36","0","823"
"79","79","encoding","encoding","42","CookieCutter_Bell.jpg","36","0","382"
"79","79","encoding","encoding","43","Tray_Metal.jpg","36","0","445"
"79","79","encoding","encoding","44","StringBean.jpg","36","0","120"
"79","79","encoding","encoding","45","Mirror_Handheld.jpg","36","0","42"
"79","79","encoding","encoding","46","Bottle_Specimen.jpg","36","0","427"
"79","79","encoding","encoding","47","Megaphone.jpg","36","0","897"
"79","79","encoding","encoding","48","VacuumHandheld.jpg","36","0","7"
"79","79","encoding","encoding","49","Fridge.jpg","36","0","772"
"79","79","encoding","encoding","50","Cake_Wedding.jpg","37","0","315"
"79","79","encoding","encoding","51","Buffalo.jpg","36","0","832"
"79","79","encoding","encoding","52","Mug_Travel.jpg","36","0","586"
"79","79","encoding","encoding","53","NewspaperStack.jpg","36","0","740"
"79","79","encoding","encoding","54","Sign_TrafficArrow.jpg","36","0","853"
"79","79","encoding","encoding","55","Stick_IceHockey.jpg","36","0","813"
"79","79","encoding","encoding","56","Chair_Dining.jpg","36","0","498"
"79","79","encoding","encoding","57","Pot_Cooking.jpg","36","0","639"
"79","79","encoding","encoding","58","Yarmulke.jpg","36","0","622"
"79","79","encoding","encoding","59","Boots_KneeHigh.jpg","36","0","136"
"79","79","encoding","encoding","60","Bucket_WoodenLight.jpg","36","0","649"
"79","79","encoding","encoding","62","DoorBell.jpg","36","0","812"
"79","79","encoding","encoding","63","Chipmunk.jpg","37","0","860"
"79","79","encoding","encoding","64","Bench_Black.jpg","37","0","846"
"79","79","encoding","encoding","65","Bowl_Sugar.jpg","36","0","893"
"79","79","encoding","encoding","66","Stationary.jpg","36","0","968"
"79","79","encoding","encoding","67","Ladder.jpg","36","0","1102"
"79","79","encoding","encoding","68","Toy_RobotClassic.jpg","36","0","985"
"79","79","encoding","encoding","69","Bag_Satchel.jpg","36","0","722"
"79","79","encoding","encoding","70","Sandwich_Ham.jpg","36","0","1267"
"79","79","encoding","encoding","71","Bag_PaperWithFlour.jpg","36","0","1433"
"79","79","encoding","encoding","72","Stovetop.jpg","36","0","823"
"79","79","encoding","encoding","73","Statue_Cat.jpg","36","0","656"
"79","79","encoding","encoding","74","Crutches.jpg","36","0","859"
"79","79","encoding","encoding","75","Tray_Medical.jpg","36","0","747"
"79","79","encoding","encoding","76","Pouch_Red.jpg","36","0","527"
"79","79","encoding","encoding","77","Scroll.jpg","36","0","851"
"79","79","encoding","encoding","78","Drink_Cocktail.jpg","36","0","610"
"79","79","encoding","encoding","79","Clock_Grandfather.jpg","36","0","611"
"79","79","encoding","encoding","80","Toy_Lizard.jpg","36","0","594"
"79","79","encoding","encoding","81","Ferret.jpg","37","0","1153"
"79","79","encoding","encoding","82","Lens_ColourFilter.jpg","36","0","901"
"79","79","encoding","encoding","83","PowderProtein.jpg","36","0","950"
"79","79","encoding","encoding","84","Fortress.jpg","37","0","1106"
"79","79","encoding","encoding","85","Helmet_Football.jpg","36","0","894"
"79","79","encoding","encoding","86","Table_Poker.jpg","36","0","1519"
"79","79","encoding","encoding","87","DrillBit.jpg","36","0","1020"
"79","79","encoding","encoding","88","Box_Jewellery.jpg","36","0","1508"
"79","79","encoding","encoding","89","Barbecue_Charcoal.jpg","36","0","1970"
"79","79","encoding","encoding","90","Puffin.jpg","37","0","1182"
"79","79","encoding","encoding","91","Steamer.jpg","36","0","792"
"79","79","encoding","encoding","92","Glass_Beer.jpg","36","0","1969"
"79","79","encoding","encoding","93","Locomotive.jpg","37","0","1089"
"79","79","encoding","encoding","94","Rope_Manila.jpg","37","0","1026"
"79","79","encoding","encoding","95","Scooter.jpg","36","0","537"
"79","79","encoding","encoding","96","Caterpillar.jpg","36","0","540"
"79","79","encoding","encoding","97","Quartz.jpg","0","0","2000"
"79","79","encoding","encoding","98","Stool_Metal.jpg","36","0","758"
"79","79","encoding","encoding","99","Leaf_Green.jpg","36","0","1811"
"79","79","encoding","encoding","100","Olives.jpg","37","0","1197"
"79","79","encoding","encoding","101","Strainer_Tea.jpg","37","0","491"
"79","79","encoding","encoding","102","Hubcap.jpg","37","0","913"
"79","79","encoding","encoding","103","Box_WoodenClosed.jpg","37","0","1420"
"79","79","encoding","encoding","104","Toy_TrailerAirport.jpg","37","0","708"
"79","79","encoding","encoding","105","Blanket.jpg","36","0","650"
"79","79","encoding","encoding","106","Foam_Accoustic.jpg","36","0","214"
"79","79","encoding","encoding","107","Domino.jpg","36","0","1026"
"79","79","encoding","encoding","108","TissueBox.jpg","37","0","1122"
"79","79","encoding","encoding","109","Toy_Firetruck.jpg","37","0","201"
"79","79","encoding","encoding","110","SledgeHammer.jpg","36","0","499"
"79","79","encoding","encoding","111","PlayerFootball.jpg","36","0","554"
"79","79","encoding","encoding","112","EyeChart.jpg","36","0","675"
"79","79","encoding","encoding","113","Hat_Hard.jpg","36","0","370"
"79","79","encoding","encoding","114","Pliers_ViceGrip.jpg","36","0","916"
"79","79","encoding","encoding","115","PulleyWooden.jpg","36","0","997"
"79","79","encoding","encoding","116","PylonTraffic.jpg","36","0","1106"
"79","79","encoding","encoding","117","Ball_Tennis.jpg","36","0","925"
"79","79","encoding","encoding","118","Hippopotamus.jpg","37","0","1541"
"79","79","encoding","encoding","119","MetalDetector.jpg","37","0","1768"
"79","79","encoding","encoding","120","ShoeLace_Flat.jpg","36","0","1351"
"79","79","encoding","encoding","121","Stove_Portable.jpg","36","0","1143"
"79","79","encoding","encoding","123","Dresser.jpg","36","0","710"
"79","79","encoding","encoding","124","Hourglass.jpg","36","0","816"
"79","79","encoding","encoding","125","Camel_Dromedary.jpg","37","0","1060"
"79","79","encoding","encoding","126","Stamp.jpg","36","0","898"
"79","79","encoding","encoding","127","Generator.jpg","36","0","1519"
"79","79","encoding","encoding","128","Ball_Baseball.jpg","36","0","1017"
"79","79","encoding","encoding","129","ComputerKeyboard.jpg","36","0","649"
"79","79","encoding","encoding","130","Kangaroo_WithJoey.jpg","36","0","1350"
"79","79","encoding","encoding","131","LintRemover.jpg","36","0","1288"
"79","79","encoding","encoding","132","Cake_Cheese.jpg","37","0","597"
"79","79","encoding","encoding","133","Candy_Lozenge.jpg","36","0","889"
"79","79","encoding","encoding","134","PickupTruck.jpg","37","0","861"
"79","79","encoding","encoding","135","Rake_Long.jpg","36","0","594"
"79","79","encoding","encoding","136","Candy_Toffee.jpg","36","0","576"
"79","79","encoding","encoding","137","FloorTile.jpg","37","0","748"
"79","79","encoding","encoding","138","ChocolateBar_HalfUnwrapped.jpg","36","0","1803"
"79","79","encoding","encoding","139","Candleholder_LampShaped.jpg","36","0","766"
"79","79","encoding","encoding","140","House_Rural.jpg","37","0","1094"
"79","79","encoding","encoding","141","Instrument_African.jpg","37","0","909"
"79","79","encoding","encoding","142","Toblerone.jpg","36","0","904"
"79","79","encoding","encoding","143","Bottle_Oil.jpg","36","0","571"
"79","79","encoding","encoding","144","Jacks.jpg","36","0","748"
"79","79","encoding","encoding","145","Colosseum.jpg","37","0","895"
"79","79","encoding","encoding","146","NetButterfly.jpg","36","0","795"
"79","79","encoding","encoding","147","Bowl_Chopsticks.jpg","36","0","779"
"79","79","encoding","encoding","148","Booth_Carnival.jpg","37","0","1110"
"79","79","encoding","encoding","149","CashRegister_Antique.jpg","36","0","1609"
"79","79","encoding","encoding","150","Cooler.jpg","37","0","983"
"79","79","encoding","encoding","151","Stool_Foot.jpg","36","0","695"
"79","79","encoding","encoding","152","RugRoled.jpg","36","0","624"
"79","79","encoding","encoding","153","Comb.jpg","36","0","675"
"79","79","encoding","encoding","154","Suit_Women.jpg","36","0","231"
"79","79","encoding","encoding","155","Can_Olives.jpg","36","0","1990"
"79","79","encoding","encoding","156","LifeJacket_Orangejpg.jpg","36","0","1016"
"79","79","encoding","encoding","157","Fencing_HelmetSwords.jpg","36","0","1220"
"79","79","encoding","encoding","158","Paddle_Ball.jpg","36","0","807"
"79","79","encoding","encoding","159","Hammer.jpg","36","0","167"
"79","79","encoding","encoding","160","Jacket_Suit.jpg","36","0","61"
"79","79","encoding","encoding","161","Toy_Chameleon.jpg","36","0","447"
"79","79","encoding","encoding","162","Mitt_Oven.jpg","36","0","490"
"79","79","encoding","encoding","163","Horn_French.jpg","36","0","257"
"79","79","encoding","encoding","164","Hotdog_Weiner.jpg","36","0","478"
"79","79","encoding","encoding","165","CandleSnuffer.jpg","36","0","809"
"79","79","encoding","encoding","166","PumpBreast.jpg","36","0","566"
"79","79","encoding","encoding","167","ShinPads.jpg","36","0","899"
"79","79","encoding","encoding","168","ManholeCover.jpg","0","0","2000"
"79","79","encoding","encoding","169","Gum_Pack.jpg","36","0","863"
"79","79","encoding","encoding","170","Nuts_Pecan.jpg","36","0","355"
"79","79","encoding","encoding","171","Boat_Dinghy.jpg","36","0","204"
"79","79","encoding","encoding","172","Toy_ElephantPlastic.jpg","36","0","1526"
"79","79","encoding","encoding","173","VinylRecord.jpg","36","0","954"
"79","79","encoding","encoding","174","Squash_Butternut.jpg","36","0","632"
"79","79","encoding","encoding","175","Barometer_Wood.jpg","36","0","601"
"79","79","encoding","encoding","176","Toy_BlocksWoodenPlain.jpg","36","0","139"
"79","79","encoding","encoding","177","Steeple.jpg","37","0","866"
"79","79","retrieval","old_objects","1","Cake_Cheese.jpg","36","1","475"
"79","79","retrieval","old_objects","2","Colosseum.jpg","37","0","330"
"79","79","retrieval","old_objects","3","Vase_Decorative.jpg","36","1","297"
"79","79","retrieval","new_objects","4","DiaperChangingStation.jpg","36","0","983"
"79","79","retrieval","new_objects","5","Faucet.jpg","36","0","1003"
"79","79","retrieval","new_objects","6","Squash_Pumpkin.jpg","36","0","1260"
"79","79","retrieval","new_objects","7","Earrings_Dangling.jpg","37","1","695"
"79","79","retrieval","old_objects","8","Sandwich_Ham.jpg","37","0","815"
"79","79","retrieval","old_objects","9","Jug_Wicker.jpg","36","1","754"
"79","79","retrieval","old_objects","10","Strainer_Tea.jpg","37","0","1018"
"79","79","retrieval","old_objects","11","Hammer.jpg","36","1","759"
"79","79","retrieval","new_objects","12","Hat_Party.jpg","37","1","740"
"79","79","retrieval","old_objects","13","Tractor_Yellow.jpg","37","0","815"
"79","79","retrieval","old_objects","14","MetalDetector.jpg","37","0","529"
"79","79","retrieval","old_objects","15","Clock_Grandfather.jpg","36","1","508"
"79","79","retrieval","old_objects","16","Drink_Cocktail.jpg","37","0","657"
"79","79","retrieval","new_objects","17","HairDryer.jpg","37","1","754"
"79","79","retrieval","new_objects","18","Computer_ExpansionCard.jpg","37","1","888"
"79","79","retrieval","old_objects","19","Bottle_Blue.jpg","37","0","780"
"79","79","retrieval","old_objects","20","Guacamole.jpg","36","1","604"
"79","79","retrieval","new_objects","21","Clip_Chip.jpg","36","0","534"
"79","79","retrieval","old_objects","22","Bag_Satchel.jpg","36","1","1081"
"79","79","retrieval","old_objects","23","Toblerone.jpg","37","0","599"
"79","79","retrieval","new_objects","24","Walker_Blue.jpg","36","0","793"
"79","79","retrieval","new_objects","25","TomatoSauce.jpg","37","1","604"
"79","79","retrieval","old_objects","26","Tray_Metal.jpg","37","0","704"
"79","79","retrieval","old_objects","27","Rope_Manila.jpg","36","1","624"
"79","79","retrieval","new_objects","28","Chair_PlasticGreen.jpg","36","0","839"
"79","79","retrieval","new_objects","29","DryRack_Clothes.jpg","36","0","700"
"79","79","retrieval","new_objects","30","CapGraduation.jpg","37","1","850"
"79","79","retrieval","old_objects","31","ChiliFlakes.jpg","36","1","923"
"79","79","retrieval","old_objects","32","Boots_KneeHigh.jpg","36","1","686"
"79","79","retrieval","new_objects","33","BuildingChinese.jpg","36","0","572"
"79","79","retrieval","new_objects","34","Helmet_Bicycle.jpg","37","1","1111"
"79","79","retrieval","old_objects","35","Stool_Metal.jpg","37","0","676"
"79","79","retrieval","new_objects","36","SelfieStick.jpg","37","1","457"
"79","79","retrieval","new_objects","37","Radio_Modern.jpg","36","0","384"
"79","79","retrieval","new_objects","38","SolderingWire.jpg","36","0","58"
"79","79","retrieval","new_objects","39","ChalkLineTool.jpg","36","0","219"
"79","79","retrieval","old_objects","40","Ball_Tennis.jpg","37","0","0"
"79","79","retrieval","new_objects","41","Flamingo_Cartoon.jpg","36","0","44"
"79","79","retrieval","new_objects","42","DonaldDuck_Toy.jpg","36","0","59"
"79","79","retrieval","new_objects","43","Hotdog_WithBun.jpg","36","0","86"
"79","79","retrieval","old_objects","44","Gloves_Bicycle.jpg","36","1","2"
"79","79","retrieval","new_objects","45","JoustingSpear.jpg","36","0","1076"
"79","79","retrieval","new_objects","46","Walkman.jpg","36","0","813"
"79","79","retrieval","old_objects","47","Steeple.jpg","37","0","344"
"79","79","retrieval","old_objects","48","DoorBell.jpg","36","1","610"
"79","79","retrieval","new_objects","49","Lettuce_GreenLeaf.jpg","37","1","733"
"79","79","retrieval","new_objects","50","TeethMould.jpg","37","1","514"
"79","79","retrieval","new_objects","51","PenHolder.jpg","36","0","671"
"79","79","retrieval","old_objects","52","Candy_Toffee.jpg","37","0","885"
"79","79","retrieval","old_objects","53","Gum_Pack.jpg","36","1","710"
"79","79","retrieval","old_objects","54","Boat_Dinghy.jpg","37","0","125"
"79","79","retrieval","old_objects","55","PeriodicTable.jpg","36","1","1"
"79","79","retrieval","old_objects","56","Hat_Hard.jpg","37","0","20"
"79","79","retrieval","new_objects","57","Rock_Mimetite.jpg","36","0","90"
"79","79","retrieval","new_objects","58","Mask_VenetianLongNose.jpg","36","0","6"
"79","79","retrieval","new_objects","59","Brush_Shoe.jpg","36","0","556"
"79","79","retrieval","new_objects","60","Nuts_PeanutsPeeled.jpg","36","0","673"
"79","79","retrieval","new_objects","62","Bread_Roll.jpg","37","1","774"
"79","79","retrieval","new_objects","63","HairClip.jpg","36","0","642"
"79","79","retrieval","new_objects","64","PocketKnife.jpg","36","0","580"
"79","79","retrieval","old_objects","65","Kangaroo_WithJoey.jpg","36","1","159"
"79","79","retrieval","new_objects","66","Toy_RabbitPlushie.jpg","36","0","34"
"79","79","retrieval","old_objects","67","Stool_Foot.jpg","37","0","23"
"79","79","retrieval","new_objects","68","GogglesSwim.jpg","36","0","136"
"79","79","retrieval","new_objects","69","Canister_Tea.jpg","36","0","17"
"79","79","retrieval","old_objects","70","TissueBox.jpg","36","1","51"
"79","79","retrieval","old_objects","71","Scooter.jpg","37","0","56"
"79","79","retrieval","old_objects","72","PowerDoorPushButton.jpg","37","0","62"
"79","79","retrieval","old_objects","73","PowderProtein.jpg","36","1","212"
"79","79","retrieval","old_objects","74","Booth_Carnival.jpg","37","0","76"
"79","79","retrieval","new_objects","75","WagonPilgrim.jpg","37","1","161"
"79","79","retrieval","new_objects","76","Drum_Cymbal.jpg","36","0","160"
"79","79","retrieval","new_objects","77","Razor.jpg","36","0","204"
"79","79","retrieval","new_objects","78","Decoration_ChristmasWhite.jpg","37","1","194"
"79","79","retrieval","new_objects","79","Camera_Security.jpg","36","0","260"
"79","79","retrieval","old_objects","80","Toy_Rooster.jpg","0","0","2000"
"79","79","retrieval","new_objects","81","Toolbox_BlackOpen.jpg","0","0","2000"
"79","79","retrieval","old_objects","82","Box_Jewellery.jpg","37","0","1293"
"79","79","retrieval","old_objects","83","PlayerFootball.jpg","37","0","877"
"79","79","retrieval","new_objects","84","Box_WoodenOpen.jpg","36","0","619"
"79","79","retrieval","old_objects","85","Toy_ElephantPlastic.jpg","36","1","893"
"79","79","retrieval","old_objects","86","Bowl_Chopsticks.jpg","36","1","1098"
"79","79","retrieval","old_objects","87","Rake_Long.jpg","36","1","620"
"79","79","retrieval","new_objects","88","Starfish.jpg","36","0","893"
"79","79","retrieval","old_objects","89","Dragonfly.jpg","37","0","851"
"79","79","retrieval","new_objects","90","Icepick.jpg","37","1","587"
"79","79","retrieval","old_objects","91","Glass_Beer.jpg","36","1","855"
"79","79","retrieval","old_objects","92","Flower_Tulip.jpg","37","0","832"
"79","79","retrieval","old_objects","93","Can_Olives.jpg","36","1","772"
"79","79","retrieval","new_objects","94","EyeExamDevice.jpg","37","1","818"
"79","79","retrieval","old_objects","95","BumperCar.jpg","36","1","319"
"79","79","retrieval","old_objects","96","Toy_Firetruck.jpg","37","0","325"
"79","79","retrieval","old_objects","97","Helmet_Football.jpg","36","1","322"
"79","79","retrieval","new_objects","98","Swan.jpg","36","0","225"
"79","79","retrieval","old_objects","99","Jacket_Suit.jpg","37","0","46"
"79","79","retrieval","new_objects","100","Crab.jpg","37","1","22"
"79","79","retrieval","new_objects","101","Bottle_Bleach.jpg","37","1","45"
"79","79","retrieval","new_objects","102","Boxcutter.jpg","36","0","73"
"79","79","retrieval","new_objects","103","Bowl_Chinese.jpg","37","1","333"
"79","79","retrieval","old_objects","104","Tube_Paint.jpg","37","0","18"
"79","79","retrieval","old_objects","105","Bag_PaperWithFlour.jpg","36","1","504"
"79","79","retrieval","old_objects","106","Barbecue_Charcoal.jpg","36","1","200"
"79","79","retrieval","old_objects","107","Generator.jpg","36","1","217"
"79","79","retrieval","new_objects","108","PotatoMasher_Grate.jpg","37","1","29"
"79","79","retrieval","old_objects","109","Chipmunk.jpg","37","0","101"
"79","79","retrieval","old_objects","110","Tray_Muffin.jpg","36","1","31"
"79","79","retrieval","old_objects","111","Caterpillar.jpg","36","1","1219"
"79","79","retrieval","old_objects","112","Stick_IceHockey.jpg","37","0","1630"
"79","79","retrieval","new_objects","113","Cannister_Gas.jpg","36","0","683"
"79","79","retrieval","new_objects","114","Speaker_Computer.jpg","37","1","674"
"79","79","retrieval","new_objects","115","Stool_Camping.jpg","36","0","962"
"79","79","retrieval","new_objects","116","Glove_Rubber.jpg","37","1","1436"
"79","79","retrieval","new_objects","117","Bread_Carrot.jpg","37","1","796"
"79","79","retrieval","new_objects","118","Castle_Sand.jpg","36","0","1502"
"79","79","retrieval","old_objects","119","Cane_Metal.jpg","0","0","2000"
"79","79","retrieval","new_objects","120","Bible.jpg","36","0","630"
"79","79","retrieval","new_objects","121","Glass_Cup.jpg","0","0","2000"
"79","79","retrieval","old_objects","123","House_Rural.jpg","36","1","1865"
"79","79","retrieval","old_objects","124","Stove_Portable.jpg","36","1","740"
"79","79","retrieval","old_objects","125","VinylRecord.jpg","36","1","620"
"79","79","retrieval","new_objects","126","RiceRaw.jpg","36","0","641"
"79","79","retrieval","new_objects","127","Necklace_Black.jpg","36","0","571"
"79","79","retrieval","old_objects","128","Barometer_Wood.jpg","37","0","518"
"79","79","retrieval","new_objects","129","Fuse.jpg","36","0","579"
"79","79","retrieval","old_objects","130","Quartz.jpg","37","0","765"
"79","79","retrieval","old_objects","131","Toy_RobotClassic.jpg","36","1","529"
"79","79","retrieval","old_objects","132","Dresser.jpg","36","1","495"
"79","79","retrieval","old_objects","133","NewspaperStack.jpg","36","1","608"
"79","79","retrieval","new_objects","134","Shrimp.jpg","36","0","150"
"79","79","retrieval","old_objects","135","Toy_BlocksWoodenPlain.jpg","36","1","463"
"79","79","retrieval","old_objects","136","Paddle_Ball.jpg","36","1","576"
"79","79","retrieval","old_objects","137","Toy_DonkeyPlastic.jpg","36","1","543"
"79","79","retrieval","old_objects","138","Puffin.jpg","36","1","954"
"79","79","retrieval","old_objects","139","Squash_Butternut.jpg","36","1","438"
"79","79","retrieval","old_objects","140","ManholeCover.jpg","36","1","504"
"79","79","retrieval","old_objects","141","Mitt_Oven.jpg","36","1","481"
"79","79","retrieval","new_objects","142","Tape_Washi.jpg","36","0","316"
"79","79","retrieval","old_objects","143","Crutches.jpg","36","1","711"
"79","79","retrieval","new_objects","144","Gun_Glue.jpg","36","0","467"
"79","79","retrieval","new_objects","145","Bucket_Halloween.jpg","37","1","392"
"79","79","retrieval","old_objects","146","Horn_French.jpg","36","1","399"
"79","79","retrieval","new_objects","147","RollerBlade.jpg","36","0","497"
"79","79","retrieval","old_objects","148","TelephoneSwitchboard.jpg","36","1","569"
"79","79","retrieval","old_objects","149","Hippopotamus.jpg","37","0","1278"
"79","79","retrieval","new_objects","150","Shark_Hammerhead.jpg","37","1","657"
"79","79","retrieval","new_objects","151","Bat_Cricket.jpg","36","0","563"
"79","79","retrieval","old_objects","152","Buffalo.jpg","36","1","526"
"79","79","retrieval","old_objects","153","Fridge.jpg","36","1","761"
"79","79","retrieval","old_objects","154","Sign_TrafficArrow.jpg","36","1","570"
"79","79","retrieval","old_objects","155","Olives.jpg","37","0","927"
"79","79","retrieval","new_objects","156","PaperTowel_Brown.jpg","36","0","841"
"79","79","retrieval","new_objects","157","Egg_Wooden.jpg","36","0","783"
"79","79","retrieval","old_objects","158","PylonTraffic.jpg","36","1","276"
"79","79","retrieval","old_objects","159","Hubcap.jpg","36","1","712"
"79","79","retrieval","old_objects","160","Nuts_Pecan.jpg","36","1","640"
"79","79","retrieval","new_objects","161","Knee.jpg","36","0","822"
"79","79","retrieval","new_objects","162","Ghost.jpg","36","0","701"
"79","79","retrieval","old_objects","163","Cooler.jpg","36","1","431"
"79","79","retrieval","new_objects","164","Barrel_Upright.jpg","36","0","355"
"79","79","retrieval","old_objects","165","Ferret.jpg","37","0","977"
"79","79","retrieval","new_objects","166","Pumpkin.jpg","36","0","1066"
"79","79","retrieval","old_objects","167","Scroll.jpg","36","1","438"
"79","79","retrieval","old_objects","168","Candy_Lozenge.jpg","36","1","668"
"79","79","retrieval","new_objects","169","MonaLisa.jpg","36","0","712"
"79","79","retrieval","old_objects","170","NetButterfly.jpg","36","1","661"
"79","79","retrieval","old_objects","171","Pot_Cooking.jpg","36","1","845"
"79","79","retrieval","new_objects","172","PaperShredder.jpg","36","0","191"
"79","79","retrieval","new_objects","173","Sign_Parking.jpg","36","0","115"
"79","79","retrieval","new_objects","174","Candle_Blue.jpg","36","0","552"
"79","79","retrieval","old_objects","175","Jacks.jpg","36","1","49"
"79","79","retrieval","new_objects","176","Cracker_Saltine.jpg","36","0","158"
"79","79","retrieval","new_objects","177","TireRims.jpg","36","0","0"
"79","79","retrieval","new_objects","178","Pants_Jeans.jpg","37","1","2"
"79","79","retrieval","new_objects","179","Coconut.jpg","37","1","101"
"79","79","retrieval","new_objects","180","Tweezers.jpg","37","1","119"
"79","79","retrieval","new_objects","181","Mirror_Makeup.jpg","37","1","3"
"79","79","retrieval","new_objects","182","Defribrillator.jpg","37","1","96"
"79","79","retrieval","new_objects","184","Star.jpg","36","0","745"
"79","79","retrieval","old_objects","185","Megaphone.jpg","36","1","595"
"79","79","retrieval","old_objects","186","Bottle_Oil.jpg","37","0","844"
"79","79","retrieval","old_objects","187","Bottle_Specimen.jpg","36","1","508"
"79","79","retrieval","new_objects","188","RibbonPin.jpg","36","0","602"
"79","79","retrieval","old_objects","189","Hotdog_Weiner.jpg","36","1","964"
"79","79","retrieval","old_objects","190","Egg_Chocolate.jpg","36","1","626"
"79","79","retrieval","old_objects","191","Toy_Lizard.jpg","36","1","337"
"79","79","retrieval","new_objects","192","LightBulb_Christmas.jpg","36","0","119"
"79","79","retrieval","old_objects","193","CandleSnuffer.jpg","37","0","103"
"79","79","retrieval","old_objects","194","Box_WoodenClosed.jpg","36","1","77"
"79","79","retrieval","old_objects","195","Blanket.jpg","36","1","203"
"79","79","retrieval","old_objects","196","Steamer.jpg","36","1","73"
"79","79","retrieval","new_objects","197","LumiereBeautyBeast.jpg","36","0","28"
"79","79","retrieval","new_objects","198","SewingPin_Single.jpg","36","0","195"
"79","79","retrieval","old_objects","199","Cake_Wedding.jpg","36","1","41"
"79","79","retrieval","old_objects","200","Comb.jpg","36","1","37"
"79","79","retrieval","new_objects","201","Pipe_Drain.jpg","36","0","63"
"79","79","retrieval","new_objects","202","Ruler_Digital.jpg","36","0","95"
"79","79","retrieval","new_objects","203","ElasticBand.jpg","36","0","1"
"79","79","retrieval","old_objects","204","Stovetop.jpg","36","1","182"
"79","79","retrieval","new_objects","205","Box_FirstAidOpen.jpg","36","0","238"
"79","79","retrieval","old_objects","206","EspressoMachine.jpg","36","1","202"
"79","79","retrieval","old_objects","207","Stamp.jpg","36","1","36"
"79","79","retrieval","new_objects","208","Dolly.jpg","37","1","211"
"79","79","retrieval","new_objects","209","Helmet_Soldier.jpg","36","0","8"
"79","79","retrieval","new_objects","210","Lynx.jpg","36","0","247"
"79","79","retrieval","old_objects","211","GPS.jpg","37","0","45"
"79","79","retrieval","old_objects","212","Locomotive.jpg","36","1","38"
"79","79","retrieval","new_objects","213","Chairs_Stacked.jpg","36","0","98"
"79","79","retrieval","old_objects","214","Pouch_Red.jpg","37","0","12"
"79","79","retrieval","new_objects","215","Bottle_Beer.jpg","36","0","71"
"79","79","retrieval","new_objects","216","WaterHeater.jpg","36","0","162"
"79","79","retrieval","new_objects","217","CoffeeGrinder.jpg","36","0","84"
"79","79","retrieval","old_objects","218","Candleholder_LampShaped.jpg","36","1","128"
"79","79","retrieval","old_objects","219","PickupTruck.jpg","36","1","39"
"79","79","retrieval","new_objects","220","Syringe_Needle.jpg","37","1","184"
"79","79","retrieval","old_objects","221","ChocolateBar_HalfUnwrapped.jpg","37","0","190"
"79","79","retrieval","old_objects","222","Fencing_HelmetSwords.jpg","36","1","93"
"79","79","retrieval","new_objects","223","CarJack.jpg","36","0","61"
"79","79","retrieval","new_objects","224","CarSeat.jpg","36","0","159"
"79","79","retrieval","old_objects","225","Pretzel_Knot.jpg","36","1","335"
"79","79","retrieval","old_objects","226","Sandcastle.jpg","36","1","184"
"79","79","retrieval","new_objects","227","GiftBow.jpg","37","1","193"
"79","79","retrieval","old_objects","228","StringBean.jpg","36","1","11"
"79","79","retrieval","old_objects","229","PulleyWooden.jpg","37","0","165"
"79","79","retrieval","new_objects","230","Scalpel.jpg","36","0","73"
"79","79","retrieval","new_objects","231","Eraser.jpg","36","0","718"
"79","79","retrieval","new_objects","232","SaxophoneSoprano.jpg","37","1","796"
"79","79","retrieval","old_objects","233","Pillow_Plaid.jpg","37","0","1211"
"79","79","retrieval","new_objects","234","Toy_Shapesorter.jpg","37","1","849"
"79","79","retrieval","new_objects","235","Crossbow.jpg","36","0","678"
"79","79","retrieval","new_objects","236","Pajamas.jpg","36","0","585"
"79","79","retrieval","old_objects","237","Fortress.jpg","36","1","585"
"79","79","retrieval","new_objects","238","Bird_Parrot.jpg","37","1","1073"
"79","79","retrieval","new_objects","239","Shoes_WomenBoots.jpg","37","1","658"
"79","79","retrieval","old_objects","240","Clothespin_Red.jpg","36","1","849"
"79","79","retrieval","old_objects","241","Bowl_Sugar.jpg","37","0","860"
"79","79","retrieval","new_objects","242","Ashtray_Empty.jpg","37","1","508"
"79","79","retrieval","old_objects","243","LintRemover.jpg","36","1","527"
"79","79","retrieval","new_objects","245","Flashlight.jpg","36","0","725"
"79","79","retrieval","new_objects","246","CashRegister_Modern.jpg","36","0","807"
"79","79","retrieval","old_objects","247","Toy_Chameleon.jpg","36","1","229"
"79","79","retrieval","new_objects","248","CinderBlock.jpg","36","0","115"
"79","79","retrieval","new_objects","249","Chainsaw.jpg","37","1","4"
"79","79","retrieval","new_objects","250","Tree_ChristmasMini.jpg","36","0","100"
"79","79","retrieval","new_objects","251","Grill_Gas.jpg","36","0","288"
"79","79","retrieval","new_objects","252","IceCubes copy.jpg","36","0","113"
"79","79","retrieval","old_objects","253","Stationary.jpg","36","1","190"
"79","79","retrieval","new_objects","254","GasStation.jpg","36","0","179"
"79","79","retrieval","old_objects","255","ComputerKeyboard.jpg","36","1","81"
"79","79","retrieval","old_objects","256","Tray_Medical.jpg","36","1","64"
"79","79","retrieval","new_objects","257","Knife_Butter.jpg","36","0","107"
"79","79","retrieval","old_objects","258","SledgeHammer.jpg","36","1","37"
"79","79","retrieval","old_objects","259","Domino.jpg","36","1","95"
"79","79","retrieval","old_objects","260","Bench_Black.jpg","36","1","155"
"79","79","retrieval","old_objects","261","VacuumHandheld.jpg","36","1","31"
"79","79","retrieval","new_objects","262","ComputerKeyboard_F1.jpg","36","0","12"
"79","79","retrieval","new_objects","263","DoubleBass.jpg","36","0","210"
"79","79","retrieval","new_objects","264","SolderingIron.jpg","36","0","19"
"79","79","retrieval","new_objects","265","Garlic_Clove.jpg","36","0","85"
"79","79","retrieval","old_objects","266","PumpBreast.jpg","36","1","130"
"79","79","retrieval","old_objects","267","EyeChart.jpg","36","1","235"
"79","79","retrieval","new_objects","268","Snowpea.jpg","36","0","188"
"79","79","retrieval","old_objects","269","Lens_ColourFilter.jpg","36","1","29"
"79","79","retrieval","new_objects","270","FlipFlop_PairBlue.jpg","37","1","796"
"79","79","retrieval","new_objects","271","Steam_Cleaner.jpg","37","1","720"
"79","79","retrieval","old_objects","272","ButterDish.jpg","37","0","735"
"79","79","retrieval","new_objects","273","Exercise_Stretch.jpg","36","0","779"
"79","79","retrieval","new_objects","274","Balalaika.jpg","36","0","609"
"79","79","retrieval","old_objects","275","RugRoled.jpg","36","1","1029"
"79","79","retrieval","new_objects","276","Pen_Ballpoint.jpg","36","0","476"
"79","79","retrieval","new_objects","277","Bag_Grains.jpg","36","0","623"
"79","79","retrieval","old_objects","278","ShoeLace_Flat.jpg","36","1","846"
"79","79","retrieval","new_objects","279","Jar_Capers.jpg","36","0","782"
"79","79","retrieval","new_objects","280","SnowGlobe.jpg","36","0","682"
"79","79","retrieval","new_objects","281","FortuneCookie.jpg","36","0","205"
"79","79","retrieval","old_objects","282","Ladder.jpg","36","1","104"
"79","79","retrieval","old_objects","283","Mug_Travel.jpg","36","1","185"
"79","79","retrieval","old_objects","284","Stick_Honey.jpg","37","0","165"
"79","79","retrieval","new_objects","285","Lock_Key.jpg","36","0","91"
"79","79","retrieval","old_objects","286","Pacifier.jpg","37","0","120"
"79","79","retrieval","new_objects","287","Jar_Cotton.jpg","36","0","65"
"79","79","retrieval","new_objects","288","WaterColorPaintset.jpg","36","0","106"
"79","79","retrieval","old_objects","289","Table_Poker.jpg","36","1","124"
"79","79","retrieval","new_objects","290","Tiara.jpg","36","0","148"
"79","79","retrieval","new_objects","291","Bandage_Wrap.jpg","36","0","133"
"79","79","retrieval","new_objects","292","Carabiner_Orange.jpg","36","0","118"
"79","79","retrieval","new_objects","293","Bird_Toucan.jpg","36","0","94"
"79","79","retrieval","new_objects","294","Lychee.jpg","36","0","129"
"79","79","retrieval","old_objects","295","BicycleHandleGrip.jpg","36","1","161"
"79","79","retrieval","old_objects","296","DrillBit.jpg","36","1","54"
"79","79","retrieval","old_objects","297","Mat_Door.jpg","36","1","89"
"79","79","retrieval","old_objects","298","Yarmulke.jpg","36","1","201"
"79","79","retrieval","old_objects","299","Foam_Accoustic.jpg","36","1","122"
"79","79","retrieval","new_objects","300","Statue_Jesus.jpg","37","1","102"
"79","79","retrieval","old_objects","301","Artichoke.jpg","37","0","12"
"79","79","retrieval","new_objects","302","ClothesDryingRack.jpg","36","0","1142"
"79","79","retrieval","new_objects","303","Cage_Bird.jpg","0","0","2000"
"79","79","retrieval","new_objects","304","Seal_animal.jpg","0","0","2000"
"79","79","retrieval","new_objects","306","Nutcracker.jpg","36","0","582"
"79","79","retrieval","new_objects","307","Bird_Duck.jpg","36","0","580"
"79","79","retrieval","old_objects","308","HerbsInBag.jpg","0","0","2000"
"79","79","retrieval","new_objects","309","Cranberry.jpg","0","0","2000"
"79","79","retrieval","new_objects","310","Cornucopia.jpg","36","0","798"
"79","79","retrieval","new_objects","311","Weights_Dumbells.jpg","36","0","1668"
"79","79","retrieval","old_objects","312","CashRegister_Antique.jpg","36","1","185"
"79","79","retrieval","old_objects","313","RibbonSpool.jpg","36","1","297"
"79","79","retrieval","new_objects","314","FileFolder.jpg","36","0","120"
"79","79","retrieval","old_objects","315","WateringCan_PlasticDarkGreen.jpg","36","1","217"
"79","79","retrieval","old_objects","316","FloorTile.jpg","0","0","2000"
"79","79","retrieval","old_objects","317","Machine_Bread.jpg","0","0","2000"
"79","79","retrieval","new_objects","318","Toaster_MetalSleek.jpg","0","0","2000"
"79","79","retrieval","old_objects","319","CookieCutter_Bell.jpg","36","1","719"
"79","79","retrieval","new_objects","320","Dreamcatcher.jpg","0","0","2000"
"79","79","retrieval","new_objects","321","Staircase_Straight.jpg","36","0","227"
"79","79","retrieval","new_objects","322","Knife_Kitchen.jpg","36","0","255"
"79","79","retrieval","new_objects","323","Jug_GallonWhite.jpg","36","0","107"
"79","79","retrieval","old_objects","324","Bag_String.jpg","36","1","9"
"79","79","retrieval","old_objects","325","Camel_Dromedary.jpg","36","1","75"
"79","79","retrieval","old_objects","326","ShinPads.jpg","36","1","38"
"79","79","retrieval","new_objects","327","Jack.jpg","36","0","88"
"79","79","retrieval","old_objects","328","LifeJacket_Orangejpg.jpg","36","1","49"
"79","79","retrieval","new_objects","329","Pear_Yellow.jpg","36","0","75"
"79","79","retrieval","new_objects","330","OnionRings.jpg","36","0","11"
"79","79","retrieval","new_objects","331","Toy_BeadMaze.jpg","36","0","312"
"79","79","retrieval","new_objects","332","CementFinisher.jpg","36","0","0"
"79","79","retrieval","old_objects","333","Cantaloupe.jpg","36","1","50"
"79","79","retrieval","old_objects","334","Toy_TrailerAirport.jpg","36","1","20"
"79","79","retrieval","old_objects","335","CigarCase.jpg","37","0","9"
"79","79","retrieval","old_objects","336","Hourglass.jpg","36","1","98"
"79","79","retrieval","new_objects","337","HairClipper.jpg","37","1","51"
"79","79","retrieval","old_objects","338","Instrument_African.jpg","36","1","133"
"79","79","retrieval","old_objects","339","Ball_Baseball.jpg","36","1","96"
"79","79","retrieval","old_objects","340","Mirror_Handheld.jpg","37","0","60"
"79","79","retrieval","new_objects","341","Truck_Dump.jpg","36","0","305"
"79","79","retrieval","old_objects","342","Statue_Cat.jpg","36","1","132"
"79","79","retrieval","new_objects","343","Lips_Real.jpg","36","0","29"
"79","79","retrieval","new_objects","344","DryingMachine.jpg","36","0","163"
"79","79","retrieval","old_objects","345","Suit_Women.jpg","37","0","144"
"79","79","retrieval","old_objects","346","Pliers_ViceGrip.jpg","37","0","60"
"79","79","retrieval","old_objects","347","Leaf_Green.jpg","36","1","285"
"79","79","retrieval","old_objects","348","Sink_Kitchen.jpg","36","1","17"
"79","79","retrieval","new_objects","349","Nametag.jpg","37","1","102"
"79","79","retrieval","new_objects","350","EyeDrops.jpg","37","1","120"
"79","79","retrieval","new_objects","351","Elephant.jpg","36","0","82"
"79","79","retrieval","old_objects","352","Chair_Dining.jpg","36","1","59"
"79","79","retrieval","old_objects","353","CandyDispenser.jpg","36","1","183"
"79","79","retrieval","old_objects","354","Bag_Toiletry.jpg","36","1","163"
"79","79","retrieval","old_objects","355","Bucket_WoodenLight.jpg","36","1","214"
"79","79","demographics_block","gender","1","Bucket_WoodenLight.jpg","Male","1","9666"
"79","79","demographics_block","age","1","Bucket_WoodenLight.jpg","33","1","9666"
"79","79","demographics_block","education","1","Bucket_WoodenLight.jpg","16","1","9666"
"79","79","demographics_block","left_right_handed","2","Bucket_WoodenLight.jpg","Left","1","7456"
"79","79","demographics_block","raceoption1","2","Bucket_WoodenLight.jpg","0","1","7456"
"79","79","demographics_block","raceoption2","2","Bucket_WoodenLight.jpg","","1","7456"
"79","79","demographics_block","raceoption3","2","Bucket_WoodenLight.jpg","","1","7456"
"79","79","demographics_block","raceoption4","2","Bucket_WoodenLight.jpg","","1","7456"
"79","79","demographics_block","raceoption5","2","Bucket_WoodenLight.jpg","","1","7456"
"79","79","demographics_block","raceoption6","2","Bucket_WoodenLight.jpg","","1","7456"
"79","79","demographics_block","raceoption7","2","Bucket_WoodenLight.jpg","","1","7456"
"79","79","demographics_block","raceoption8","2","Bucket_WoodenLight.jpg","","1","7456"
"79","79","demographics_block","raceoption9","2","Bucket_WoodenLight.jpg","","1","7456"
"79","79","demographics_block","raceother","2","Bucket_WoodenLight.jpg","","1","7456"
"79","79","demographics_block","raceother","2","Bucket_WoodenLight.jpg","","1","7456"
"79","79","demographics_block","english_language","2","Bucket_WoodenLight.jpg","Yes","1","7456"
"79","79","demographics_block","english_languageother","2","Bucket_WoodenLight.jpg","","1","7456"
"79","79","demographics_block","eyesight","3","Bucket_WoodenLight.jpg","Yes","1","6569"
"79","79","demographics_block","colorblind","3","Bucket_WoodenLight.jpg","No","1","6569"
"79","79","worker_id_block","worker_id_textbox","1","Bucket_WoodenLight.jpg","A271V19C06841K","1","3073"
"81","81","encoding","encoding","1","Toy_Firetruck.jpg","37","0","884"
"81","81","encoding","encoding","2","SledgeHammer.jpg","37","0","1049"
"81","81","encoding","encoding","3","Bench_Black.jpg","37","0","668"
"81","81","encoding","encoding","4","Mirror_Handheld.jpg","36","0","930"
"81","81","encoding","encoding","5","Horn_French.jpg","36","0","683"
"81","81","encoding","encoding","6","Comb.jpg","36","0","672"
"81","81","encoding","encoding","7","Hippopotamus.jpg","37","0","521"
"81","81","encoding","encoding","8","Toblerone.jpg","37","0","957"
"81","81","encoding","encoding","9","PowerDoorPushButton.jpg","36","0","1362"
"81","81","encoding","encoding","10","Colosseum.jpg","37","0","715"
"81","81","encoding","encoding","11","PylonTraffic.jpg","37","0","719"
"81","81","encoding","encoding","12","StringBean.jpg","37","0","860"
"81","81","encoding","encoding","13","Toy_Lizard.jpg","37","0","705"
"81","81","encoding","encoding","14","Generator.jpg","37","0","649"
"81","81","encoding","encoding","15","LintRemover.jpg","36","0","956"
"81","81","encoding","encoding","16","Vase_Decorative.jpg","36","0","823"
"81","81","encoding","encoding","17","Jug_Wicker.jpg","36","0","557"
"81","81","encoding","encoding","18","PickupTruck.jpg","37","0","690"
"81","81","encoding","encoding","19","Bowl_Sugar.jpg","36","0","637"
"81","81","encoding","encoding","20","HerbsInBag.jpg","36","0","1028"
"81","81","encoding","encoding","21","Quartz.jpg","36","0","1100"
"81","81","encoding","encoding","22","CashRegister_Antique.jpg","37","0","1106"
"81","81","encoding","encoding","23","Tray_Muffin.jpg","36","0","810"
"81","81","encoding","encoding","24","Box_WoodenClosed.jpg","36","0","994"
"81","81","encoding","encoding","25","ChocolateBar_HalfUnwrapped.jpg","36","0","717"
"81","81","encoding","encoding","26","Toy_DonkeyPlastic.jpg","37","0","848"
"81","81","encoding","encoding","27","Gum_Pack.jpg","36","0","1046"
"81","81","encoding","encoding","28","CandyDispenser.jpg","36","0","895"
"81","81","encoding","encoding","29","Artichoke.jpg","36","0","584"
"81","81","encoding","encoding","30","Suit_Women.jpg","36","0","780"
"81","81","encoding","encoding","31","Caterpillar.jpg","37","0","705"
"81","81","encoding","encoding","32","Paddle_Ball.jpg","36","0","757"
"81","81","encoding","encoding","33","Clothespin_Red.jpg","36","0","822"
"81","81","encoding","encoding","34","Toy_Rooster.jpg","36","0","893"
"81","81","encoding","encoding","35","Hubcap.jpg","37","0","786"
"81","81","encoding","encoding","36","Instrument_African.jpg","37","0","1142"
"81","81","encoding","encoding","37","NetButterfly.jpg","37","0","1081"
"81","81","encoding","encoding","38","ButterDish.jpg","36","0","586"
"81","81","encoding","encoding","39","Tray_Medical.jpg","36","0","827"
"81","81","encoding","encoding","40","Tube_Paint.jpg","36","0","847"
"81","81","encoding","encoding","41","Pillow_Plaid.jpg","36","0","670"
"81","81","encoding","encoding","42","Puffin.jpg","37","0","877"
"81","81","encoding","encoding","43","Olives.jpg","36","0","959"
"81","81","encoding","encoding","44","Gloves_Bicycle.jpg","36","0","1006"
"81","81","encoding","encoding","45","Megaphone.jpg","37","0","771"
"81","81","encoding","encoding","46","Pacifier.jpg","36","0","921"
"81","81","encoding","encoding","47","Mug_Travel.jpg","37","0","836"
"81","81","encoding","encoding","48","Toy_RobotClassic.jpg","36","0","933"
"81","81","encoding","encoding","49","DoorBell.jpg","36","0","805"
"81","81","encoding","encoding","50","ComputerKeyboard.jpg","36","0","724"
"81","81","encoding","encoding","51","PeriodicTable.jpg","36","0","797"
"81","81","encoding","encoding","52","Boat_Dinghy.jpg","37","0","674"
"81","81","encoding","encoding","53","Kangaroo_WithJoey.jpg","37","0","1608"
"81","81","encoding","encoding","54","TelephoneSwitchboard.jpg","37","0","1507"
"81","81","encoding","encoding","55","MetalDetector.jpg","37","0","1010"
"81","81","encoding","encoding","56","Box_Jewellery.jpg","36","0","562"
"81","81","encoding","encoding","57","Fridge.jpg","36","0","845"
"81","81","encoding","encoding","58","Helmet_Football.jpg","37","0","696"
"81","81","encoding","encoding","59","Statue_Cat.jpg","36","0","744"
"81","81","encoding","encoding","60","FloorTile.jpg","36","0","557"
"81","81","encoding","encoding","62","RibbonSpool.jpg","36","0","878"
"81","81","encoding","encoding","63","ShoeLace_Flat.jpg","36","0","899"
"81","81","encoding","encoding","64","Table_Poker.jpg","36","0","716"
"81","81","encoding","encoding","65","CandleSnuffer.jpg","36","0","1021"
"81","81","encoding","encoding","66","Guacamole.jpg","36","0","855"
"81","81","encoding","encoding","67","RugRoled.jpg","36","0","1076"
"81","81","encoding","encoding","68","Toy_Chameleon.jpg","36","0","882"
"81","81","encoding","encoding","69","Stationary.jpg","36","0","843"
"81","81","encoding","encoding","70","Pot_Cooking.jpg","36","0","606"
"81","81","encoding","encoding","71","Strainer_Tea.jpg","36","0","964"
"81","81","encoding","encoding","72","Bag_String.jpg","36","0","991"
"81","81","encoding","encoding","73","Yarmulke.jpg","36","0","706"
"81","81","encoding","encoding","74","BumperCar.jpg","37","0","803"
"81","81","encoding","encoding","75","Toy_BlocksWoodenPlain.jpg","36","0","734"
"81","81","encoding","encoding","76","VinylRecord.jpg","36","0","1422"
"81","81","encoding","encoding","77","Barometer_Wood.jpg","36","0","1137"
"81","81","encoding","encoding","78","Cake_Cheese.jpg","36","0","1039"
"81","81","encoding","encoding","79","Jacks.jpg","36","0","794"
"81","81","encoding","encoding","80","Fortress.jpg","37","0","603"
"81","81","encoding","encoding","81","Rope_Manila.jpg","36","0","911"
"81","81","encoding","encoding","82","Crutches.jpg","36","0","1026"
"81","81","encoding","encoding","83","Nuts_Pecan.jpg","36","0","965"
"81","81","encoding","encoding","84","Pouch_Red.jpg","36","0","738"
"81","81","encoding","encoding","85","PowderProtein.jpg","36","0","828"
"81","81","encoding","encoding","86","TissueBox.jpg","36","0","977"
"81","81","encoding","encoding","87","WateringCan_PlasticDarkGreen.jpg","37","0","845"
"81","81","encoding","encoding","88","Cantaloupe.jpg","37","0","1234"
"81","81","encoding","encoding","89","Mat_Door.jpg","36","0","1043"
"81","81","encoding","encoding","90","Steamer.jpg","36","0","720"
"81","81","encoding","encoding","91","Cake_Wedding.jpg","36","0","1142"
"81","81","encoding","encoding","92","Steeple.jpg","37","0","655"
"81","81","encoding","encoding","93","Hotdog_Weiner.jpg","36","0","774"
"81","81","encoding","encoding","94","Bottle_Blue.jpg","37","0","1392"
"81","81","encoding","encoding","95","ChiliFlakes.jpg","37","0","1135"
"81","81","encoding","encoding","96","Chair_Dining.jpg","36","0","664"
"81","81","encoding","encoding","97","Hammer.jpg","37","0","874"
"81","81","encoding","encoding","98","Jacket_Suit.jpg","36","0","769"
"81","81","encoding","encoding","99","BicycleHandleGrip.jpg","36","0","1596"
"81","81","encoding","encoding","100","NewspaperStack.jpg","36","0","980"
"81","81","encoding","encoding","101","Bottle_Oil.jpg","36","0","955"
"81","81","encoding","encoding","102","Stool_Foot.jpg","36","0","890"
"81","81","encoding","encoding","103","Hat_Hard.jpg","37","0","1192"
"81","81","encoding","encoding","104","Bottle_Specimen.jpg","36","0","1585"
"81","81","encoding","encoding","105","Stool_Metal.jpg","36","0","1738"
"81","81","encoding","encoding","106","House_Rural.jpg","37","0","869"
"81","81","encoding","encoding","107","Candy_Toffee.jpg","36","0","1045"
"81","81","encoding","encoding","108","Bag_PaperWithFlour.jpg","36","0","1196"
"81","81","encoding","encoding","109","Domino.jpg","36","0","995"
"81","81","encoding","encoding","110","Candleholder_LampShaped.jpg","36","0","1651"
"81","81","encoding","encoding","111","Flower_Tulip.jpg","36","0","1196"
"81","81","encoding","encoding","112","Sink_Kitchen.jpg","37","0","1609"
"81","81","encoding","encoding","113","Mitt_Oven.jpg","36","0","1365"
"81","81","encoding","encoding","114","Camel_Dromedary.jpg","37","0","774"
"81","81","encoding","encoding","115","Machine_Bread.jpg","36","0","1121"
"81","81","encoding","encoding","116","PulleyWooden.jpg","37","0","1484"
"81","81","encoding","encoding","117","Stick_IceHockey.jpg","37","0","1054"
"81","81","encoding","encoding","118","GPS.jpg","36","0","1129"
"81","81","encoding","encoding","119","Glass_Beer.jpg","36","0","1256"
"81","81","encoding","encoding","120","Clock_Grandfather.jpg","36","0","925"
"81","81","encoding","encoding","121","Sandcastle.jpg","37","0","731"
"81","81","encoding","encoding","123","Barbecue_Charcoal.jpg","37","0","865"
"81","81","encoding","encoding","124","Stovetop.jpg","36","0","845"
"81","81","encoding","encoding","125","Stick_Honey.jpg","36","0","920"
"81","81","encoding","encoding","126","Candy_Lozenge.jpg","36","0","644"
"81","81","encoding","encoding","127","Sign_TrafficArrow.jpg","37","0","611"
"81","81","encoding","encoding","128","Lens_ColourFilter.jpg","37","0","1608"
"81","81","encoding","encoding","129","Pliers_ViceGrip.jpg","36","0","1141"
"81","81","encoding","encoding","130","Drink_Cocktail.jpg","36","0","1615"
"81","81","encoding","encoding","131","Bag_Toiletry.jpg","36","0","1200"
"81","81","encoding","encoding","132","Stove_Portable.jpg","37","0","1121"
"81","81","encoding","encoding","133","EspressoMachine.jpg","36","0","981"
"81","81","encoding","encoding","134","VacuumHandheld.jpg","36","0","1146"
"81","81","encoding","encoding","135","Bag_Satchel.jpg","37","0","1051"
"81","81","encoding","encoding","136","Pretzel_Knot.jpg","37","0","1163"
"81","81","encoding","encoding","137","Ferret.jpg","36","0","940"
"81","81","encoding","encoding","138","Rake_Long.jpg","37","0","793"
"81","81","encoding","encoding","139","Egg_Chocolate.jpg","36","0","913"
"81","81","encoding","encoding","140","Bucket_WoodenLight.jpg","37","0","854"
"81","81","encoding","encoding","141","Toy_ElephantPlastic.jpg","36","0","1199"
"81","81","encoding","encoding","142","Squash_Butternut.jpg","37","0","789"
"81","81","encoding","encoding","143","EyeChart.jpg","36","0","890"
"81","81","encoding","encoding","144","Hourglass.jpg","36","0","1045"
"81","81","encoding","encoding","145","Ball_Baseball.jpg","37","0","508"
"81","81","encoding","encoding","146","Stamp.jpg","36","0","984"
"81","81","encoding","encoding","147","Scooter.jpg","37","0","1163"
"81","81","encoding","encoding","148","Locomotive.jpg","37","0","1709"
"81","81","encoding","encoding","149","Sandwich_Ham.jpg","0","0","2000"
"81","81","encoding","encoding","150","Fencing_HelmetSwords.jpg","36","0","1479"
"81","81","encoding","encoding","151","Tray_Metal.jpg","36","0","1524"
"81","81","encoding","encoding","152","CookieCutter_Bell.jpg","37","0","1125"
"81","81","encoding","encoding","153","LifeJacket_Orangejpg.jpg","37","0","794"
"81","81","encoding","encoding","154","Boots_KneeHigh.jpg","37","0","1288"
"81","81","encoding","encoding","155","Dragonfly.jpg","37","0","1117"
"81","81","encoding","encoding","156","Can_Olives.jpg","37","0","1832"
"81","81","encoding","encoding","157","Buffalo.jpg","37","0","662"
"81","81","encoding","encoding","158","Dresser.jpg","36","0","1145"
"81","81","encoding","encoding","159","Booth_Carnival.jpg","37","0","948"
"81","81","encoding","encoding","160","Cooler.jpg","37","0","964"
"81","81","encoding","encoding","161","ShinPads.jpg","37","0","1651"
"81","81","encoding","encoding","162","ManholeCover.jpg","37","0","782"
"81","81","encoding","encoding","163","Tractor_Yellow.jpg","37","0","575"
"81","81","encoding","encoding","164","Bowl_Chopsticks.jpg","36","0","1057"
"81","81","encoding","encoding","165","CigarCase.jpg","37","0","1088"
"81","81","encoding","encoding","166","Toy_TrailerAirport.jpg","37","0","652"
"81","81","encoding","encoding","167","PlayerFootball.jpg","37","0","861"
"81","81","encoding","encoding","168","PumpBreast.jpg","37","0","988"
"81","81","encoding","encoding","169","Ladder.jpg","37","0","693"
"81","81","encoding","encoding","170","Foam_Accoustic.jpg","36","0","1281"
"81","81","encoding","encoding","171","Chipmunk.jpg","37","0","786"
"81","81","encoding","encoding","172","Leaf_Green.jpg","37","0","651"
"81","81","encoding","encoding","173","DrillBit.jpg","36","0","1081"
"81","81","encoding","encoding","174","Cane_Metal.jpg","37","0","1198"
"81","81","encoding","encoding","175","Scroll.jpg","36","0","1123"
"81","81","encoding","encoding","176","Blanket.jpg","36","0","1193"
"81","81","encoding","encoding","177","Ball_Tennis.jpg","37","0","600"
"81","81","retrieval","old_objects","1","Cake_Cheese.jpg","36","1","1001"
"81","81","retrieval","new_objects","2","Starfish.jpg","37","1","698"
"81","81","retrieval","old_objects","3","Toy_DonkeyPlastic.jpg","36","1","723"
"81","81","retrieval","old_objects","4","Ferret.jpg","36","1","822"
"81","81","retrieval","new_objects","5","HairClip.jpg","36","0","888"
"81","81","retrieval","old_objects","6","MetalDetector.jpg","36","1","598"
"81","81","retrieval","old_objects","7","CashRegister_Antique.jpg","36","1","618"
"81","81","retrieval","old_objects","8","Dragonfly.jpg","36","1","626"
"81","81","retrieval","old_objects","9","Ladder.jpg","36","1","604"
"81","81","retrieval","old_objects","10","Bag_Satchel.jpg","36","1","574"
"81","81","retrieval","old_objects","11","Lens_ColourFilter.jpg","36","1","543"
"81","81","retrieval","old_objects","12","Cantaloupe.jpg","36","1","590"
"81","81","retrieval","old_objects","13","EspressoMachine.jpg","36","1","604"
"81","81","retrieval","old_objects","14","Pot_Cooking.jpg","36","1","570"
"81","81","retrieval","old_objects","15","Helmet_Football.jpg","36","1","784"
"81","81","retrieval","new_objects","16","ElasticBand.jpg","37","1","650"
"81","81","retrieval","new_objects","17","Flamingo_Cartoon.jpg","37","1","636"
"81","81","retrieval","new_objects","18","Defribrillator.jpg","37","1","747"
"81","81","retrieval","old_objects","19","Stove_Portable.jpg","36","1","588"
"81","81","retrieval","new_objects","20","Camera_Security.jpg","37","1","721"
"81","81","retrieval","old_objects","21","Foam_Accoustic.jpg","36","1","729"
"81","81","retrieval","new_objects","22","BuildingChinese.jpg","37","1","669"
"81","81","retrieval","old_objects","23","Camel_Dromedary.jpg","36","1","665"
"81","81","retrieval","new_objects","24","Canister_Tea.jpg","37","1","569"
"81","81","retrieval","new_objects","25","Ghost.jpg","37","1","543"
"81","81","retrieval","new_objects","26","Jar_Cotton.jpg","37","1","570"
"81","81","retrieval","new_objects","27","ComputerKeyboard_F1.jpg","37","1","654"
"81","81","retrieval","new_objects","28","DryingMachine.jpg","37","1","784"
"81","81","retrieval","new_objects","29","Swan.jpg","36","0","1332"
"81","81","retrieval","old_objects","30","Pretzel_Knot.jpg","36","1","513"
"81","81","retrieval","old_objects","31","Hotdog_Weiner.jpg","36","1","727"
"81","81","retrieval","new_objects","32","SelfieStick.jpg","37","1","1021"
"81","81","retrieval","old_objects","33","ButterDish.jpg","36","1","655"
"81","81","retrieval","old_objects","34","Flower_Tulip.jpg","37","0","1778"
"81","81","retrieval","new_objects","35","SolderingIron.jpg","37","1","777"
"81","81","retrieval","old_objects","36","Pillow_Plaid.jpg","36","1","553"
"81","81","retrieval","old_objects","37","Bottle_Oil.jpg","36","1","1010"
"81","81","retrieval","new_objects","38","Shoes_WomenBoots.jpg","37","1","658"
"81","81","retrieval","new_objects","39","Pants_Jeans.jpg","37","1","649"
"81","81","retrieval","old_objects","40","GPS.jpg","36","1","660"
"81","81","retrieval","new_objects","41","Toy_Shapesorter.jpg","37","1","565"
"81","81","retrieval","old_objects","42","Toy_ElephantPlastic.jpg","36","1","590"
"81","81","retrieval","new_objects","43","TeethMould.jpg","37","1","1028"
"81","81","retrieval","new_objects","44","RollerBlade.jpg","37","1","662"
"81","81","retrieval","new_objects","45","Candle_Blue.jpg","37","1","797"
"81","81","retrieval","old_objects","46","Tray_Muffin.jpg","36","1","758"
"81","81","retrieval","new_objects","47","Scalpel.jpg","37","1","608"
"81","81","retrieval","old_objects","48","BicycleHandleGrip.jpg","36","1","587"
"81","81","retrieval","new_objects","49","Crab.jpg","37","1","602"
"81","81","retrieval","new_objects","50","Box_FirstAidOpen.jpg","37","1","571"
"81","81","retrieval","old_objects","51","Paddle_Ball.jpg","36","1","577"
"81","81","retrieval","old_objects","52","Megaphone.jpg","36","1","669"
"81","81","retrieval","new_objects","53","DoubleBass.jpg","37","1","561"
"81","81","retrieval","new_objects","54","IceCubes copy.jpg","37","1","858"
"81","81","retrieval","old_objects","55","Steamer.jpg","36","1","606"
"81","81","retrieval","old_objects","56","Instrument_African.jpg","36","1","598"
"81","81","retrieval","new_objects","57","Fuse.jpg","37","1","751"
"81","81","retrieval","new_objects","58","Gun_Glue.jpg","37","1","650"
"81","81","retrieval","new_objects","59","LightBulb_Christmas.jpg","37","1","666"
"81","81","retrieval","new_objects","60","RibbonPin.jpg","37","1","694"
"81","81","retrieval","old_objects","62","Leaf_Green.jpg","36","1","784"
"81","81","retrieval","old_objects","63","Hat_Hard.jpg","36","1","531"
"81","81","retrieval","new_objects","64","Pumpkin.jpg","37","1","560"
"81","81","retrieval","new_objects","65","Snowpea.jpg","37","1","1085"
