"group","subject","blockcode","trialcode","trialnum","values.stimulus","response","correct","latency"
"3","3","encoding","encoding","1","BuildingChinese.jpg","4","0","2239"
"3","3","encoding","encoding","2","MouthGuard.jpg","2","0","2206"
"3","3","encoding","encoding","3","Drill.jpg","1","0","2079"
"3","3","encoding","encoding","4","Bag_Doctor.jpg","1","0","1328"
"3","3","encoding","encoding","5","AirTank.jpg","1","0","1367"
"3","3","encoding","encoding","6","Kazoo.jpg","2","0","1714"
"3","3","encoding","encoding","7","ButterDish.jpg","1","0","1720"
"3","3","encoding","encoding","8","MobilityScooter.jpg","3","0","1453"
"3","3","encoding","encoding","9","Statue_Horse.jpg","3","0","2360"
"3","3","encoding","encoding","10","House_Doll.jpg","2","0","2264"
"3","3","encoding","encoding","11","Lock_Bike.jpg","1","0","1796"
"3","3","encoding","encoding","12","Stone_Mill.jpg","4","0","2262"
"3","3","encoding","encoding","13","Ashtray_Empty.jpg","1","0","1514"
"3","3","encoding","encoding","14","KitchenCloth.jpg","1","0","2179"
"3","3","encoding","encoding","15","Toy_Octopus.jpg","3","0","1885"
"3","3","encoding","encoding","16","Table_PingPong.jpg","2","0","1719"
"3","3","encoding","encoding","17","HairClipper.jpg","1","0","1546"
"3","3","encoding","encoding","18","Boot_Rain.jpg","1","0","1507"
"3","3","encoding","encoding","19","WashRack.jpg","1","0","1245"
"3","3","encoding","encoding","20","Compressor.jpg","1","0","1202"
"3","3","encoding","encoding","21","Bottle_Specimen.jpg","1","0","1154"
"3","3","encoding","encoding","22","Bicycle_Adult.jpg","4","0","1720"
"3","3","encoding","encoding","23","IceCream_Popsicle.jpg","5","0","2109"
"3","3","encoding","encoding","24","Sieve_TopView.jpg","1","0","1079"
"3","3","encoding","encoding","25","Bolt_WithNut.jpg","1","0","989"
"3","3","encoding","encoding","26","PaperTowel_Brown.jpg","1","0","1169"
"3","3","encoding","encoding","27","Swing_Porch.jpg","3","0","2055"
"3","3","encoding","encoding","28","Table_AntiqueWooden.jpg","3","0","1845"
"3","3","encoding","encoding","29","Makeup_Foundation.jpg","1","0","1398"
"3","3","encoding","encoding","30","Tree_Fir.jpg","2","0","1674"
"3","3","encoding","encoding","31","DonaldDuck_Toy.jpg","3","0","1693"
"3","3","encoding","encoding","32","Sphinx.jpg","4","0","1766"
"3","3","encoding","encoding","33","PropellerFan.jpg","2","0","1828"
"3","3","encoding","encoding","34","Stamper.jpg","1","0","1700"
"3","3","encoding","encoding","35","Scrabble.jpg","2","0","1919"
"3","3","encoding","encoding","36","sign_traffic.jpg","1","0","1765"
"3","3","encoding","encoding","37","Drum_Brazilan.jpg","3","0","1749"
"3","3","encoding","encoding","38","Brooch_Fish.jpg","2","0","1651"
"3","3","encoding","encoding","39","Bench_Park.jpg","1","0","1941"
"3","3","encoding","encoding","40","Pitcher.jpg","1","0","1674"
"3","3","encoding","encoding","41","Boat_Row.jpg","1","0","1939"
"3","3","encoding","encoding","42","Tribunal_Wooden.jpg","2","0","1899"
"3","3","encoding","encoding","43","VacuumHose.jpg","1","0","1649"
"3","3","encoding","encoding","44","Elephant.jpg","4","0","1709"
"3","3","encoding","encoding","45","Suit_Women.jpg","2","0","1815"
"3","3","encoding","encoding","46","KiddiePool.jpg","2","0","2304"
"3","3","encoding","encoding","47","Foam_Accoustic.jpg","1","0","1431"
"3","3","encoding","encoding","48","Wire_ElectricalSingle.jpg","1","0","1855"
"3","3","encoding","encoding","49","FireAlarm.jpg","2","0","1859"
"3","3","encoding","encoding","50","Cassette_Audio.jpg","1","0","1662"
"3","3","encoding","encoding","51","HairClip.jpg","1","0","1063"
"3","3","encoding","encoding","52","Ruler_Digital.jpg","3","0","1920"
"3","3","encoding","encoding","53","CuttingBoard.jpg","1","0","1479"
"3","3","encoding","encoding","54","Tombstone.jpg","0","0","3000"
"3","3","encoding","encoding","55","Deodorant.jpg","1","0","2181"
"3","3","encoding","encoding","56","Bird_Cardinal.jpg","4","0","1738"
"3","3","encoding","encoding","57","VialLab.jpg","1","0","1192"
"3","3","encoding","encoding","58","Currants.jpg","3","0","1690"
"3","3","encoding","encoding","59","Shoe_Men.jpg","1","0","1926"
"3","3","encoding","encoding","60","Honeydew_yellow.jpg","1","0","983"
"3","3","encoding","encoding","62","Toolbox_BlackOpen.jpg","3","0","1950"
"3","3","encoding","encoding","63","Bib.jpg","1","0","1617"
"3","3","encoding","encoding","64","Pants.jpg","1","0","1432"
"3","3","encoding","encoding","65","Tube.jpg","1","0","1369"
"3","3","encoding","encoding","66","Steam_Cleaner.jpg","2","0","1710"
"3","3","encoding","encoding","67","Bat_Cricket.jpg","2","0","1745"
"3","3","encoding","encoding","68","Lock_Key.jpg","1","0","1567"
"3","3","encoding","encoding","69","CinderBlock.jpg","1","0","1312"
"3","3","encoding","encoding","70","Desk_School.jpg","3","0","1728"
"3","3","encoding","encoding","71","Crate_Milk.jpg","1","0","1029"
"3","3","encoding","encoding","72","SaltShaker.jpg","1","0","1106"
"3","3","encoding","encoding","73","Flamingo_Cartoon.jpg","2","0","1862"
"3","3","encoding","encoding","74","Candy_Cotton.jpg","1","0","1409"
"3","3","encoding","encoding","75","Spoon_Serving.jpg","1","0","1164"
"3","3","encoding","encoding","76","Bowl_Chopsticks.jpg","2","0","1377"
"3","3","encoding","encoding","77","SandBagThrowGame.jpg","1","0","1178"
"3","3","encoding","encoding","78","TinChristmas.jpg","2","0","1516"
"3","3","encoding","encoding","79","Cup_Styrofoam.jpg","1","0","1150"
"3","3","encoding","encoding","80","Toy_Chicken.jpg","2","0","1497"
"3","3","encoding","encoding","81","SlushieMachine.jpg","2","0","1874"
"3","3","encoding","encoding","82","Camera_Video.jpg","1","0","1154"
"3","3","encoding","encoding","83","Light_Traffic.jpg","1","0","1086"
"3","3","encoding","encoding","84","Cloud.jpg","3","0","1837"
"3","3","encoding","encoding","85","Hat_Feather.jpg","2","0","1412"
"3","3","encoding","encoding","86","Mango.jpg","1","0","1215"
"3","3","encoding","encoding","87","ChariotGold.jpg","2","0","1926"
"3","3","encoding","encoding","88","Honeydew_Green.jpg","1","0","1262"
"3","3","encoding","encoding","89","Toy_Tank.jpg","1","0","1287"
"3","3","encoding","encoding","90","Lips_Real.jpg","3","0","2395"
"3","3","encoding","encoding","91","Toy_Top.jpg","2","0","1445"
"3","3","encoding","encoding","92","Table_Conference.jpg","1","0","1398"
"3","3","encoding","encoding","93","Soap.jpg","1","0","1784"
"3","3","encoding","encoding","94","Spotlight.jpg","1","0","1765"
"3","3","encoding","encoding","95","Hose_Garden.jpg","1","0","1288"
"3","3","encoding","encoding","96","Brush_Cleaning.jpg","1","0","1360"
"3","3","encoding","encoding","97","Flower_Crane.jpg","1","0","2018"
"3","3","encoding","encoding","98","DryRack_Dishes.jpg","1","0","1260"
"3","3","encoding","encoding","99","StockingChristmas.jpg","2","0","1804"
"3","3","encoding","encoding","100","Fortress.jpg","3","0","1919"
"3","3","encoding","encoding","101","PhoneCase.jpg","1","0","1582"
"3","3","encoding","encoding","102","Honeycomb.jpg","1","0","1742"
"3","3","encoding","encoding","103","Toy_WinnieThePooh.jpg","3","0","1928"
"3","3","encoding","encoding","104","Toy_ModelMolecule.jpg","1","0","1507"
"3","3","encoding","encoding","105","SlideViewer.jpg","2","0","1928"
"3","3","encoding","encoding","106","Ashtray_Cigarettes.jpg","3","0","2175"
"3","3","encoding","encoding","107","Toy_TableSet.jpg","2","0","1482"
"3","3","encoding","encoding","108","Pipe_Drain.jpg","1","0","1134"
"3","3","encoding","encoding","109","Instrument_African.jpg","1","0","1680"
"3","3","encoding","encoding","110","ButterChurn.jpg","2","0","2147"
"3","3","encoding","encoding","111","Saw.jpg","1","0","1193"
"3","3","encoding","encoding","112","Dreamcatcher.jpg","2","0","1527"
"3","3","encoding","encoding","113","Cat.jpg","4","0","1951"
"3","3","encoding","encoding","114","Golf_Bag.jpg","1","0","1591"
"3","3","encoding","encoding","115","RollingPin.jpg","1","0","1145"
"3","3","encoding","encoding","116","Organ.jpg","3","0","1615"
"3","3","encoding","encoding","117","Ball_Football.jpg","1","0","1900"
"3","3","encoding","encoding","118","Bottle_BubbleBlower.jpg","1","0","904"
"3","3","encoding","encoding","119","Boardgame_Checkers.jpg","1","0","1282"
"3","3","encoding","encoding","120","Coral.jpg","3","0","1680"
"3","3","encoding","encoding","121","Toolbox_Red.jpg","1","0","1290"
"3","3","encoding","encoding","123","PanCooking.jpg","1","0","1963"
"3","3","encoding","encoding","124","Fruit_Carambola.jpg","2","0","1833"
"3","3","encoding","encoding","125","Shrub_Boxwood.jpg","2","0","1650"
"3","3","encoding","encoding","126","Paddle_PingPong.jpg","1","0","1275"
"3","3","encoding","encoding","127","Tractor_Yellow.jpg","2","0","1496"
"3","3","encoding","encoding","128","Notebook.jpg","1","0","1232"
"3","3","encoding","encoding","129","Microscope.jpg","2","0","1839"
"3","3","encoding","encoding","130","Ball_8.jpg","1","0","1368"
"3","3","encoding","encoding","131","Sign_Caution.jpg","1","0","1420"
"3","3","encoding","encoding","132","MetalDetector.jpg","1","0","2069"
"3","3","encoding","encoding","133","Egg_Wooden.jpg","1","0","1355"
"3","3","encoding","encoding","134","Baster.jpg","1","0","1135"
"3","3","encoding","encoding","135","Protractor.jpg","1","0","940"
"3","3","encoding","encoding","136","Ramekin.jpg","1","0","721"
"3","3","encoding","encoding","137","Flags_CheckeredRacing.jpg","1","0","883"
"3","3","encoding","encoding","138","MeatGrinder.jpg","1","0","1033"
"3","3","encoding","encoding","139","Apple_RedAndGreen.jpg","1","0","961"
"3","3","encoding","encoding","140","Lighter_Yellow.jpg","1","0","897"
"3","3","encoding","encoding","141","Cork.jpg","1","0","1040"
"3","3","encoding","encoding","142","Toy_RabbitPlushie.jpg","3","0","1537"
"3","3","encoding","encoding","143","Light_Halogen.jpg","1","0","972"
"3","3","encoding","encoding","144","Stone_Spa.jpg","1","0","1126"
"3","3","encoding","encoding","145","Fryingpan.jpg","1","0","783"
"3","3","encoding","encoding","146","ShotGlassTray.jpg","2","0","1891"
"3","3","encoding","encoding","147","Basket_Bread.jpg","2","0","1681"
"3","3","encoding","encoding","148","MeatRaw.jpg","3","0","1564"
"3","3","encoding","encoding","149","Notepad_WithPen.jpg","1","0","781"
"3","3","encoding","encoding","150","MousepadAndMouse.jpg","1","0","1023"
"3","3","encoding","encoding","151","Archery_Arrows.jpg","2","0","1961"
"3","3","encoding","encoding","152","Table_Set.jpg","2","0","1695"
"3","3","encoding","encoding","153","Playground.jpg","1","0","1322"
"3","3","encoding","encoding","154","Cup_sippy.jpg","1","0","879"
"3","3","encoding","encoding","155","StampAndSeal.jpg","1","0","1226"
"3","3","encoding","encoding","156","BearPolar.jpg","3","0","2062"
"3","3","encoding","encoding","157","Film_Single.jpg","1","0","1381"
"3","3","encoding","encoding","158","TailLight.jpg","1","0","1143"
"3","3","encoding","encoding","159","Glass_Cup.jpg","1","0","1035"
"3","3","encoding","encoding","160","Cranberry.jpg","1","0","1851"
"3","3","encoding","encoding","161","Glass_Ball.jpg","1","0","1110"
"3","3","encoding","encoding","162","Paratrooper.jpg","3","0","1570"
"3","3","encoding","encoding","163","Boardgame_Chess.jpg","1","0","980"
"3","3","encoding","encoding","164","Horn_French.jpg","2","0","1531"
"3","3","encoding","encoding","165","CigarCutter.jpg","1","0","1136"
"3","3","encoding","encoding","166","Barbecue_Gas.jpg","1","0","1095"
"3","3","encoding","encoding","167","Thermometer_Room.jpg","1","0","851"
"3","3","encoding","encoding","168","Bucket_Halloween.jpg","1","0","1208"
"3","3","encoding","encoding","169","CoolingFan_Engine.jpg","1","0","967"
"3","3","encoding","encoding","170","LaundryHamper.jpg","1","0","1006"
"3","3","encoding","encoding","171","Syringe_Needle.jpg","4","0","1741"
"3","3","encoding","encoding","172","PulleyWooden.jpg","1","0","1792"
"3","3","encoding","encoding","173","Backpack_Travel.jpg","1","0","1629"
"3","3","encoding","encoding","174","Paddle_Canoe.jpg","3","0","2376"
"3","3","encoding","encoding","175","Jug_GallonRed.jpg","1","0","1614"
"3","3","encoding","encoding","176","SewingPin_Cushion.jpg","2","0","1747"
"3","3","encoding","encoding","177","Hook_Fish.jpg","2","0","1460"
"3","3","retrieval","old_objects","1","LaundryHamper.jpg","36","1","799"
"3","3","retrieval","old_objects","2","Sign_Caution.jpg","36","1","621"
"3","3","retrieval","new_objects","3","Switch_LightBlack.jpg","37","1","651"
"3","3","retrieval","new_objects","4","Castle_Model.jpg","37","1","776"
"3","3","retrieval","new_objects","5","PuppetTheatre_BlueRed.jpg","37","1","753"
"3","3","retrieval","new_objects","6","KitchenTools.jpg","37","1","697"
"3","3","retrieval","old_objects","7","Instrument_African.jpg","36","1","993"
"3","3","retrieval","old_objects","8","PulleyWooden.jpg","36","1","648"
"3","3","retrieval","old_objects","9","HairClip.jpg","36","1","676"
"3","3","retrieval","old_objects","10","Protractor.jpg","36","1","704"
"3","3","retrieval","old_objects","11","Bicycle_Adult.jpg","36","1","703"
"3","3","retrieval","old_objects","12","Table_PingPong.jpg","36","1","691"
"3","3","retrieval","new_objects","13","HorseshoeCrab.jpg","37","1","724"
"3","3","retrieval","old_objects","14","Boot_Rain.jpg","36","1","753"
"3","3","retrieval","old_objects","15","Bib.jpg","36","1","747"
"3","3","retrieval","old_objects","16","Kazoo.jpg","36","1","728"
"3","3","retrieval","new_objects","17","House_Rural.jpg","37","1","974"
"3","3","retrieval","old_objects","18","MeatRaw.jpg","36","1","908"
"3","3","retrieval","new_objects","19","Bag_Gym.jpg","36","0","829"
"3","3","retrieval","old_objects","20","FireAlarm.jpg","36","1","673"
"3","3","retrieval","old_objects","21","Toy_WinnieThePooh.jpg","36","1","721"
"3","3","retrieval","old_objects","22","Cup_sippy.jpg","36","1","609"
"3","3","retrieval","old_objects","23","DryRack_Dishes.jpg","36","1","677"
"3","3","retrieval","old_objects","24","Bottle_BubbleBlower.jpg","36","1","779"
"3","3","retrieval","old_objects","25","Drum_Brazilan.jpg","36","1","643"
"3","3","retrieval","old_objects","26","Currants.jpg","36","1","578"
"3","3","retrieval","old_objects","27","Cat.jpg","36","1","652"
"3","3","retrieval","old_objects","28","Candy_Cotton.jpg","36","1","669"
"3","3","retrieval","new_objects","29","Carabiner_Orange.jpg","37","1","660"
"3","3","retrieval","old_objects","30","PanCooking.jpg","36","1","627"
"3","3","retrieval","old_objects","31","CinderBlock.jpg","36","1","629"
"3","3","retrieval","new_objects","32","WatermelonSlice.jpg","37","1","833"
"3","3","retrieval","new_objects","33","NintendoWii.jpg","37","1","811"
"3","3","retrieval","new_objects","34","Shorts_Plaid.jpg","37","1","703"
"3","3","retrieval","old_objects","35","Light_Halogen.jpg","36","1","656"
"3","3","retrieval","new_objects","36","BicycleChain.jpg","37","1","818"
"3","3","retrieval","old_objects","37","Toy_Octopus.jpg","36","1","643"
"3","3","retrieval","old_objects","38","Shoe_Men.jpg","36","1","819"
"3","3","retrieval","new_objects","39","Abacus.jpg","37","1","816"
"3","3","retrieval","new_objects","40","PaintSprayer.jpg","37","1","857"
"3","3","retrieval","old_objects","41","Desk_School.jpg","36","1","695"
"3","3","retrieval","new_objects","42","WateringCan_PlasticDarkGreen.jpg","37","1","749"
"3","3","retrieval","new_objects","43","Bolt.jpg","37","1","763"
"3","3","retrieval","old_objects","44","House_Doll.jpg","36","1","661"
"3","3","retrieval","old_objects","45","Sieve_TopView.jpg","37","0","740"
"3","3","retrieval","new_objects","46","Light_Siren.jpg","37","1","904"
"3","3","retrieval","new_objects","47","Eraser.jpg","37","1","604"
"3","3","retrieval","old_objects","48","Hose_Garden.jpg","36","1","624"
"3","3","retrieval","old_objects","49","Table_Conference.jpg","36","1","752"
"3","3","retrieval","new_objects","50","Shirt_SportsJersey.jpg","37","1","700"
"3","3","retrieval","new_objects","51","WaterWell.jpg","36","0","692"
"3","3","retrieval","old_objects","52","SaltShaker.jpg","36","1","1097"
"3","3","retrieval","old_objects","53","BearPolar.jpg","36","1","771"
"3","3","retrieval","new_objects","54","PenHolder.jpg","37","1","873"
"3","3","retrieval","old_objects","55","SewingPin_Cushion.jpg","36","1","682"
"3","3","retrieval","new_objects","56","Socks_Winter.jpg","37","1","1077"
"3","3","retrieval","old_objects","57","Ball_Football.jpg","36","1","757"
"3","3","retrieval","old_objects","58","Notepad_WithPen.jpg","36","1","757"
"3","3","retrieval","old_objects","59","AirTank.jpg","36","1","659"
"3","3","retrieval","old_objects","60","Brooch_Fish.jpg","36","1","868"
"3","3","retrieval","new_objects","62","Toy_DollOffice.jpg","37","1","644"
"3","3","retrieval","new_objects","63","Monitor.jpg","37","1","588"
"3","3","retrieval","old_objects","64","Shrub_Boxwood.jpg","36","1","676"
"3","3","retrieval","new_objects","65","Kiwi.jpg","37","1","785"
"3","3","retrieval","old_objects","66","Organ.jpg","36","1","819"
"3","3","retrieval","new_objects","67","Desk_Office.jpg","37","1","653"
"3","3","retrieval","new_objects","68","Toy_Ladybug.jpg","37","1","699"
"3","3","retrieval","new_objects","69","Shoes_Mould.jpg","37","1","684"
"3","3","retrieval","new_objects","70","Toy_LambPlushie.jpg","37","1","710"
"3","3","retrieval","old_objects","71","Stone_Mill.jpg","36","1","678"
"3","3","retrieval","old_objects","72","StockingChristmas.jpg","36","1","646"
"3","3","retrieval","new_objects","73","WalkieTalkie_Yellow.jpg","37","1","608"
"3","3","retrieval","old_objects","74","Brush_Cleaning.jpg","36","1","874"
"3","3","retrieval","new_objects","75","Toy_JackInTheBox.jpg","37","1","652"
"3","3","retrieval","new_objects","76","Arch_Triomphe.jpg","37","1","696"
"3","3","retrieval","old_objects","77","Steam_Cleaner.jpg","36","1","821"
"3","3","retrieval","old_objects","78","Bowl_Chopsticks.jpg","36","1","714"
"3","3","retrieval","new_objects","79","Bleachers.jpg","37","1","897"
"3","3","retrieval","old_objects","80","Honeydew_yellow.jpg","36","1","779"
"3","3","retrieval","new_objects","81","ChiliFlakes.jpg","37","1","655"
"3","3","retrieval","old_objects","82","Pitcher.jpg","36","1","1361"
"3","3","retrieval","old_objects","83","Toolbox_Red.jpg","36","1","622"
"3","3","retrieval","new_objects","84","TestTube_MultipleAndRack.jpg","37","1","812"
"3","3","retrieval","old_objects","85","Ball_8.jpg","36","1","579"
"3","3","retrieval","old_objects","86","Honeydew_Green.jpg","36","1","590"
"3","3","retrieval","new_objects","87","WashingMachine.jpg","37","1","569"
"3","3","retrieval","new_objects","88","BicycleWheelRusty.jpg","37","1","650"
"3","3","retrieval","new_objects","89","Hammock.jpg","37","1","769"
"3","3","retrieval","old_objects","90","SlideViewer.jpg","36","1","707"
"3","3","retrieval","old_objects","91","Toy_TableSet.jpg","36","1","852"
"3","3","retrieval","new_objects","92","Heater_Infrared.jpg","37","1","642"
"3","3","retrieval","new_objects","93","SoapBottle.jpg","37","1","619"
"3","3","retrieval","old_objects","94","ButterDish.jpg","37","0","834"
"3","3","retrieval","new_objects","95","Cake_Wedding.jpg","37","1","600"
"3","3","retrieval","new_objects","96","ThreeHolePunch.jpg","37","1","642"
"3","3","retrieval","old_objects","97","IceCream_Popsicle.jpg","36","1","638"
"3","3","retrieval","new_objects","98","OnionRed.jpg","37","1","672"
"3","3","retrieval","new_objects","99","Boat_Sail.jpg","37","1","638"
"3","3","retrieval","new_objects","100","PaperCutter.jpg","37","1","663"
"3","3","retrieval","new_objects","101","BicycleOdometer.jpg","37","1","602"
"3","3","retrieval","new_objects","102","Hockey_Equipment.jpg","37","1","774"
"3","3","retrieval","new_objects","103","Hat_Baseball.jpg","37","1","552"
"3","3","retrieval","old_objects","104","Jug_GallonRed.jpg","36","1","580"
"3","3","retrieval","old_objects","105","Cassette_Audio.jpg","36","1","622"
"3","3","retrieval","old_objects","106","Tribunal_Wooden.jpg","36","1","645"
"3","3","retrieval","new_objects","107","WagonPilgrim.jpg","37","1","593"
"3","3","retrieval","new_objects","108","Drum_Bongos.jpg","37","1","934"
"3","3","retrieval","old_objects","109","Bird_Cardinal.jpg","37","0","658"
"3","3","retrieval","new_objects","110","PaintRoller.jpg","37","1","578"
"3","3","retrieval","new_objects","111","SolderingWire.jpg","37","1","587"
"3","3","retrieval","old_objects","112","Tube.jpg","36","1","671"
"3","3","retrieval","new_objects","113","DogLeash.jpg","37","1","713"
"3","3","retrieval","old_objects","114","Backpack_Travel.jpg","36","1","718"
"3","3","retrieval","new_objects","115","FuzzyDice.jpg","37","1","568"
"3","3","retrieval","old_objects","116","Pipe_Drain.jpg","36","1","752"
"3","3","retrieval","old_objects","117","Mango.jpg","36","1","612"
"3","3","retrieval","old_objects","118","HairClipper.jpg","36","1","746"
"3","3","retrieval","new_objects","119","Box_Floral.jpg","37","1","569"
"3","3","retrieval","old_objects","120","Light_Traffic.jpg","36","1","824"
"3","3","retrieval","old_objects","121","Boat_Row.jpg","36","1","701"
"3","3","retrieval","new_objects","123","Table_Side.jpg","37","1","827"
"3","3","retrieval","new_objects","124","Decoration_WallOrnament.jpg","37","1","538"
"3","3","retrieval","new_objects","125","RAMchip.jpg","37","1","597"
"3","3","retrieval","new_objects","126","Container_RedPlastic.jpg","37","1","615"
"3","3","retrieval","old_objects","127","Egg_Wooden.jpg","36","1","554"
"3","3","retrieval","old_objects","128","Spotlight.jpg","37","0","677"
"3","3","retrieval","new_objects","129","Acorn.jpg","37","1","843"
"3","3","retrieval","new_objects","130","Brace_Back.jpg","37","1","593"
"3","3","retrieval","new_objects","131","EnglishMuffin.jpg","37","1","717"
"3","3","retrieval","new_objects","132","Pouch_Red.jpg","37","1","597"
"3","3","retrieval","new_objects","133","Stove_Propane.jpg","37","1","785"
"3","3","retrieval","old_objects","134","Stamper.jpg","37","0","541"
"3","3","retrieval","new_objects","135","GuineaPig.jpg","37","1","686"
"3","3","retrieval","old_objects","136","Table_Set.jpg","36","1","724"
"3","3","retrieval","new_objects","137","Chair_Rocking.jpg","37","1","854"
"3","3","retrieval","old_objects","138","Ashtray_Empty.jpg","36","1","631"
"3","3","retrieval","old_objects","139","VacuumHose.jpg","36","1","715"
"3","3","retrieval","old_objects","140","SandBagThrowGame.jpg","36","1","697"
"3","3","retrieval","old_objects","141","Bottle_Specimen.jpg","36","1","680"
"3","3","retrieval","new_objects","142","GoldNugget.jpg","37","1","696"
"3","3","retrieval","old_objects","143","Coral.jpg","36","1","930"
"3","3","retrieval","old_objects","144","StampAndSeal.jpg","36","1","634"
"3","3","retrieval","new_objects","145","Sign_SpeedLimit30.jpg","37","1","782"
"3","3","retrieval","old_objects","146","VialLab.jpg","36","1","625"
"3","3","retrieval","new_objects","147","Chicken_Raw.jpg","37","1","707"
"3","3","retrieval","old_objects","148","Tractor_Yellow.jpg","36","1","637"
"3","3","retrieval","old_objects","149","Pants.jpg","36","1","757"
"3","3","retrieval","new_objects","150","Bed_Hospital.jpg","37","1","723"
"3","3","retrieval","old_objects","151","Flags_CheckeredRacing.jpg","36","1","679"
"3","3","retrieval","old_objects","152","Paddle_Canoe.jpg","36","1","656"
"3","3","retrieval","new_objects","153","SoundMixer_White.jpg","37","1","639"
"3","3","retrieval","new_objects","154","Door_Green.jpg","37","1","665"
"3","3","retrieval","new_objects","155","Bread_Roll.jpg","37","1","787"
"3","3","retrieval","new_objects","156","PaintRollTray.jpg","37","1","749"
"3","3","retrieval","new_objects","157","Toy_BlocksWoodenPlain.jpg","37","1","582"
"3","3","retrieval","new_objects","158","Megaphone.jpg","37","1","747"
"3","3","retrieval","old_objects","159","Cloud.jpg","36","1","610"
"3","3","retrieval","old_objects","160","Bag_Doctor.jpg","36","1","793"
"3","3","retrieval","new_objects","161","Piano_Keyboard.jpg","37","1","595"
"3","3","retrieval","new_objects","162","Table_Saw.jpg","37","1","665"
"3","3","retrieval","old_objects","163","Boardgame_Chess.jpg","36","1","577"
"3","3","retrieval","new_objects","164","Fireplace_Outdoor.jpg","37","1","601"
"3","3","retrieval","old_objects","165","Boardgame_Checkers.jpg","36","1","610"
"3","3","retrieval","old_objects","166","Lighter_Yellow.jpg","36","1","713"
"3","3","retrieval","new_objects","167","TotemPole.jpg","37","1","675"
"3","3","retrieval","old_objects","168","Crate_Milk.jpg","36","1","698"
"3","3","retrieval","old_objects","169","SlushieMachine.jpg","36","1","748"
"3","3","retrieval","new_objects","170","Cannister_GasVintage.jpg","37","1","590"
"3","3","retrieval","old_objects","171","KiddiePool.jpg","36","1","720"
"3","3","retrieval","new_objects","172","Jar_Canopic.jpg","37","1","650"
"3","3","retrieval","old_objects","173","Film_Single.jpg","36","1","751"
"3","3","retrieval","old_objects","174","TinChristmas.jpg","37","0","754"
"3","3","retrieval","new_objects","175","Mousetrap.jpg","37","1","806"
"3","3","retrieval","old_objects","176","DonaldDuck_Toy.jpg","36","1","784"
"3","3","retrieval","new_objects","177","CraneMachine.jpg","37","1","633"
"3","3","retrieval","old_objects","178","Microscope.jpg","36","1","616"
"3","3","retrieval","new_objects","179","Garlic_Clove.jpg","37","1","769"
"3","3","retrieval","new_objects","180","Jet.jpg","37","1","682"
"3","3","retrieval","old_objects","181","Fruit_Carambola.jpg","36","1","627"
"3","3","retrieval","old_objects","182","Hat_Feather.jpg","36","1","689"
"3","3","retrieval","old_objects","184","Bucket_Halloween.jpg","36","1","671"
"3","3","retrieval","old_objects","185","Spoon_Serving.jpg","36","1","668"
"3","3","retrieval","new_objects","186","IceCream_Chocolate.jpg","37","1","698"
"3","3","retrieval","new_objects","187","HerbsInBag.jpg","37","1","666"
"3","3","retrieval","old_objects","188","Flamingo_Cartoon.jpg","36","1","658"
"3","3","retrieval","new_objects","189","Candy_Chocolate.jpg","37","1","577"
"3","3","retrieval","new_objects","190","Boat_Dinghy.jpg","37","1","724"
"3","3","retrieval","new_objects","191","Teardrop.jpg","37","1","557"
"3","3","retrieval","old_objects","192","BuildingChinese.jpg","36","1","661"
"3","3","retrieval","new_objects","193","Thumbtack.jpg","37","1","612"
"3","3","retrieval","old_objects","194","MouthGuard.jpg","36","1","782"
"3","3","retrieval","new_objects","195","Squash_Pumpkin.jpg","37","1","617"
"3","3","retrieval","new_objects","196","Gazebo.jpg","37","1","626"
"3","3","retrieval","old_objects","197","CigarCutter.jpg","36","1","674"
"3","3","retrieval","old_objects","198","Compressor.jpg","36","1","665"
"3","3","retrieval","old_objects","199","Scrabble.jpg","36","1","585"
"3","3","retrieval","old_objects","200","Apple_RedAndGreen.jpg","36","1","682"
"3","3","retrieval","old_objects","201","Bolt_WithNut.jpg","36","1","676"
"3","3","retrieval","old_objects","202","Basket_Bread.jpg","36","1","596"
"3","3","retrieval","new_objects","203","ElectricOutlet.jpg","37","1","679"
"3","3","retrieval","new_objects","204","Brush_Winter.jpg","37","1","755"
"3","3","retrieval","old_objects","205","Barbecue_Gas.jpg","36","1","648"
"3","3","retrieval","old_objects","206","PaperTowel_Brown.jpg","36","1","614"
"3","3","retrieval","old_objects","207","Toy_Top.jpg","37","0","587"
"3","3","retrieval","new_objects","208","Ginger.jpg","36","0","621"
"3","3","retrieval","new_objects","209","Bottle_Oil.jpg","37","1","661"
"3","3","retrieval","old_objects","210","RollingPin.jpg","36","1","591"
"3","3","retrieval","new_objects","211","BasketballHoop.jpg","37","1","741"
"3","3","retrieval","old_objects","212","sign_traffic.jpg","37","0","782"
"3","3","retrieval","old_objects","213","Saw.jpg","36","1","731"
"3","3","retrieval","new_objects","214","Bowl_Lemons.jpg","37","1","678"
"3","3","retrieval","old_objects","215","Thermometer_Room.jpg","36","1","612"
"3","3","retrieval","old_objects","216","MeatGrinder.jpg","36","1","765"
"3","3","retrieval","new_objects","217","Nuts_Pecan.jpg","36","0","867"
"3","3","retrieval","new_objects","218","Goat.jpg","36","0","847"
"3","3","retrieval","new_objects","219","fries.jpg","37","1","1076"
"3","3","retrieval","old_objects","220","MousepadAndMouse.jpg","36","1","848"
"3","3","retrieval","old_objects","221","WashRack.jpg","36","1","647"
"3","3","retrieval","old_objects","222","Baster.jpg","37","0","879"
"3","3","retrieval","old_objects","223","Bench_Park.jpg","36","1","716"
"3","3","retrieval","new_objects","224","Bed_QueenSize.jpg","37","1","690"
"3","3","retrieval","old_objects","225","Tombstone.jpg","37","0","895"
"3","3","retrieval","new_objects","226","Truck_Army.jpg","36","0","1189"
"3","3","retrieval","new_objects","227","AlcoholBar.jpg","37","1","876"
"3","3","retrieval","new_objects","228","Dropper.jpg","36","0","796"
"3","3","retrieval","old_objects","229","Paratrooper.jpg","36","1","890"
"3","3","retrieval","new_objects","230","Costume_Wizard.jpg","37","1","616"
"3","3","retrieval","new_objects","231","Trophy.jpg","37","1","935"
"3","3","retrieval","old_objects","232","Deodorant.jpg","37","0","813"
"3","3","retrieval","new_objects","233","Mitt_Oven.jpg","37","1","686"
"3","3","retrieval","new_objects","234","Snowpea.jpg","37","1","655"
"3","3","retrieval","new_objects","235","TeethModel.jpg","37","1","616"
"3","3","retrieval","old_objects","236","Table_AntiqueWooden.jpg","36","1","770"
"3","3","retrieval","new_objects","237","ClothCoaster.jpg","37","1","694"
"3","3","retrieval","old_objects","238","Glass_Cup.jpg","36","1","873"
"3","3","retrieval","new_objects","239","Statue_VirginMary.jpg","37","1","587"
"3","3","retrieval","new_objects","240","CookieCutter_Tree.jpg","37","1","636"
"3","3","retrieval","old_objects","241","Ruler_Digital.jpg","36","1","918"
"3","3","retrieval","old_objects","242","Golf_Bag.jpg","36","1","726"
"3","3","retrieval","old_objects","243","Lock_Key.jpg","36","1","672"
"3","3","retrieval","new_objects","245","MannequinHead.jpg","37","1","631"
"3","3","retrieval","old_objects","246","Lock_Bike.jpg","36","1","704"
"3","3","retrieval","new_objects","247","Toy_BlocksMultiShape.jpg","37","1","718"
"3","3","retrieval","new_objects","248","Stethoscope.jpg","37","1","759"
"3","3","retrieval","new_objects","249","Telescope.jpg","37","1","644"
"3","3","retrieval","old_objects","250","Cork.jpg","36","1","693"
"3","3","retrieval","old_objects","251","Ramekin.jpg","36","1","927"
"3","3","retrieval","old_objects","252","PhoneCase.jpg","36","1","729"
"3","3","retrieval","old_objects","253","Suit_Women.jpg","36","1","655"
"3","3","retrieval","old_objects","254","Lips_Real.jpg","36","1","650"
"3","3","retrieval","old_objects","255","Flower_Crane.jpg","36","1","762"
"3","3","retrieval","new_objects","256","Sign_NoParking.jpg","37","1","749"
"3","3","retrieval","new_objects","257","Vase_Decorative.jpg","37","1","741"
"3","3","retrieval","new_objects","258","DentalProbe.jpg","37","1","724"
"3","3","retrieval","new_objects","259","HDMIConnector.jpg","37","1","776"
"3","3","retrieval","old_objects","260","Playground.jpg","36","1","850"
"3","3","retrieval","new_objects","261","KeyHook_Occupied.jpg","37","1","625"
"3","3","retrieval","new_objects","262","Caribou.jpg","37","1","813"
"3","3","retrieval","old_objects","263","Tree_Fir.jpg","36","1","736"
"3","3","retrieval","new_objects","264","HardDrive.jpg","37","1","656"
"3","3","retrieval","new_objects","265","Keys_Bunch.jpg","37","1","694"
"3","3","retrieval","new_objects","266","Jetski.jpg","37","1","632"
"3","3","retrieval","old_objects","267","MobilityScooter.jpg","36","1","616"
"3","3","retrieval","new_objects","268","Glass_Martini.jpg","37","1","638"
"3","3","retrieval","old_objects","269","Notebook.jpg","36","1","664"
"3","3","retrieval","new_objects","270","Starfish.jpg","37","1","612"
"3","3","retrieval","new_objects","271","Egg_Cup.jpg","37","1","608"
"3","3","retrieval","old_objects","272","Syringe_Needle.jpg","36","1","619"
"3","3","retrieval","old_objects","273","Hook_Fish.jpg","36","1","699"
"3","3","retrieval","new_objects","274","Hat_Police.jpg","37","1","571"
"3","3","retrieval","new_objects","275","Toy_TrailerAirport.jpg","37","1","681"
"3","3","retrieval","old_objects","276","Drill.jpg","36","1","612"
"3","3","retrieval","old_objects","277","Sphinx.jpg","36","1","676"
"3","3","retrieval","old_objects","278","CoolingFan_Engine.jpg","36","1","646"
"3","3","retrieval","new_objects","279","Dreidel.jpg","37","1","578"
"3","3","retrieval","new_objects","280","Sashimi.jpg","37","1","692"
"3","3","retrieval","old_objects","281","Toy_Tank.jpg","36","1","613"
"3","3","retrieval","old_objects","282","ButterChurn.jpg","36","1","609"
"3","3","retrieval","new_objects","283","Camera_Security.jpg","37","1","705"
"3","3","retrieval","new_objects","284","Cheesegrater_Handheld.jpg","37","1","613"
"3","3","retrieval","old_objects","285","Swing_Porch.jpg","36","1","665"
"3","3","retrieval","old_objects","286","Fortress.jpg","36","1","595"
"3","3","retrieval","new_objects","287","BicycleWheel.jpg","37","1","623"
"3","3","retrieval","new_objects","288","Plunger.jpg","37","1","603"
"3","3","retrieval","old_objects","289","Honeycomb.jpg","37","0","568"
"3","3","retrieval","old_objects","290","Cup_Styrofoam.jpg","36","1","713"
"3","3","retrieval","old_objects","291","Elephant.jpg","36","1","595"
"3","3","retrieval","new_objects","292","Pineapple.jpg","37","1","738"
"3","3","retrieval","new_objects","293","TortillaChip.jpg","37","1","753"
"3","3","retrieval","old_objects","294","Wire_ElectricalSingle.jpg","36","1","731"
"3","3","retrieval","old_objects","295","Stone_Spa.jpg","36","1","629"
"3","3","retrieval","new_objects","296","Wardrobe.jpg","37","1","628"
"3","3","retrieval","new_objects","297","BloodpPresureCuff.jpg","37","1","691"
"3","3","retrieval","new_objects","298","Bird_Hen.jpg","37","1","554"
"3","3","retrieval","new_objects","299","JuicerCitrus.jpg","37","1","548"
"3","3","retrieval","new_objects","300","CarJack.jpg","37","1","556"
"3","3","retrieval","old_objects","301","KitchenCloth.jpg","36","1","558"
"3","3","retrieval","old_objects","302","Toy_ModelMolecule.jpg","36","1","814"
"3","3","retrieval","old_objects","303","Toy_RabbitPlushie.jpg","36","1","727"
"3","3","retrieval","new_objects","304","ControlPanel.jpg","37","1","656"
"3","3","retrieval","new_objects","306","Fork_Fondue.jpg","37","1","664"
"3","3","retrieval","new_objects","307","Statue_SouthAmerican.jpg","37","1","573"
"3","3","retrieval","new_objects","308","Scoop_IceCream.jpg","37","1","590"
"3","3","retrieval","new_objects","309","Pacifier.jpg","37","1","583"
"3","3","retrieval","old_objects","310","Dreamcatcher.jpg","36","1","663"
"3","3","retrieval","new_objects","311","Hedgehog.jpg","37","1","608"
"3","3","retrieval","new_objects","312","FortuneCookie.jpg","37","1","631"
"3","3","retrieval","old_objects","313","Toolbox_BlackOpen.jpg","36","1","701"
"3","3","retrieval","old_objects","314","Makeup_Foundation.jpg","36","1","681"
"3","3","retrieval","new_objects","315","Stove_Camping.jpg","37","1","871"
"3","3","retrieval","new_objects","316","Brace_Leg.jpg","37","1","597"
"3","3","retrieval","new_objects","317","Earring_Hoop.jpg","37","1","686"
"3","3","retrieval","old_objects","318","Archery_Arrows.jpg","36","1","732"
"3","3","retrieval","new_objects","319","Star.jpg","37","1","578"
"3","3","retrieval","new_objects","320","Slide.jpg","37","1","672"
"3","3","retrieval","new_objects","321","Bomb.jpg","37","1","596"
"3","3","retrieval","old_objects","322","Fryingpan.jpg","37","0","613"
"3","3","retrieval","new_objects","323","Clippers_Glass.jpg","37","1","722"
"3","3","retrieval","old_objects","324","Foam_Accoustic.jpg","36","1","604"
"3","3","retrieval","old_objects","325","Paddle_PingPong.jpg","36","1","662"
"3","3","retrieval","old_objects","326","MetalDetector.jpg","36","1","941"
"3","3","retrieval","old_objects","327","Cranberry.jpg","36","1","655"
"3","3","retrieval","old_objects","328","Toy_Chicken.jpg","36","1","644"
"3","3","retrieval","old_objects","329","Soap.jpg","36","1","667"
"3","3","retrieval","old_objects","330","ChariotGold.jpg","37","0","661"
"3","3","retrieval","old_objects","331","Glass_Ball.jpg","36","1","682"
"3","3","retrieval","old_objects","332","Statue_Horse.jpg","37","0","641"
"3","3","retrieval","old_objects","333","TailLight.jpg","36","1","720"
"3","3","retrieval","new_objects","334","Butterfly.jpg","37","1","657"
"3","3","retrieval","new_objects","335","PenStand.jpg","37","1","656"
"3","3","retrieval","new_objects","336","Stick_Stirring.jpg","37","1","594"
"3","3","retrieval","new_objects","337","Hat_Cowboy.jpg","37","1","745"
"3","3","retrieval","new_objects","338","Cactus.jpg","37","1","607"
"3","3","retrieval","new_objects","339","Hippopotamus.jpg","37","1","648"
"3","3","retrieval","new_objects","340","Leaf_Green.jpg","37","1","564"
"3","3","retrieval","old_objects","341","Horn_French.jpg","36","1","632"
"3","3","retrieval","old_objects","342","Bat_Cricket.jpg","36","1","847"
"3","3","retrieval","old_objects","343","Camera_Video.jpg","36","1","792"
"3","3","retrieval","new_objects","344","Binoculars.jpg","37","1","756"
"3","3","retrieval","new_objects","345","Sign_Open.jpg","37","1","655"
"3","3","retrieval","new_objects","346","Flower_Hibiscus.jpg","37","1","555"
"3","3","retrieval","old_objects","347","ShotGlassTray.jpg","36","1","643"
"3","3","retrieval","new_objects","348","Lunchbox.jpg","37","1","855"
"3","3","retrieval","new_objects","349","Toy_GasPump.jpg","37","1","616"
"3","3","retrieval","new_objects","350","BicycleBrake.jpg","37","1","683"
"3","3","retrieval","old_objects","351","PropellerFan.jpg","36","1","611"
"3","3","retrieval","old_objects","352","CuttingBoard.jpg","37","0","601"
"3","3","retrieval","new_objects","353","Squid_Orange.jpg","37","1","788"
"3","3","retrieval","old_objects","354","Ashtray_Cigarettes.jpg","36","1","598"
"3","3","retrieval","new_objects","355","Mask_Happy.jpg","37","1","600"
"3","3","demographics_block","gender","1","Mask_Happy.jpg","Male","1","16669"
"3","3","demographics_block","age","1","Mask_Happy.jpg","55","1","16669"
"3","3","demographics_block","education","1","Mask_Happy.jpg","15","1","16669"
"3","3","demographics_block","left_right_handed","2","Mask_Happy.jpg","Left","1","17506"
"3","3","demographics_block","raceoption1","2","Mask_Happy.jpg","0","1","17506"
"3","3","demographics_block","raceoption2","2","Mask_Happy.jpg","","1","17506"
"3","3","demographics_block","raceoption3","2","Mask_Happy.jpg","","1","17506"
"3","3","demographics_block","raceoption4","2","Mask_Happy.jpg","","1","17506"
"3","3","demographics_block","raceoption5","2","Mask_Happy.jpg","","1","17506"
"3","3","demographics_block","raceoption6","2","Mask_Happy.jpg","","1","17506"
"3","3","demographics_block","raceoption7","2","Mask_Happy.jpg","","1","17506"
"3","3","demographics_block","raceoption8","2","Mask_Happy.jpg","","1","17506"
"3","3","demographics_block","raceoption9","2","Mask_Happy.jpg","","1","17506"
"3","3","demographics_block","raceother","2","Mask_Happy.jpg","","1","17506"
"3","3","demographics_block","raceother","2","Mask_Happy.jpg","","1","17506"
"3","3","demographics_block","english_language","2","Mask_Happy.jpg","Yes","1","17506"
"3","3","demographics_block","english_languageother","2","Mask_Happy.jpg","","1","17506"
"3","3","demographics_block","eyesight","3","Mask_Happy.jpg","Yes","1","4867"
"3","3","demographics_block","colorblind","3","Mask_Happy.jpg","No","1","4867"
"3","3","worker_id_block","worker_id_textbox","1","Mask_Happy.jpg","A37XJVQF62ZYC","1","50860"
"4","4","encoding","encoding","1","Cassette_Audio.jpg","1","0","2790"
"4","4","encoding","encoding","2","sign_traffic.jpg","2","0","1425"
"4","4","encoding","encoding","3","KitchenCloth.jpg","4","0","1735"
"4","4","encoding","encoding","4","Sign_Caution.jpg","0","0","3000"
"4","4","encoding","encoding","5","Paddle_PingPong.jpg","0","0","3000"
"4","4","encoding","encoding","6","Toy_RabbitPlushie.jpg","5","0","2215"
"4","4","encoding","encoding","7","Notebook.jpg","4","0","1855"
"4","4","encoding","encoding","8","Bat_Cricket.jpg","2","0","1777"
"4","4","encoding","encoding","9","Fruit_Carambola.jpg","5","0","1750"
"4","4","encoding","encoding","10","AirTank.jpg","2","0","1703"
"4","4","encoding","encoding","11","Boat_Row.jpg","1","0","1653"
"4","4","encoding","encoding","12","Pipe_Drain.jpg","3","0","1890"
"4","4","encoding","encoding","13","Instrument_African.jpg","5","0","1595"
"4","4","encoding","encoding","14","Bird_Cardinal.jpg","6","0","1822"
"4","4","encoding","encoding","15","Apple_RedAndGreen.jpg","6","0","2593"
"4","4","encoding","encoding","16","Basket_Bread.jpg","0","0","3000"
"4","4","encoding","encoding","17","Camera_Video.jpg","0","0","3000"
"4","4","encoding","encoding","18","WashRack.jpg","0","0","3000"
"4","4","encoding","encoding","19","Glass_Cup.jpg","3","0","1318"
"4","4","encoding","encoding","20","PaperTowel_Brown.jpg","2","0","1475"
"4","4","encoding","encoding","21","Tractor_Yellow.jpg","2","0","1525"
"4","4","encoding","encoding","22","Spoon_Serving.jpg","3","0","1465"
"4","4","encoding","encoding","23","Pitcher.jpg","4","0","1776"
"4","4","encoding","encoding","24","Toy_WinnieThePooh.jpg","2","0","1638"
"4","4","encoding","encoding","25","Flamingo_Cartoon.jpg","4","0","1570"
"4","4","encoding","encoding","26","Dreamcatcher.jpg","3","0","1457"
"4","4","encoding","encoding","27","CigarCutter.jpg","2","0","1549"
"4","4","encoding","encoding","28","SlideViewer.jpg","1","0","1210"
"4","4","encoding","encoding","29","Pants.jpg","1","0","1586"
"4","4","encoding","encoding","30","Table_Set.jpg","2","0","1191"
"4","4","encoding","encoding","31","Saw.jpg","2","0","1239"
"4","4","encoding","encoding","32","Toy_Top.jpg","2","0","1373"
"4","4","encoding","encoding","33","SlushieMachine.jpg","3","0","1422"
"4","4","encoding","encoding","34","Honeycomb.jpg","0","0","3000"
"4","4","encoding","encoding","35","Cup_sippy.jpg","2","0","1477"
"4","4","encoding","encoding","36","Stamper.jpg","1","0","2360"
"4","4","encoding","encoding","37","Egg_Wooden.jpg","2","0","1270"
"4","4","encoding","encoding","38","PropellerFan.jpg","2","0","1981"
"4","4","encoding","encoding","39","Notepad_WithPen.jpg","1","0","1819"
"4","4","encoding","encoding","40","Flags_CheckeredRacing.jpg","1","0","1306"
"4","4","encoding","encoding","41","Bowl_Chopsticks.jpg","2","0","1316"
"4","4","encoding","encoding","42","Playground.jpg","3","0","1531"
"4","4","encoding","encoding","43","KiddiePool.jpg","2","0","1363"
"4","4","encoding","encoding","44","FireAlarm.jpg","2","0","1344"
"4","4","encoding","encoding","45","Toolbox_BlackOpen.jpg","1","0","1291"
"4","4","encoding","encoding","46","Desk_School.jpg","3","0","1410"
"4","4","encoding","encoding","47","Fortress.jpg","7","0","1906"
"4","4","encoding","encoding","48","Mango.jpg","4","0","1335"
"4","4","encoding","encoding","49","Barbecue_Gas.jpg","2","0","1526"
"4","4","encoding","encoding","50","Soap.jpg","1","0","1207"
"4","4","encoding","encoding","51","Organ.jpg","4","0","1432"
"4","4","encoding","encoding","52","Horn_French.jpg","2","0","1204"
"4","4","encoding","encoding","53","Baster.jpg","1","0","1156"
"4","4","encoding","encoding","54","ButterChurn.jpg","3","0","1271"
"4","4","encoding","encoding","55","Bottle_BubbleBlower.jpg","1","0","1281"
"4","4","encoding","encoding","56","Toy_Tank.jpg","2","0","1482"
"4","4","encoding","encoding","57","Hook_Fish.jpg","3","0","1522"
"4","4","encoding","encoding","58","MeatGrinder.jpg","1","0","2362"
"4","4","encoding","encoding","59","Film_Single.jpg","2","0","1408"
"4","4","encoding","encoding","60","BuildingChinese.jpg","0","0","3000"
"4","4","encoding","encoding","62","HairClipper.jpg","0","0","3000"
"4","4","encoding","encoding","63","Cup_Styrofoam.jpg","0","0","3000"
"4","4","encoding","encoding","64","MeatRaw.jpg","0","0","3000"
"4","4","encoding","encoding","65","Ball_Football.jpg","0","0","3000"
"4","4","encoding","encoding","66","LaundryHamper.jpg","0","0","3000"
"4","4","encoding","encoding","67","Lock_Bike.jpg","1","0","1257"
"4","4","encoding","encoding","68","Honeydew_Green.jpg","3","0","1036"
"4","4","encoding","encoding","69","DonaldDuck_Toy.jpg","2","0","1456"
"4","4","encoding","encoding","70","Bib.jpg","3","0","1506"
"4","4","encoding","encoding","71","Steam_Cleaner.jpg","1","0","1485"
"4","4","encoding","encoding","72","Cork.jpg","2","0","1239"
"4","4","encoding","encoding","73","Bicycle_Adult.jpg","2","0","1763"
"4","4","encoding","encoding","74","Lock_Key.jpg","0","0","3000"
"4","4","encoding","encoding","75","Stone_Mill.jpg","0","0","3000"
"4","4","encoding","encoding","76","SewingPin_Cushion.jpg","0","0","3000"
"4","4","encoding","encoding","77","Bucket_Halloween.jpg","0","0","3000"
"4","4","encoding","encoding","78","Ramekin.jpg","0","0","3000"
"4","4","encoding","encoding","79","HairClip.jpg","0","0","3000"
"4","4","encoding","encoding","80","ChariotGold.jpg","0","0","3000"
"4","4","encoding","encoding","81","Lips_Real.jpg","0","0","3000"
"4","4","encoding","encoding","82","Brooch_Fish.jpg","0","0","3000"
"4","4","encoding","encoding","83","BearPolar.jpg","0","0","3000"
"4","4","encoding","encoding","84","Candy_Cotton.jpg","0","0","3000"
"4","4","encoding","encoding","85","Lighter_Yellow.jpg","0","0","3000"
"4","4","encoding","encoding","86","Sphinx.jpg","0","0","3000"
"4","4","encoding","encoding","87","Tree_Fir.jpg","0","0","3000"
"4","4","encoding","encoding","88","House_Doll.jpg","0","0","3000"
"4","4","encoding","encoding","89","PulleyWooden.jpg","0","0","3000"
"4","4","encoding","encoding","90","Toolbox_Red.jpg","0","0","3000"
"4","4","encoding","encoding","91","TinChristmas.jpg","0","0","3000"
"4","4","encoding","encoding","92","IceCream_Popsicle.jpg","0","0","3000"
"4","4","encoding","encoding","93","Table_AntiqueWooden.jpg","0","0","3000"
"4","4","encoding","encoding","94","Deodorant.jpg","0","0","3000"
"4","4","encoding","encoding","95","Protractor.jpg","0","0","3000"
"4","4","encoding","encoding","96","Cranberry.jpg","0","0","3000"
"4","4","encoding","encoding","97","Stone_Spa.jpg","0","0","3000"
"4","4","encoding","encoding","98","MetalDetector.jpg","0","0","3000"
"4","4","encoding","encoding","99","Suit_Women.jpg","0","0","3000"
"4","4","encoding","encoding","100","Archery_Arrows.jpg","0","0","3000"
"4","4","encoding","encoding","101","Golf_Bag.jpg","0","0","3000"
"4","4","encoding","encoding","102","Toy_ModelMolecule.jpg","0","0","3000"
"4","4","encoding","encoding","103","Kazoo.jpg","0","0","3000"
"4","4","encoding","encoding","104","Bench_Park.jpg","0","0","3000"
"4","4","encoding","encoding","105","Hose_Garden.jpg","0","0","3000"
"4","4","encoding","encoding","106","Bottle_Specimen.jpg","0","0","3000"
"4","4","encoding","encoding","107","SandBagThrowGame.jpg","0","0","3000"
"4","4","encoding","encoding","108","Tribunal_Wooden.jpg","0","0","3000"
"4","4","encoding","encoding","109","Boardgame_Checkers.jpg","0","0","3000"
"4","4","encoding","encoding","110","Makeup_Foundation.jpg","0","0","3000"
"4","4","encoding","encoding","111","Paratrooper.jpg","3","0","1884"
"4","4","encoding","encoding","112","StockingChristmas.jpg","6","0","1262"
"4","4","encoding","encoding","113","MouthGuard.jpg","2","0","1946"
"4","4","encoding","encoding","114","Statue_Horse.jpg","5","0","1265"
"4","4","encoding","encoding","115","VialLab.jpg","1","0","1479"
"4","4","encoding","encoding","116","Tombstone.jpg","5","0","2170"
"4","4","encoding","encoding","117","DryRack_Dishes.jpg","1","0","1377"
"4","4","encoding","encoding","118","MobilityScooter.jpg","2","0","2572"
"4","4","encoding","encoding","119","Toy_Octopus.jpg","4","0","1691"
"4","4","encoding","encoding","120","Bag_Doctor.jpg","0","0","3000"
"4","4","encoding","encoding","121","Microscope.jpg","2","0","1414"
"4","4","encoding","encoding","123","Hat_Feather.jpg","5","0","1736"
"4","4","encoding","encoding","124","Table_PingPong.jpg","1","0","1323"
"4","4","encoding","encoding","125","SaltShaker.jpg","2","0","1721"
"4","4","encoding","encoding","126","Thermometer_Room.jpg","1","0","958"
"4","4","encoding","encoding","127","Backpack_Travel.jpg","3","0","1364"
"4","4","encoding","encoding","128","Boot_Rain.jpg","1","0","1032"
"4","4","encoding","encoding","129","Spotlight.jpg","4","0","959"
"4","4","encoding","encoding","130","Drill.jpg","0","0","3000"
"4","4","encoding","encoding","131","PhoneCase.jpg","0","0","3000"
"4","4","encoding","encoding","132","Jug_GallonRed.jpg","3","0","2033"
"4","4","encoding","encoding","133","MousepadAndMouse.jpg","2","0","1111"
"4","4","encoding","encoding","134","Flower_Crane.jpg","5","0","1188"
"4","4","encoding","encoding","135","Bolt_WithNut.jpg","1","0","1416"
"4","4","encoding","encoding","136","CinderBlock.jpg","1","0","999"
"4","4","encoding","encoding","137","ShotGlassTray.jpg","5","0","1731"
"4","4","encoding","encoding","138","VacuumHose.jpg","1","0","1083"
"4","4","encoding","encoding","139","Shoe_Men.jpg","5","0","1614"
"4","4","encoding","encoding","140","ButterDish.jpg","3","0","1069"
"4","4","encoding","encoding","141","Toy_Chicken.jpg","4","0","1192"
"4","4","encoding","encoding","142","StampAndSeal.jpg","2","0","1372"
"4","4","encoding","encoding","143","Swing_Porch.jpg","1","0","1046"
"4","4","encoding","encoding","144","Light_Traffic.jpg","3","0","1387"
"4","4","encoding","encoding","145","Brush_Cleaning.jpg","1","0","1300"
"4","4","encoding","encoding","146","CuttingBoard.jpg","1","0","1092"
"4","4","encoding","encoding","147","RollingPin.jpg","0","0","3000"
"4","4","encoding","encoding","148","Light_Halogen.jpg","0","0","3000"
"4","4","encoding","encoding","149","Cloud.jpg","0","0","3000"
"4","4","encoding","encoding","150","Toy_TableSet.jpg","0","0","3000"
"4","4","encoding","encoding","151","Wire_ElectricalSingle.jpg","0","0","3000"
"4","4","encoding","encoding","152","Ball_8.jpg","0","0","3000"
"4","4","encoding","encoding","153","PanCooking.jpg","0","0","3000"
"4","4","encoding","encoding","154","Foam_Accoustic.jpg","0","0","3000"
"4","4","encoding","encoding","155","Sieve_TopView.jpg","0","0","3000"
"4","4","encoding","encoding","156","TailLight.jpg","0","0","3000"
"4","4","encoding","encoding","157","Scrabble.jpg","0","0","3000"
"4","4","encoding","encoding","158","Cat.jpg","0","0","3000"
"4","4","encoding","encoding","159","Currants.jpg","0","0","3000"
"4","4","encoding","encoding","160","Honeydew_yellow.jpg","0","0","3000"
"4","4","encoding","encoding","161","Elephant.jpg","0","0","3000"
"4","4","encoding","encoding","162","Coral.jpg","0","0","3000"
"4","4","encoding","encoding","163","Table_Conference.jpg","0","0","3000"
"4","4","encoding","encoding","164","Syringe_Needle.jpg","0","0","3000"
"4","4","encoding","encoding","165","Crate_Milk.jpg","0","0","3000"
"4","4","encoding","encoding","166","Fryingpan.jpg","0","0","3000"
"4","4","encoding","encoding","167","Ruler_Digital.jpg","0","0","3000"
"4","4","encoding","encoding","168","Compressor.jpg","0","0","3000"
"4","4","encoding","encoding","169","Shrub_Boxwood.jpg","0","0","3000"
"4","4","encoding","encoding","170","Ashtray_Cigarettes.jpg","0","0","3000"
"4","4","encoding","encoding","171","CoolingFan_Engine.jpg","0","0","3000"
"4","4","encoding","encoding","172","Tube.jpg","0","0","3000"
"4","4","encoding","encoding","173","Paddle_Canoe.jpg","0","0","3000"
"4","4","encoding","encoding","174","Drum_Brazilan.jpg","0","0","3000"
"4","4","encoding","encoding","175","Boardgame_Chess.jpg","0","0","3000"
"4","4","encoding","encoding","176","Ashtray_Empty.jpg","0","0","3000"
"4","4","encoding","encoding","177","Glass_Ball.jpg","0","0","3000"
"4","4","retrieval","new_objects","1","Scoop_IceCream.jpg","37","1","731"
"4","4","retrieval","new_objects","2","Plunger.jpg","37","1","949"
"4","4","retrieval","new_objects","3","Drum_Bongos.jpg","37","1","814"
"4","4","retrieval","old_objects","4","ShotGlassTray.jpg","36","1","532"
"4","4","retrieval","new_objects","5","Chicken_Raw.jpg","37","1","696"
"4","4","retrieval","new_objects","6","Stove_Propane.jpg","37","1","818"
"4","4","retrieval","old_objects","7","BearPolar.jpg","36","1","552"
"4","4","retrieval","old_objects","8","MouthGuard.jpg","36","1","690"
"4","4","retrieval","new_objects","9","Box_Floral.jpg","37","1","606"
"4","4","retrieval","old_objects","10","Table_Conference.jpg","36","1","685"
"4","4","retrieval","new_objects","11","Table_Saw.jpg","36","0","969"
"4","4","retrieval","new_objects","12","Mousetrap.jpg","37","1","768"
"4","4","retrieval","old_objects","13","Ashtray_Empty.jpg","36","1","552"
"4","4","retrieval","new_objects","14","SoapBottle.jpg","37","1","618"
"4","4","retrieval","old_objects","15","Spotlight.jpg","37","0","1225"
"4","4","retrieval","new_objects","16","Fireplace_Outdoor.jpg","37","1","869"
"4","4","retrieval","old_objects","17","Paratrooper.jpg","37","0","665"
"4","4","retrieval","old_objects","18","Bib.jpg","36","1","751"
"4","4","retrieval","old_objects","19","Cork.jpg","36","1","727"
"4","4","retrieval","new_objects","20","TeethModel.jpg","37","1","664"
"4","4","retrieval","new_objects","21","Sign_NoParking.jpg","37","1","837"
"4","4","retrieval","old_objects","22","VacuumHose.jpg","36","1","802"
"4","4","retrieval","old_objects","23","Cassette_Audio.jpg","36","1","730"
"4","4","retrieval","new_objects","24","Ginger.jpg","37","1","778"
"4","4","retrieval","new_objects","25","Brace_Leg.jpg","37","1","604"
"4","4","retrieval","new_objects","26","PuppetTheatre_BlueRed.jpg","37","1","673"
"4","4","retrieval","old_objects","27","Jug_GallonRed.jpg","37","0","599"
"4","4","retrieval","new_objects","28","Toy_LambPlushie.jpg","37","1","622"
"4","4","retrieval","old_objects","29","Fruit_Carambola.jpg","36","1","869"
"4","4","retrieval","new_objects","30","Socks_Winter.jpg","37","1","785"
"4","4","retrieval","old_objects","31","Soap.jpg","37","0","616"
"4","4","retrieval","new_objects","32","Dropper.jpg","37","1","855"
"4","4","retrieval","old_objects","33","Barbecue_Gas.jpg","36","1","853"
"4","4","retrieval","new_objects","34","Binoculars.jpg","37","1","1672"
"4","4","retrieval","new_objects","35","WashingMachine.jpg","37","1","792"
"4","4","retrieval","new_objects","36","Sashimi.jpg","37","1","791"
"4","4","retrieval","old_objects","37","Egg_Wooden.jpg","36","1","591"
"4","4","retrieval","new_objects","38","BicycleChain.jpg","37","1","671"
"4","4","retrieval","new_objects","39","Statue_VirginMary.jpg","37","1","908"
"4","4","retrieval","new_objects","40","BicycleBrake.jpg","37","1","886"
"4","4","retrieval","old_objects","41","Cup_sippy.jpg","36","1","729"
"4","4","retrieval","old_objects","42","Boot_Rain.jpg","36","1","748"
"4","4","retrieval","old_objects","43","Stone_Mill.jpg","36","1","844"
"4","4","retrieval","new_objects","44","BloodpPresureCuff.jpg","36","0","1010"
"4","4","retrieval","new_objects","45","Pacifier.jpg","37","1","904"
"4","4","retrieval","new_objects","46","Teardrop.jpg","37","1","747"
"4","4","retrieval","new_objects","47","AlcoholBar.jpg","37","1","675"
"4","4","retrieval","new_objects","48","CarJack.jpg","37","1","527"
"4","4","retrieval","new_objects","49","Toy_BlocksWoodenPlain.jpg","37","1","674"
"4","4","retrieval","new_objects","50","Heater_Infrared.jpg","37","1","591"
"4","4","retrieval","old_objects","51","Archery_Arrows.jpg","36","1","807"
"4","4","retrieval","old_objects","52","Paddle_PingPong.jpg","36","1","734"
"4","4","retrieval","old_objects","53","ButterDish.jpg","36","1","711"
"4","4","retrieval","new_objects","54","Megaphone.jpg","37","1","1602"
"4","4","retrieval","new_objects","55","Jetski.jpg","37","1","662"
"4","4","retrieval","new_objects","56","Toy_DollOffice.jpg","37","1","738"
"4","4","retrieval","old_objects","57","Mango.jpg","36","1","628"
"4","4","retrieval","new_objects","58","Butterfly.jpg","37","1","642"
"4","4","retrieval","new_objects","59","Glass_Martini.jpg","37","1","792"
"4","4","retrieval","new_objects","60","KeyHook_Occupied.jpg","37","1","800"
"4","4","retrieval","new_objects","62","Container_RedPlastic.jpg","37","1","751"
"4","4","retrieval","new_objects","63","Bowl_Lemons.jpg","37","1","720"
"4","4","retrieval","new_objects","64","Acorn.jpg","37","1","562"
"4","4","retrieval","old_objects","65","ChariotGold.jpg","36","1","684"
"4","4","retrieval","new_objects","66","BicycleWheel.jpg","37","1","713"
"4","4","retrieval","old_objects","67","CuttingBoard.jpg","37","0","835"
"4","4","retrieval","new_objects","68","Shorts_Plaid.jpg","37","1","624"
"4","4","retrieval","old_objects","69","Bicycle_Adult.jpg","36","1","823"
"4","4","retrieval","new_objects","70","Cactus.jpg","37","1","621"
"4","4","retrieval","old_objects","71","Film_Single.jpg","37","0","612"
"4","4","retrieval","old_objects","72","Toy_ModelMolecule.jpg","36","1","780"
"4","4","retrieval","old_objects","73","Horn_French.jpg","36","1","572"
"4","4","retrieval","old_objects","74","Glass_Cup.jpg","36","1","725"
"4","4","retrieval","new_objects","75","Star.jpg","37","1","663"
"4","4","retrieval","old_objects","76","Toolbox_BlackOpen.jpg","36","1","708"
"4","4","retrieval","new_objects","77","HardDrive.jpg","37","1","784"
"4","4","retrieval","new_objects","78","Lunchbox.jpg","37","1","655"
"4","4","retrieval","old_objects","79","Bag_Doctor.jpg","37","0","860"
"4","4","retrieval","new_objects","80","GuineaPig.jpg","37","1","752"
"4","4","retrieval","new_objects","81","Bed_Hospital.jpg","37","1","714"
"4","4","retrieval","new_objects","82","ControlPanel.jpg","37","1","660"
"4","4","retrieval","old_objects","83","Toolbox_Red.jpg","36","1","649"
"4","4","retrieval","new_objects","84","House_Rural.jpg","37","1","791"
"4","4","retrieval","new_objects","85","WalkieTalkie_Yellow.jpg","37","1","934"
"4","4","retrieval","new_objects","86","DogLeash.jpg","37","1","751"
"4","4","retrieval","old_objects","87","WashRack.jpg","37","0","672"
"4","4","retrieval","new_objects","88","Stove_Camping.jpg","36","0","916"
"4","4","retrieval","old_objects","89","SewingPin_Cushion.jpg","37","0","734"
"4","4","retrieval","new_objects","90","ClothCoaster.jpg","37","1","903"
"4","4","retrieval","new_objects","91","PaperCutter.jpg","37","1","722"
"4","4","retrieval","new_objects","92","Eraser.jpg","37","1","788"
"4","4","retrieval","new_objects","93","OnionRed.jpg","37","1","723"
"4","4","retrieval","old_objects","94","Coral.jpg","36","1","742"
"4","4","retrieval","old_objects","95","Boardgame_Checkers.jpg","36","1","544"
"4","4","retrieval","old_objects","96","Stone_Spa.jpg","36","1","738"
"4","4","retrieval","new_objects","97","Caribou.jpg","37","1","764"
"4","4","retrieval","old_objects","98","AirTank.jpg","36","1","717"
"4","4","retrieval","new_objects","99","SoundMixer_White.jpg","37","1","663"
"4","4","retrieval","old_objects","100","StockingChristmas.jpg","37","0","1604"
"4","4","retrieval","old_objects","101","Lips_Real.jpg","36","1","720"
"4","4","retrieval","old_objects","102","ButterChurn.jpg","36","1","714"
"4","4","retrieval","new_objects","103","Toy_BlocksMultiShape.jpg","37","1","693"
"4","4","retrieval","old_objects","104","HairClipper.jpg","36","1","1016"
"4","4","retrieval","old_objects","105","Brush_Cleaning.jpg","37","0","734"
"4","4","retrieval","old_objects","106","Deodorant.jpg","36","1","1079"
"4","4","retrieval","old_objects","107","Apple_RedAndGreen.jpg","36","1","602"
"4","4","retrieval","old_objects","108","Bolt_WithNut.jpg","36","1","674"
"4","4","retrieval","old_objects","109","Lighter_Yellow.jpg","36","1","726"
"4","4","retrieval","old_objects","110","Dreamcatcher.jpg","36","1","673"
"4","4","retrieval","old_objects","111","Cranberry.jpg","36","1","677"
"4","4","retrieval","old_objects","112","Ramekin.jpg","36","1","554"
"4","4","retrieval","new_objects","113","Clippers_Glass.jpg","37","1","692"
"4","4","retrieval","new_objects","114","Dreidel.jpg","37","1","800"
"4","4","retrieval","new_objects","115","Jet.jpg","37","1","639"
"4","4","retrieval","new_objects","116","Brace_Back.jpg","37","1","941"
"4","4","retrieval","new_objects","117","Hippopotamus.jpg","37","1","701"
"4","4","retrieval","old_objects","118","Notebook.jpg","37","0","953"
"4","4","retrieval","new_objects","119","Kiwi.jpg","37","1","761"
"4","4","retrieval","new_objects","120","Hat_Baseball.jpg","37","1","578"
"4","4","retrieval","old_objects","121","Sieve_TopView.jpg","37","0","674"
"4","4","retrieval","old_objects","123","BuildingChinese.jpg","36","1","965"
"4","4","retrieval","new_objects","124","Leaf_Green.jpg","37","1","676"
"4","4","retrieval","old_objects","125","CinderBlock.jpg","36","1","762"
"4","4","retrieval","old_objects","126","Organ.jpg","36","1","1146"
"4","4","retrieval","old_objects","127","Pitcher.jpg","36","1","611"
"4","4","retrieval","old_objects","128","PaperTowel_Brown.jpg","37","0","697"
"4","4","retrieval","old_objects","129","Tree_Fir.jpg","36","1","748"
"4","4","retrieval","new_objects","130","TestTube_MultipleAndRack.jpg","37","1","598"
"4","4","retrieval","new_objects","131","Truck_Army.jpg","37","1","621"
"4","4","retrieval","old_objects","132","Toy_Chicken.jpg","36","1","580"
"4","4","retrieval","old_objects","133","Boardgame_Chess.jpg","36","1","525"
"4","4","retrieval","new_objects","134","TotemPole.jpg","37","1","648"
"4","4","retrieval","new_objects","135","Sign_Open.jpg","37","1","685"
"4","4","retrieval","new_objects","136","Stethoscope.jpg","37","1","722"
"4","4","retrieval","old_objects","137","Flower_Crane.jpg","36","1","716"
"4","4","retrieval","new_objects","138","DentalProbe.jpg","36","0","646"
"4","4","retrieval","old_objects","139","Flags_CheckeredRacing.jpg","36","1","1028"
"4","4","retrieval","old_objects","140","Lock_Bike.jpg","36","1","873"
"4","4","retrieval","old_objects","141","Toy_Octopus.jpg","36","1","845"
"4","4","retrieval","old_objects","142","Basket_Bread.jpg","37","0","643"
"4","4","retrieval","new_objects","143","Decoration_WallOrnament.jpg","37","1","649"
"4","4","retrieval","old_objects","144","sign_traffic.jpg","36","1","630"
"4","4","retrieval","new_objects","145","Bottle_Oil.jpg","37","1","684"
"4","4","retrieval","new_objects","146","Cheesegrater_Handheld.jpg","36","0","905"
"4","4","retrieval","old_objects","147","Hat_Feather.jpg","36","1","674"
"4","4","retrieval","old_objects","148","Table_Set.jpg","36","1","671"
"4","4","retrieval","old_objects","149","TailLight.jpg","36","1","684"
"4","4","retrieval","new_objects","150","HerbsInBag.jpg","37","1","783"
"4","4","retrieval","new_objects","151","Egg_Cup.jpg","37","1","943"
"4","4","retrieval","old_objects","152","Notepad_WithPen.jpg","36","1","656"
"4","4","retrieval","old_objects","153","PulleyWooden.jpg","36","1","693"
"4","4","retrieval","new_objects","154","Light_Siren.jpg","36","0","561"
"4","4","retrieval","new_objects","155","HorseshoeCrab.jpg","37","1","1066"
"4","4","retrieval","new_objects","156","Hat_Police.jpg","37","1","670"
"4","4","retrieval","old_objects","157","Makeup_Foundation.jpg","37","0","625"
"4","4","retrieval","old_objects","158","Microscope.jpg","37","0","601"
"4","4","retrieval","old_objects","159","Glass_Ball.jpg","37","0","648"
"4","4","retrieval","old_objects","160","Bird_Cardinal.jpg","36","1","525"
"4","4","retrieval","old_objects","161","Fryingpan.jpg","36","1","641"
"4","4","retrieval","old_objects","162","Shoe_Men.jpg","36","1","583"
"4","4","retrieval","new_objects","163","Boat_Sail.jpg","37","1","775"
"4","4","retrieval","old_objects","164","MetalDetector.jpg","36","1","759"
"4","4","retrieval","new_objects","165","Shoes_Mould.jpg","37","1","872"
"4","4","retrieval","old_objects","166","Boat_Row.jpg","36","1","948"
"4","4","retrieval","old_objects","167","Crate_Milk.jpg","36","1","517"
"4","4","retrieval","old_objects","168","Candy_Cotton.jpg","36","1","1129"
"4","4","retrieval","old_objects","169","Ruler_Digital.jpg","36","1","696"
"4","4","retrieval","new_objects","170","Squash_Pumpkin.jpg","37","1","718"
"4","4","retrieval","new_objects","171","Cake_Wedding.jpg","37","1","662"
"4","4","retrieval","new_objects","172","Bird_Hen.jpg","37","1","716"
"4","4","retrieval","new_objects","173","fries.jpg","37","1","942"
"4","4","retrieval","new_objects","174","KitchenTools.jpg","37","1","759"
"4","4","retrieval","old_objects","175","Bottle_BubbleBlower.jpg","36","1","1281"
"4","4","retrieval","old_objects","176","Bench_Park.jpg","36","1","610"
"4","4","retrieval","old_objects","177","Paddle_Canoe.jpg","36","1","618"
"4","4","retrieval","old_objects","178","Cup_Styrofoam.jpg","36","1","1009"
"4","4","retrieval","new_objects","179","Hedgehog.jpg","37","1","782"
"4","4","retrieval","new_objects","180","Vase_Decorative.jpg","37","1","749"
"4","4","retrieval","new_objects","181","Sign_SpeedLimit30.jpg","37","1","710"
"4","4","retrieval","old_objects","182","Toy_RabbitPlushie.jpg","37","0","1058"
"4","4","retrieval","old_objects","184","Toy_Top.jpg","36","1","815"
"4","4","retrieval","old_objects","185","Backpack_Travel.jpg","36","1","693"
"4","4","retrieval","old_objects","186","Bucket_Halloween.jpg","36","1","505"
"4","4","retrieval","old_objects","187","Hook_Fish.jpg","37","0","781"
"4","4","retrieval","new_objects","188","Slide.jpg","37","1","700"
"4","4","retrieval","new_objects","189","Shirt_SportsJersey.jpg","37","1","551"
"4","4","retrieval","old_objects","190","IceCream_Popsicle.jpg","36","1","657"
"4","4","retrieval","new_objects","191","Toy_GasPump.jpg","37","1","687"
"4","4","retrieval","new_objects","192","WateringCan_PlasticDarkGreen.jpg","36","0","899"
"4","4","retrieval","old_objects","193","PropellerFan.jpg","37","0","1101"
"4","4","retrieval","old_objects","194","Golf_Bag.jpg","36","1","702"
"4","4","retrieval","new_objects","195","Nuts_Pecan.jpg","37","1","681"
"4","4","retrieval","old_objects","196","Tombstone.jpg","36","1","703"
"4","4","retrieval","new_objects","197","MannequinHead.jpg","37","1","712"
"4","4","retrieval","old_objects","198","Table_AntiqueWooden.jpg","36","1","675"
"4","4","retrieval","old_objects","199","Thermometer_Room.jpg","36","1","712"
"4","4","retrieval","new_objects","200","FuzzyDice.jpg","37","1","771"
"4","4","retrieval","new_objects","201","Earring_Hoop.jpg","36","0","707"
"4","4","retrieval","new_objects","202","BicycleOdometer.jpg","37","1","678"
"4","4","retrieval","old_objects","203","Hose_Garden.jpg","36","1","562"
"4","4","retrieval","old_objects","204","Ball_Football.jpg","37","0","660"
"4","4","retrieval","old_objects","205","Wire_ElectricalSingle.jpg","36","1","890"
"4","4","retrieval","old_objects","206","Honeycomb.jpg","37","0","1029"
"4","4","retrieval","old_objects","207","StampAndSeal.jpg","36","1","586"
"4","4","retrieval","new_objects","208","Abacus.jpg","36","0","570"
"4","4","retrieval","old_objects","209","RollingPin.jpg","36","1","755"
"4","4","retrieval","new_objects","210","Table_Side.jpg","37","1","700"
"4","4","retrieval","old_objects","211","SlideViewer.jpg","37","0","599"
"4","4","retrieval","old_objects","212","MobilityScooter.jpg","37","0","1055"
"4","4","retrieval","new_objects","213","Costume_Wizard.jpg","37","1","875"
"4","4","retrieval","old_objects","214","PhoneCase.jpg","37","0","702"
"4","4","retrieval","new_objects","215","ElectricOutlet.jpg","37","1","721"
"4","4","retrieval","old_objects","216","Tube.jpg","36","1","942"
"4","4","retrieval","new_objects","217","Snowpea.jpg","37","1","726"
"4","4","retrieval","new_objects","218","Toy_TrailerAirport.jpg","37","1","615"
"4","4","retrieval","old_objects","219","Camera_Video.jpg","37","0","958"
"4","4","retrieval","old_objects","220","Baster.jpg","36","1","622"
"4","4","retrieval","new_objects","221","NintendoWii.jpg","37","1","1101"
"4","4","retrieval","old_objects","222","Shrub_Boxwood.jpg","36","1","583"
"4","4","retrieval","new_objects","223","WatermelonSlice.jpg","37","1","630"
"4","4","retrieval","new_objects","224","GoldNugget.jpg","37","1","732"
"4","4","retrieval","new_objects","225","Statue_SouthAmerican.jpg","37","1","742"
"4","4","retrieval","old_objects","226","House_Doll.jpg","36","1","521"
"4","4","retrieval","old_objects","227","Lock_Key.jpg","36","1","1043"
"4","4","retrieval","new_objects","228","Arch_Triomphe.jpg","36","0","776"
"4","4","retrieval","old_objects","229","Sign_Caution.jpg","37","0","737"
"4","4","retrieval","new_objects","230","PaintRollTray.jpg","37","1","649"
"4","4","retrieval","new_objects","231","Desk_Office.jpg","37","1","639"
"4","4","retrieval","old_objects","232","Pants.jpg","36","1","677"
"4","4","retrieval","new_objects","233","Carabiner_Orange.jpg","37","1","905"
"4","4","retrieval","new_objects","234","PaintRoller.jpg","36","0","1083"
"4","4","retrieval","new_objects","235","Bolt.jpg","36","0","781"
"4","4","retrieval","new_objects","236","JuicerCitrus.jpg","37","1","685"
"4","4","retrieval","old_objects","237","KitchenCloth.jpg","36","1","569"
"4","4","retrieval","new_objects","238","SolderingWire.jpg","37","1","754"
"4","4","retrieval","old_objects","239","Protractor.jpg","36","1","676"
"4","4","retrieval","new_objects","240","ChiliFlakes.jpg","37","1","663"
"4","4","retrieval","old_objects","241","SlushieMachine.jpg","37","0","684"
"4","4","retrieval","new_objects","242","HDMIConnector.jpg","37","1","792"
"4","4","retrieval","new_objects","243","Bomb.jpg","37","1","783"
"4","4","retrieval","new_objects","245","PenStand.jpg","37","1","776"
"4","4","retrieval","new_objects","246","Pineapple.jpg","37","1","704"
"4","4","retrieval","old_objects","247","Elephant.jpg","36","1","531"
"4","4","retrieval","new_objects","248","Flower_Hibiscus.jpg","37","1","710"
"4","4","retrieval","old_objects","249","Tractor_Yellow.jpg","36","1","1073"
"4","4","retrieval","old_objects","250","PanCooking.jpg","36","1","628"
"4","4","retrieval","new_objects","251","Pouch_Red.jpg","37","1","835"
"4","4","retrieval","old_objects","252","Brooch_Fish.jpg","36","1","671"
"4","4","retrieval","new_objects","253","Monitor.jpg","37","1","764"
"4","4","retrieval","new_objects","254","CraneMachine.jpg","37","1","580"
"4","4","retrieval","old_objects","255","Light_Halogen.jpg","37","0","965"
"4","4","retrieval","old_objects","256","Ashtray_Cigarettes.jpg","36","1","581"
"4","4","retrieval","new_objects","257","Cannister_GasVintage.jpg","37","1","629"
"4","4","retrieval","old_objects","258","Bowl_Chopsticks.jpg","37","0","635"
"4","4","retrieval","old_objects","259","DryRack_Dishes.jpg","36","1","682"
"4","4","retrieval","new_objects","260","Mask_Happy.jpg","37","1","741"
"4","4","retrieval","new_objects","261","BicycleWheelRusty.jpg","37","1","631"
"4","4","retrieval","old_objects","262","Steam_Cleaner.jpg","37","0","749"
"4","4","retrieval","new_objects","263","Garlic_Clove.jpg","37","1","974"
"4","4","retrieval","old_objects","264","Honeydew_yellow.jpg","36","1","589"
"4","4","retrieval","new_objects","265","Switch_LightBlack.jpg","37","1","590"
"4","4","retrieval","new_objects","266","Stick_Stirring.jpg","37","1","646"
"4","4","retrieval","new_objects","267","EnglishMuffin.jpg","37","1","1020"
"4","4","retrieval","old_objects","268","Table_PingPong.jpg","37","0","818"
"4","4","retrieval","old_objects","269","Syringe_Needle.jpg","36","1","574"
"4","4","retrieval","new_objects","270","Camera_Security.jpg","36","0","1120"
"4","4","retrieval","old_objects","271","Light_Traffic.jpg","37","0","1032"
"4","4","retrieval","old_objects","272","Fortress.jpg","36","1","653"
"4","4","retrieval","old_objects","273","Saw.jpg","37","0","612"
"4","4","retrieval","old_objects","274","MeatRaw.jpg","37","0","794"
"4","4","retrieval","old_objects","275","Currants.jpg","36","1","738"
"4","4","retrieval","new_objects","276","Starfish.jpg","37","1","820"
"4","4","retrieval","old_objects","277","Desk_School.jpg","36","1","705"
"4","4","retrieval","new_objects","278","Thumbtack.jpg","37","1","773"
"4","4","retrieval","new_objects","279","RAMchip.jpg","37","1","709"
"4","4","retrieval","old_objects","280","CoolingFan_Engine.jpg","36","1","728"
"4","4","retrieval","new_objects","281","PenHolder.jpg","37","1","730"
"4","4","retrieval","new_objects","282","PaintSprayer.jpg","37","1","932"
"4","4","retrieval","old_objects","283","Swing_Porch.jpg","37","0","677"
"4","4","retrieval","new_objects","284","Hockey_Equipment.jpg","37","1","825"
"4","4","retrieval","new_objects","285","FortuneCookie.jpg","37","1","1200"
"4","4","retrieval","new_objects","286","IceCream_Chocolate.jpg","37","1","828"
"4","4","retrieval","old_objects","287","HairClip.jpg","36","1","586"
"4","4","retrieval","new_objects","288","Wardrobe.jpg","37","1","819"
"4","4","retrieval","old_objects","289","Drill.jpg","36","1","633"
"4","4","retrieval","old_objects","290","Playground.jpg","36","1","599"
"4","4","retrieval","new_objects","291","TortillaChip.jpg","37","1","638"
"4","4","retrieval","old_objects","292","Bottle_Specimen.jpg","36","1","1132"
"4","4","retrieval","new_objects","293","Jar_Canopic.jpg","37","1","941"
"4","4","retrieval","old_objects","294","Scrabble.jpg","36","1","557"
"4","4","retrieval","old_objects","295","Foam_Accoustic.jpg","36","1","527"
"4","4","retrieval","old_objects","296","Cat.jpg","36","1","586"
"4","4","retrieval","old_objects","297","MousepadAndMouse.jpg","37","0","739"
"4","4","retrieval","old_objects","298","Tribunal_Wooden.jpg","37","0","645"
"4","4","retrieval","old_objects","299","Cloud.jpg","36","1","658"
"4","4","retrieval","old_objects","300","LaundryHamper.jpg","37","0","624"
"4","4","retrieval","old_objects","301","KiddiePool.jpg","36","1","671"
"4","4","retrieval","old_objects","302","SandBagThrowGame.jpg","36","1","1132"
"4","4","retrieval","old_objects","303","Stamper.jpg","37","0","691"
"4","4","retrieval","old_objects","304","Kazoo.jpg","36","1","775"
"4","4","retrieval","new_objects","306","Trophy.jpg","37","1","677"
"4","4","retrieval","new_objects","307","Gazebo.jpg","37","1","977"
"4","4","retrieval","old_objects","308","Toy_TableSet.jpg","37","0","816"
"4","4","retrieval","new_objects","309","Chair_Rocking.jpg","37","1","654"
"4","4","retrieval","old_objects","310","Bat_Cricket.jpg","36","1","643"
"4","4","retrieval","new_objects","311","Piano_Keyboard.jpg","37","1","617"
"4","4","retrieval","new_objects","312","BasketballHoop.jpg","36","0","1200"
"4","4","retrieval","new_objects","313","Squid_Orange.jpg","37","1","683"
"4","4","retrieval","old_objects","314","TinChristmas.jpg","36","1","713"
"4","4","retrieval","old_objects","315","Instrument_African.jpg","36","1","715"
"4","4","retrieval","new_objects","316","Hat_Cowboy.jpg","37","1","694"
"4","4","retrieval","old_objects","317","Honeydew_Green.jpg","36","1","602"
"4","4","retrieval","new_objects","318","Telescope.jpg","36","0","857"
"4","4","retrieval","old_objects","319","SaltShaker.jpg","36","1","918"
"4","4","retrieval","new_objects","320","Bleachers.jpg","37","1","735"
"4","4","retrieval","new_objects","321","Fork_Fondue.jpg","36","0","1305"
"4","4","retrieval","new_objects","322","Castle_Model.jpg","37","1","841"
"4","4","retrieval","old_objects","323","Spoon_Serving.jpg","37","0","935"
"4","4","retrieval","old_objects","324","Statue_Horse.jpg","36","1","793"
"4","4","retrieval","new_objects","325","Hammock.jpg","37","1","631"
"4","4","retrieval","new_objects","326","Bed_QueenSize.jpg","37","1","637"
"4","4","retrieval","old_objects","327","Pipe_Drain.jpg","36","1","676"
"4","4","retrieval","new_objects","328","ThreeHolePunch.jpg","37","1","744"
"4","4","retrieval","old_objects","329","Toy_WinnieThePooh.jpg","36","1","610"
"4","4","retrieval","old_objects","330","Drum_Brazilan.jpg","36","1","609"
"4","4","retrieval","new_objects","331","Candy_Chocolate.jpg","37","1","625"
"4","4","retrieval","old_objects","332","CigarCutter.jpg","36","1","1056"
"4","4","retrieval","new_objects","333","Toy_JackInTheBox.jpg","37","1","779"
"4","4","retrieval","old_objects","334","Toy_Tank.jpg","36","1","620"
"4","4","retrieval","old_objects","335","Compressor.jpg","36","1","762"
"4","4","retrieval","old_objects","336","FireAlarm.jpg","36","1","875"
"4","4","retrieval","new_objects","337","Door_Green.jpg","37","1","822"
"4","4","retrieval","new_objects","338","Bread_Roll.jpg","36","0","1349"
"4","4","retrieval","old_objects","339","Sphinx.jpg","36","1","836"
"4","4","retrieval","old_objects","340","VialLab.jpg","37","0","657"
"4","4","retrieval","old_objects","341","MeatGrinder.jpg","37","0","1062"
"4","4","retrieval","old_objects","342","DonaldDuck_Toy.jpg","37","0","753"
"4","4","retrieval","old_objects","343","Ball_8.jpg","36","1","610"
"4","4","retrieval","new_objects","344","CookieCutter_Tree.jpg","37","1","690"
"4","4","retrieval","new_objects","345","Goat.jpg","37","1","894"
"4","4","retrieval","old_objects","346","Suit_Women.jpg","36","1","1025"
"4","4","retrieval","new_objects","347","Boat_Dinghy.jpg","37","1","638"
"4","4","retrieval","new_objects","348","Bag_Gym.jpg","37","1","708"
"4","4","retrieval","new_objects","349","Mitt_Oven.jpg","37","1","927"
"4","4","retrieval","new_objects","350","WagonPilgrim.jpg","37","1","1033"
"4","4","retrieval","new_objects","351","Toy_Ladybug.jpg","37","1","757"
"4","4","retrieval","new_objects","352","Brush_Winter.jpg","37","1","750"
"4","4","retrieval","old_objects","353","Flamingo_Cartoon.jpg","36","1","599"
"4","4","retrieval","new_objects","354","Keys_Bunch.jpg","37","1","927"
"4","4","retrieval","new_objects","355","WaterWell.jpg","37","1","912"
"4","4","demographics_block","gender","1","WaterWell.jpg","female","1","10880"
"4","4","demographics_block","age","1","WaterWell.jpg","32","1","10880"
"4","4","demographics_block","education","1","WaterWell.jpg","18","1","10880"
"4","4","demographics_block","left_right_handed","2","WaterWell.jpg","Right","1","5834"
"4","4","demographics_block","raceoption1","2","WaterWell.jpg","0","1","5834"
"4","4","demographics_block","raceoption2","2","WaterWell.jpg","","1","5834"
"4","4","demographics_block","raceoption3","2","WaterWell.jpg","","1","5834"
"4","4","demographics_block","raceoption4","2","WaterWell.jpg","","1","5834"
"4","4","demographics_block","raceoption5","2","WaterWell.jpg","","1","5834"
"4","4","demographics_block","raceoption6","2","WaterWell.jpg","","1","5834"
"4","4","demographics_block","raceoption7","2","WaterWell.jpg","","1","5834"
"4","4","demographics_block","raceoption8","2","WaterWell.jpg","","1","5834"
"4","4","demographics_block","raceoption9","2","WaterWell.jpg","","1","5834"
"4","4","demographics_block","raceother","2","WaterWell.jpg","","1","5834"
"4","4","demographics_block","raceother","2","WaterWell.jpg","","1","5834"
"4","4","demographics_block","english_language","2","WaterWell.jpg","Yes","1","5834"
"4","4","demographics_block","english_languageother","2","WaterWell.jpg","","1","5834"
"4","4","demographics_block","eyesight","3","WaterWell.jpg","Yes","1","6329"
"4","4","demographics_block","colorblind","3","WaterWell.jpg","No","1","6329"
"4","4","worker_id_block","worker_id_textbox","1","WaterWell.jpg","A2RGIULFG1GWF5","1","110593"
"5","5","encoding","encoding","1","Suit_Women.jpg","5","0","1846"
"5","5","encoding","encoding","2","ShotGlassTray.jpg","6","0","1616"
"5","5","encoding","encoding","3","Cranberry.jpg","2","0","1681"
"5","5","encoding","encoding","4","Toy_TableSet.jpg","1","0","1303"
"5","5","encoding","encoding","5","ButterChurn.jpg","1","0","1310"
"5","5","encoding","encoding","6","VialLab.jpg","2","0","1811"
"5","5","encoding","encoding","7","Glass_Ball.jpg","1","0","1706"
"5","5","encoding","encoding","8","Compressor.jpg","3","0","1613"
"5","5","encoding","encoding","9","CigarCutter.jpg","4","0","2104"
"5","5","encoding","encoding","10","Hat_Feather.jpg","5","0","1903"
"5","5","encoding","encoding","11","MetalDetector.jpg","4","0","1592"
"5","5","encoding","encoding","12","SandBagThrowGame.jpg","2","0","1937"
"5","5","encoding","encoding","13","Tube.jpg","1","0","1209"
"5","5","encoding","encoding","14","Steam_Cleaner.jpg","2","0","1471"
"5","5","encoding","encoding","15","Backpack_Travel.jpg","4","0","1777"
"5","5","encoding","encoding","16","Table_AntiqueWooden.jpg","5","0","1656"
"5","5","encoding","encoding","17","Candy_Cotton.jpg","4","0","1706"
"5","5","encoding","encoding","18","Pipe_Drain.jpg","1","0","1243"
"5","5","encoding","encoding","19","KiddiePool.jpg","1","0","1111"
"5","5","encoding","encoding","20","Deodorant.jpg","1","0","1158"
"5","5","encoding","encoding","21","Swing_Porch.jpg","2","0","1418"
"5","5","encoding","encoding","22","Bolt_WithNut.jpg","2","0","1711"
"5","5","encoding","encoding","23","Jug_GallonRed.jpg","3","0","1089"
"5","5","encoding","encoding","24","MobilityScooter.jpg","2","0","2126"
"5","5","encoding","encoding","25","Bench_Park.jpg","1","0","1259"
"5","5","encoding","encoding","26","TinChristmas.jpg","2","0","1862"
"5","5","encoding","encoding","27","Soap.jpg","1","0","1272"
"5","5","encoding","encoding","28","Toy_Octopus.jpg","1","0","1345"
"5","5","encoding","encoding","29","HairClip.jpg","2","0","1920"
"5","5","encoding","encoding","30","Playground.jpg","3","0","1260"
"5","5","encoding","encoding","31","Paddle_Canoe.jpg","1","0","2123"
"5","5","encoding","encoding","32","Cassette_Audio.jpg","5","0","1739"
"5","5","encoding","encoding","33","ChariotGold.jpg","3","0","1904"
"5","5","encoding","encoding","34","Mango.jpg","1","0","1073"
"5","5","encoding","encoding","35","Fryingpan.jpg","2","0","1392"
"5","5","encoding","encoding","36","Bat_Cricket.jpg","4","0","2094"
"5","5","encoding","encoding","37","Syringe_Needle.jpg","6","0","1587"
"5","5","encoding","encoding","38","Table_Set.jpg","3","0","1751"
"5","5","encoding","encoding","39","Film_Single.jpg","4","0","1634"
"5","5","encoding","encoding","40","KitchenCloth.jpg","2","0","2557"
"5","5","encoding","encoding","41","PropellerFan.jpg","4","0","1992"
"5","5","encoding","encoding","42","Toy_Chicken.jpg","1","0","1364"
"5","5","encoding","encoding","43","StockingChristmas.jpg","5","0","2357"
"5","5","encoding","encoding","44","Ashtray_Empty.jpg","3","0","2434"
"5","5","encoding","encoding","45","Bottle_Specimen.jpg","5","0","2628"
"5","5","encoding","encoding","46","Sieve_TopView.jpg","2","0","1909"
"5","5","encoding","encoding","47","StampAndSeal.jpg","3","0","1958"
"5","5","encoding","encoding","48","Ashtray_Cigarettes.jpg","2","0","1908"
"5","5","encoding","encoding","49","MousepadAndMouse.jpg","4","0","2077"
"5","5","encoding","encoding","50","Cup_Styrofoam.jpg","1","0","1694"
"5","5","encoding","encoding","51","Toy_RabbitPlushie.jpg","3","0","1664"
"5","5","encoding","encoding","52","VacuumHose.jpg","2","0","2259"
"5","5","encoding","encoding","53","Stone_Mill.jpg","3","0","2287"
"5","5","encoding","encoding","54","Microscope.jpg","6","0","2008"
"5","5","encoding","encoding","55","Pants.jpg","1","0","1567"
"5","5","encoding","encoding","56","MeatRaw.jpg","5","0","2283"
"5","5","encoding","encoding","57","Thermometer_Room.jpg","3","0","1578"
"5","5","encoding","encoding","58","Cup_sippy.jpg","1","0","1979"
"5","5","encoding","encoding","59","Basket_Bread.jpg","3","0","1568"
"5","5","encoding","encoding","60","Table_PingPong.jpg","4","0","1817"
"5","5","encoding","encoding","62","Flags_CheckeredRacing.jpg","6","0","1300"
"5","5","encoding","encoding","63","Elephant.jpg","5","0","1514"
"5","5","encoding","encoding","64","Lock_Key.jpg","3","0","1461"
"5","5","encoding","encoding","65","Boat_Row.jpg","1","0","1885"
"5","5","encoding","encoding","66","Fortress.jpg","6","0","1458"
"5","5","encoding","encoding","67","Currants.jpg","4","0","1424"
"5","5","encoding","encoding","68","Dreamcatcher.jpg","2","0","1840"
"5","5","encoding","encoding","69","Hook_Fish.jpg","3","0","1411"
"5","5","encoding","encoding","70","Spotlight.jpg","4","0","1589"
"5","5","encoding","encoding","71","Horn_French.jpg","5","0","1840"
"5","5","encoding","encoding","72","Stone_Spa.jpg","2","0","2057"
"5","5","encoding","encoding","73","Wire_ElectricalSingle.jpg","2","0","2830"
"5","5","encoding","encoding","74","Flamingo_Cartoon.jpg","3","0","2320"
"5","5","encoding","encoding","75","DonaldDuck_Toy.jpg","2","0","2805"
"5","5","encoding","encoding","76","Baster.jpg","1","0","1843"
"5","5","encoding","encoding","77","Protractor.jpg","3","0","1917"
"5","5","encoding","encoding","78","Camera_Video.jpg","5","0","1263"
"5","5","encoding","encoding","79","Crate_Milk.jpg","1","0","1259"
"5","5","encoding","encoding","80","Bird_Cardinal.jpg","2","0","1941"
"5","5","encoding","encoding","81","Bicycle_Adult.jpg","4","0","1714"
"5","5","encoding","encoding","82","BearPolar.jpg","5","0","1461"
"5","5","encoding","encoding","83","Cloud.jpg","2","0","2080"
"5","5","encoding","encoding","84","Paratrooper.jpg","4","0","1725"
"5","5","encoding","encoding","85","Ball_Football.jpg","3","0","1786"
"5","5","encoding","encoding","86","Boardgame_Chess.jpg","4","0","1533"
"5","5","encoding","encoding","87","Shoe_Men.jpg","4","0","1610"
"5","5","encoding","encoding","88","LaundryHamper.jpg","2","0","1884"
"5","5","encoding","encoding","89","TailLight.jpg","3","0","1977"
"5","5","encoding","encoding","90","Bag_Doctor.jpg","4","0","2118"
"5","5","encoding","encoding","91","SewingPin_Cushion.jpg","6","0","1931"
"5","5","encoding","encoding","92","SaltShaker.jpg","1","0","1286"
"5","5","encoding","encoding","93","Egg_Wooden.jpg","1","0","1230"
"5","5","encoding","encoding","94","Ruler_Digital.jpg","5","0","1481"
"5","5","encoding","encoding","95","Paddle_PingPong.jpg","2","0","2210"
"5","5","encoding","encoding","96","Fruit_Carambola.jpg","2","0","1927"
"5","5","encoding","encoding","97","Tree_Fir.jpg","3","0","1943"
"5","5","encoding","encoding","98","SlushieMachine.jpg","4","0","1707"
"5","5","encoding","encoding","99","Boot_Rain.jpg","2","0","2381"
"5","5","encoding","encoding","100","CuttingBoard.jpg","1","0","1282"
"5","5","encoding","encoding","101","Glass_Cup.jpg","1","0","1079"
"5","5","encoding","encoding","102","Bowl_Chopsticks.jpg","3","0","2164"
"5","5","encoding","encoding","103","Bib.jpg","2","0","1933"
"5","5","encoding","encoding","104","Lips_Real.jpg","5","0","2239"
"5","5","encoding","encoding","105","DryRack_Dishes.jpg","1","0","2546"
"5","5","encoding","encoding","106","Toolbox_Red.jpg","3","0","1758"
"5","5","encoding","encoding","107","MeatGrinder.jpg","2","0","2123"
"5","5","encoding","encoding","108","FireAlarm.jpg","6","0","2245"
"5","5","encoding","encoding","109","Toy_Tank.jpg","3","0","1790"
"5","5","encoding","encoding","110","Toy_Top.jpg","2","0","1729"
"5","5","encoding","encoding","111","Honeydew_yellow.jpg","1","0","1338"
"5","5","encoding","encoding","112","Bottle_BubbleBlower.jpg","2","0","1775"
"5","5","encoding","encoding","113","Notebook.jpg","1","0","2159"
"5","5","encoding","encoding","114","Instrument_African.jpg","3","0","1961"
"5","5","encoding","encoding","115","Table_Conference.jpg","2","0","2149"
"5","5","encoding","encoding","116","Drill.jpg","3","0","1481"
"5","5","encoding","encoding","117","Boardgame_Checkers.jpg","2","0","1546"
"5","5","encoding","encoding","118","Toolbox_BlackOpen.jpg","4","0","1718"
"5","5","encoding","encoding","119","Saw.jpg","4","0","1782"
"5","5","encoding","encoding","120","Brush_Cleaning.jpg","2","0","1908"
"5","5","encoding","encoding","121","Cat.jpg","6","0","1815"
"5","5","encoding","encoding","123","Sphinx.jpg","4","0","1447"
"5","5","encoding","encoding","124","Honeydew_Green.jpg","2","0","1254"
"5","5","encoding","encoding","125","Flower_Crane.jpg","5","0","1663"
"5","5","encoding","encoding","126","Apple_RedAndGreen.jpg","2","0","1639"
"5","5","encoding","encoding","127","Tombstone.jpg","0","0","3000"
"5","5","encoding","encoding","128","AirTank.jpg","2","0","2203"
"5","5","encoding","encoding","129","Light_Traffic.jpg","7","0","2419"
"5","5","encoding","encoding","130","PulleyWooden.jpg","2","0","1922"
"5","5","encoding","encoding","131","Ramekin.jpg","1","0","1539"
"5","5","encoding","encoding","132","Light_Halogen.jpg","3","0","1747"
"5","5","encoding","encoding","133","Makeup_Foundation.jpg","2","0","1431"
"5","5","encoding","encoding","134","Archery_Arrows.jpg","4","0","1386"
"5","5","encoding","encoding","135","Notepad_WithPen.jpg","1","0","1727"
"5","5","encoding","encoding","136","Coral.jpg","2","0","1715"
"5","5","encoding","encoding","137","WashRack.jpg","2","0","2236"
"5","5","encoding","encoding","138","House_Doll.jpg","4","0","1641"
"5","5","encoding","encoding","139","Stamper.jpg","3","0","2058"
"5","5","encoding","encoding","140","Organ.jpg","4","0","1582"
"5","5","encoding","encoding","141","PaperTowel_Brown.jpg","1","0","1571"
"5","5","encoding","encoding","142","Brooch_Fish.jpg","3","0","1695"
"5","5","encoding","encoding","143","Statue_Horse.jpg","2","0","1535"
"5","5","encoding","encoding","144","Ball_8.jpg","2","0","1395"
"5","5","encoding","encoding","145","BuildingChinese.jpg","7","0","2094"
"5","5","encoding","encoding","146","PanCooking.jpg","1","0","1818"
"5","5","encoding","encoding","147","Spoon_Serving.jpg","1","0","1350"
"5","5","encoding","encoding","148","Foam_Accoustic.jpg","1","0","1174"
"5","5","encoding","encoding","149","Shrub_Boxwood.jpg","3","0","1395"
"5","5","encoding","encoding","150","Toy_ModelMolecule.jpg","3","0","1774"
"5","5","encoding","encoding","151","Cork.jpg","2","0","1278"
"5","5","encoding","encoding","152","CinderBlock.jpg","1","0","1331"
"5","5","encoding","encoding","153","Tractor_Yellow.jpg","5","0","1556"
"5","5","encoding","encoding","154","SlideViewer.jpg","3","0","2599"
"5","5","encoding","encoding","155","Kazoo.jpg","3","0","1755"
"5","5","encoding","encoding","156","IceCream_Popsicle.jpg","4","0","1405"
"5","5","encoding","encoding","157","ButterDish.jpg","1","0","1121"
"5","5","encoding","encoding","158","Lighter_Yellow.jpg","3","0","2061"
"5","5","encoding","encoding","159","Toy_WinnieThePooh.jpg","2","0","1804"
"5","5","encoding","encoding","160","Pitcher.jpg","1","0","1720"
"5","5","encoding","encoding","161","Golf_Bag.jpg","2","0","1675"
"5","5","encoding","encoding","162","Hose_Garden.jpg","3","0","1554"
"5","5","encoding","encoding","163","HairClipper.jpg","3","0","1914"
"5","5","encoding","encoding","164","sign_traffic.jpg","6","0","1446"
"5","5","encoding","encoding","165","Desk_School.jpg","3","0","1557"
"5","5","encoding","encoding","166","RollingPin.jpg","1","0","1733"
"5","5","encoding","encoding","167","PhoneCase.jpg","1","0","1934"
"5","5","encoding","encoding","168","Scrabble.jpg","2","0","1658"
"5","5","encoding","encoding","169","Bucket_Halloween.jpg","4","0","1760"
"5","5","encoding","encoding","170","MouthGuard.jpg","2","0","1624"
"5","5","encoding","encoding","171","Honeycomb.jpg","3","0","1676"
"5","5","encoding","encoding","172","Drum_Brazilan.jpg","2","0","1656"
"5","5","encoding","encoding","173","Lock_Bike.jpg","4","0","1503"
"5","5","encoding","encoding","174","Barbecue_Gas.jpg","2","0","1950"
"5","5","encoding","encoding","175","Tribunal_Wooden.jpg","1","0","1309"
"5","5","encoding","encoding","176","Sign_Caution.jpg","6","0","1720"
"5","5","encoding","encoding","177","CoolingFan_Engine.jpg","3","0","2761"
"5","5","retrieval","old_objects","1","Drill.jpg","36","1","1078"
"5","5","retrieval","new_objects","2","GuineaPig.jpg","37","1","981"
"5","5","retrieval","old_objects","3","Toy_Octopus.jpg","36","1","882"
"5","5","retrieval","new_objects","4","TortillaChip.jpg","37","1","691"
"5","5","retrieval","old_objects","5","FireAlarm.jpg","36","1","729"
"5","5","retrieval","new_objects","6","WashingMachine.jpg","37","1","768"
"5","5","retrieval","new_objects","7","Sign_SpeedLimit30.jpg","36","0","964"
"5","5","retrieval","old_objects","8","ShotGlassTray.jpg","36","1","929"
"5","5","retrieval","new_objects","9","Box_Floral.jpg","37","1","988"
"5","5","retrieval","old_objects","10","Deodorant.jpg","36","1","815"
"5","5","retrieval","new_objects","11","Toy_BlocksWoodenPlain.jpg","37","1","1017"
"5","5","retrieval","old_objects","12","ButterChurn.jpg","36","1","1069"
"5","5","retrieval","new_objects","13","WatermelonSlice.jpg","37","1","980"
"5","5","retrieval","old_objects","14","Bucket_Halloween.jpg","36","1","860"
"5","5","retrieval","old_objects","15","Jug_GallonRed.jpg","36","1","1248"
"5","5","retrieval","new_objects","16","PaintRollTray.jpg","37","1","1057"
"5","5","retrieval","new_objects","17","Sign_NoParking.jpg","37","1","1358"
"5","5","retrieval","new_objects","18","Trophy.jpg","37","1","906"
"5","5","retrieval","old_objects","19","Stamper.jpg","36","1","895"
"5","5","retrieval","old_objects","20","Swing_Porch.jpg","36","1","656"
"5","5","retrieval","new_objects","21","Star.jpg","37","1","635"
"5","5","retrieval","old_objects","22","PulleyWooden.jpg","36","1","994"
"5","5","retrieval","old_objects","23","Stone_Spa.jpg","36","1","825"
"5","5","retrieval","new_objects","24","Toy_LambPlushie.jpg","37","1","658"
"5","5","retrieval","new_objects","25","KeyHook_Occupied.jpg","37","1","1266"
"5","5","retrieval","old_objects","26","Light_Halogen.jpg","36","1","614"
"5","5","retrieval","old_objects","27","Ball_Football.jpg","36","1","839"
"5","5","retrieval","new_objects","28","Cactus.jpg","37","1","739"
"5","5","retrieval","old_objects","29","Apple_RedAndGreen.jpg","36","1","797"
"5","5","retrieval","old_objects","30","TailLight.jpg","36","1","768"
"5","5","retrieval","old_objects","31","Backpack_Travel.jpg","36","1","810"
"5","5","retrieval","new_objects","32","Truck_Army.jpg","37","1","663"
"5","5","retrieval","old_objects","33","Honeycomb.jpg","36","1","753"
"5","5","retrieval","new_objects","34","Hedgehog.jpg","37","1","672"
"5","5","retrieval","new_objects","35","Jet.jpg","37","1","631"
"5","5","retrieval","new_objects","36","Clippers_Glass.jpg","37","1","660"
"5","5","retrieval","new_objects","37","Glass_Martini.jpg","37","1","632"
"5","5","retrieval","old_objects","38","Lips_Real.jpg","36","1","646"
"5","5","retrieval","old_objects","39","Saw.jpg","36","1","678"
"5","5","retrieval","old_objects","40","Cup_sippy.jpg","36","1","682"
"5","5","retrieval","old_objects","41","Instrument_African.jpg","36","1","663"
"5","5","retrieval","old_objects","42","Playground.jpg","36","1","573"
"5","5","retrieval","new_objects","43","Sashimi.jpg","37","1","702"
"5","5","retrieval","new_objects","44","OnionRed.jpg","37","1","693"
"5","5","retrieval","new_objects","45","DogLeash.jpg","37","1","656"
"5","5","retrieval","old_objects","46","Light_Traffic.jpg","36","1","875"
"5","5","retrieval","new_objects","47","PaperCutter.jpg","37","1","796"
"5","5","retrieval","old_objects","48","Steam_Cleaner.jpg","36","1","866"
"5","5","retrieval","new_objects","49","HardDrive.jpg","37","1","673"
"5","5","retrieval","old_objects","50","Bicycle_Adult.jpg","36","1","665"
"5","5","retrieval","old_objects","51","Tombstone.jpg","36","1","627"
"5","5","retrieval","new_objects","52","Bowl_Lemons.jpg","37","1","773"
"5","5","retrieval","old_objects","53","Bottle_Specimen.jpg","36","1","688"
"5","5","retrieval","old_objects","54","Flags_CheckeredRacing.jpg","36","1","558"
"5","5","retrieval","new_objects","55","Earring_Hoop.jpg","37","1","799"
"5","5","retrieval","new_objects","56","Jar_Canopic.jpg","37","1","587"
"5","5","retrieval","old_objects","57","IceCream_Popsicle.jpg","36","1","602"
"5","5","retrieval","new_objects","58","BicycleChain.jpg","37","1","604"
"5","5","retrieval","old_objects","59","Coral.jpg","36","1","647"
"5","5","retrieval","old_objects","60","Bottle_BubbleBlower.jpg","36","1","570"
"5","5","retrieval","new_objects","62","Nuts_Pecan.jpg","37","1","739"
"5","5","retrieval","new_objects","63","Pouch_Red.jpg","37","1","844"
"5","5","retrieval","new_objects","64","Vase_Decorative.jpg","37","1","753"
"5","5","retrieval","new_objects","65","Bed_QueenSize.jpg","37","1","528"
"5","5","retrieval","new_objects","66","Starfish.jpg","37","1","736"
"5","5","retrieval","old_objects","67","SlushieMachine.jpg","36","1","664"
"5","5","retrieval","old_objects","68","Lock_Key.jpg","36","1","584"
"5","5","retrieval","old_objects","69","RollingPin.jpg","36","1","674"
"5","5","retrieval","new_objects","70","Snowpea.jpg","37","1","568"
"5","5","retrieval","old_objects","71","Drum_Brazilan.jpg","36","1","645"
"5","5","retrieval","old_objects","72","Shoe_Men.jpg","36","1","639"
"5","5","retrieval","new_objects","73","DentalProbe.jpg","37","1","664"
"5","5","retrieval","old_objects","74","Basket_Bread.jpg","36","1","666"
"5","5","retrieval","new_objects","75","Statue_VirginMary.jpg","37","1","832"
"5","5","retrieval","old_objects","76","sign_traffic.jpg","36","1","607"
"5","5","retrieval","new_objects","77","Costume_Wizard.jpg","37","1","587"
"5","5","retrieval","old_objects","78","SewingPin_Cushion.jpg","36","1","642"
"5","5","retrieval","new_objects","79","Shirt_SportsJersey.jpg","37","1","574"
"5","5","retrieval","old_objects","80","Cork.jpg","36","1","630"
"5","5","retrieval","new_objects","81","Toy_BlocksMultiShape.jpg","37","1","709"
"5","5","retrieval","new_objects","82","Goat.jpg","37","1","630"
"5","5","retrieval","old_objects","83","Bat_Cricket.jpg","36","1","807"
"5","5","retrieval","old_objects","84","Boardgame_Chess.jpg","36","1","568"
"5","5","retrieval","new_objects","85","Eraser.jpg","37","1","597"
"5","5","retrieval","new_objects","86","Stove_Camping.jpg","37","1","722"
"5","5","retrieval","old_objects","87","TinChristmas.jpg","36","1","804"
"5","5","retrieval","new_objects","88","ControlPanel.jpg","37","1","714"
"5","5","retrieval","new_objects","89","Decoration_WallOrnament.jpg","37","1","764"
"5","5","retrieval","old_objects","90","Statue_Horse.jpg","36","1","602"
"5","5","retrieval","new_objects","91","Leaf_Green.jpg","37","1","670"
"5","5","retrieval","old_objects","92","PhoneCase.jpg","36","1","682"
"5","5","retrieval","new_objects","93","Bed_Hospital.jpg","37","1","649"
"5","5","retrieval","new_objects","94","Fork_Fondue.jpg","37","1","850"
"5","5","retrieval","new_objects","95","Squash_Pumpkin.jpg","37","1","566"
"5","5","retrieval","new_objects","96","Boat_Dinghy.jpg","37","1","605"
"5","5","retrieval","old_objects","97","MousepadAndMouse.jpg","36","1","695"
"5","5","retrieval","old_objects","98","Bird_Cardinal.jpg","36","1","591"
"5","5","retrieval","new_objects","99","FuzzyDice.jpg","37","1","640"
"5","5","retrieval","old_objects","100","Candy_Cotton.jpg","36","1","666"
"5","5","retrieval","new_objects","101","Megaphone.jpg","37","1","651"
"5","5","retrieval","new_objects","102","Bottle_Oil.jpg","37","1","731"
"5","5","retrieval","new_objects","103","Light_Siren.jpg","37","1","710"
"5","5","retrieval","new_objects","104","SoapBottle.jpg","37","1","615"
"5","5","retrieval","old_objects","105","Horn_French.jpg","36","1","693"
"5","5","retrieval","new_objects","106","Castle_Model.jpg","37","1","850"
"5","5","retrieval","old_objects","107","Paratrooper.jpg","36","1","657"
"5","5","retrieval","old_objects","108","Kazoo.jpg","36","1","705"
"5","5","retrieval","new_objects","109","Boat_Sail.jpg","37","1","599"
"5","5","retrieval","old_objects","110","Cup_Styrofoam.jpg","36","1","660"
"5","5","retrieval","old_objects","111","Ruler_Digital.jpg","36","1","548"
