"group","subject","blockcode","trialcode","trialnum","values.stimulus","response","correct","latency"
"5","5","encoding","encoding","1","Pipe.jpg","1","0","2512"
"5","5","encoding","encoding","2","Scorpion.jpg","7","0","2143"
"5","5","encoding","encoding","3","Switch_Power.jpg","0","0","3000"
"5","5","encoding","encoding","4","Statue_Buddha.jpg","3","0","1838"
"5","5","encoding","encoding","5","Hammer.jpg","1","0","1694"
"5","5","encoding","encoding","6","RickShaw.jpg","4","0","1949"
"5","5","encoding","encoding","7","Rake_Long.jpg","1","0","1461"
"5","5","encoding","encoding","8","Bread_Pita.jpg","4","0","2493"
"5","5","encoding","encoding","9","Knife_Butter.jpg","3","0","1637"
"5","5","encoding","encoding","10","Jar_Money.jpg","7","0","1909"
"5","5","encoding","encoding","11","Ladle.jpg","4","0","1502"
"5","5","encoding","encoding","12","Basket_Straw.jpg","2","0","1693"
"5","5","encoding","encoding","13","Radio_Vintage.jpg","2","0","2037"
"5","5","encoding","encoding","14","Cane_Metal.jpg","5","0","2132"
"5","5","encoding","encoding","15","Altar.jpg","4","0","2100"
"5","5","encoding","encoding","16","Vest.jpg","2","0","1556"
"5","5","encoding","encoding","17","Candleholder_Tall.jpg","1","0","1788"
"5","5","encoding","encoding","18","BicycleReflector.jpg","5","0","2436"
"5","5","encoding","encoding","19","Mirror_Makeup.jpg","2","0","1716"
"5","5","encoding","encoding","20","Corn.jpg","5","0","1812"
"5","5","encoding","encoding","21","Lips_Wax.jpg","6","0","2060"
"5","5","encoding","encoding","22","Bread_Loaf.jpg","4","0","1675"
"5","5","encoding","encoding","23","Tortilla.jpg","4","0","1890"
"5","5","encoding","encoding","24","Tape_Scotch.jpg","1","0","1962"
"5","5","encoding","encoding","25","Potato.jpg","3","0","1857"
"5","5","encoding","encoding","26","Tweezers.jpg","2","0","1416"
"5","5","encoding","encoding","27","WorldMap.jpg","1","0","1656"
"5","5","encoding","encoding","28","Cassette_Video.jpg","3","0","1887"
"5","5","encoding","encoding","29","ClothRed.jpg","2","0","1886"
"5","5","encoding","encoding","30","Stapler_Gun.jpg","4","0","1966"
"5","5","encoding","encoding","31","Chair_Student.jpg","3","0","1445"
"5","5","encoding","encoding","32","SewingMachine.jpg","5","0","1724"
"5","5","encoding","encoding","33","SoapDish.jpg","1","0","2100"
"5","5","encoding","encoding","34","Toaster_MetalSleek.jpg","4","0","1947"
"5","5","encoding","encoding","35","Aquarium.jpg","6","0","1819"
"5","5","encoding","encoding","36","CDstack.jpg","1","0","1611"
"5","5","encoding","encoding","37","CoffeeBeans.jpg","3","0","2234"
"5","5","encoding","encoding","38","Escalator.jpg","2","0","1329"
"5","5","encoding","encoding","39","Zucchini.jpg","1","0","1840"
"5","5","encoding","encoding","40","Heater_ElectricUpright.jpg","3","0","2048"
"5","5","encoding","encoding","41","Kettle.jpg","2","0","1391"
"5","5","encoding","encoding","42","Nuts_PeanutsPeeled.jpg","4","0","1990"
"5","5","encoding","encoding","43","StringBean.jpg","3","0","1557"
"5","5","encoding","encoding","44","Toy_DonkeyFur.jpg","4","0","1829"
"5","5","encoding","encoding","45","Can_Peas.jpg","1","0","1972"
"5","5","encoding","encoding","46","Machine_Arm.jpg","0","0","3000"
"5","5","encoding","encoding","47","Oars.jpg","5","0","1763"
"5","5","encoding","encoding","48","Turtle.jpg","4","0","1490"
"5","5","encoding","encoding","49","Slippers.jpg","2","0","1642"
"5","5","encoding","encoding","50","Brush_Light.jpg","1","0","1610"
"5","5","encoding","encoding","51","Can_Oblong.jpg","5","0","1761"
"5","5","encoding","encoding","52","Tape_Washi.jpg","2","0","1465"
"5","5","encoding","encoding","53","Cantaloupe.jpg","3","0","1440"
"5","5","encoding","encoding","54","Trash_Medical.jpg","6","0","1679"
"5","5","encoding","encoding","55","Dog_SaintBernard.jpg","5","0","1527"
"5","5","encoding","encoding","56","Ostrich.jpg","4","0","1574"
"5","5","encoding","encoding","57","Instrument_Nyckelharpa.jpg","6","0","1669"
"5","5","encoding","encoding","58","Airplane_Fighter.jpg","5","0","1605"
"5","5","encoding","encoding","59","Gloves_Winter.jpg","1","0","1580"
"5","5","encoding","encoding","60","Hat_Tuque.jpg","1","0","828"
"5","5","encoding","encoding","62","Fish_Rockbass.jpg","6","0","1635"
"5","5","encoding","encoding","63","Statue_Cat.jpg","4","0","2115"
"5","5","encoding","encoding","64","PlantPotted.jpg","5","0","1563"
"5","5","encoding","encoding","65","Stationary.jpg","1","0","1402"
"5","5","encoding","encoding","66","Sign_OneWay.jpg","1","0","921"
"5","5","encoding","encoding","67","Suitcase.jpg","3","0","1352"
"5","5","encoding","encoding","68","JoustingSpear.jpg","2","0","1752"
"5","5","encoding","encoding","69","Ship_Battle.jpg","4","0","2191"
"5","5","encoding","encoding","70","RecorderCassette.jpg","2","0","2030"
"5","5","encoding","encoding","71","PotatoMasher_Zigzag.jpg","1","0","1566"
"5","5","encoding","encoding","72","Ladder.jpg","4","0","1797"
"5","5","encoding","encoding","73","Mask_Buddhist.jpg","6","0","1756"
"5","5","encoding","encoding","74","Bowl_Wooden.jpg","1","0","1476"
"5","5","encoding","encoding","75","Exercise_Bike.jpg","5","0","2179"
"5","5","encoding","encoding","76","Pasta_Penne.jpg","1","0","1794"
"5","5","encoding","encoding","77","Stool_Camping.jpg","1","0","1729"
"5","5","encoding","encoding","78","EyeExamDevice.jpg","6","0","1810"
"5","5","encoding","encoding","79","Hazelnut.jpg","2","0","1473"
"5","5","encoding","encoding","80","Bulldozer.jpg","5","0","1688"
"5","5","encoding","encoding","81","DrawingCompass.jpg","4","0","1591"
"5","5","encoding","encoding","82","Bindings_Snowboard.jpg","3","0","1791"
"5","5","encoding","encoding","83","AmpMeter.jpg","5","0","1815"
"5","5","encoding","encoding","84","Pumpkin.jpg","1","0","1303"
"5","5","encoding","encoding","85","Exercise_HandTrainer.jpg","1","0","935"
"5","5","encoding","encoding","86","Pillar.jpg","2","0","1518"
"5","5","encoding","encoding","87","Pepperoni.jpg","3","0","1837"
"5","5","encoding","encoding","88","Mug_Beer.jpg","1","0","1381"
"5","5","encoding","encoding","89","AirPump.jpg","5","0","1909"
"5","5","encoding","encoding","90","Purse.jpg","2","0","1284"
"5","5","encoding","encoding","91","Thermostat_Digital.jpg","2","0","1411"
"5","5","encoding","encoding","92","Bag_Toiletry.jpg","1","0","1467"
"5","5","encoding","encoding","93","Castle_Sand.jpg","2","0","1619"
"5","5","encoding","encoding","94","Iron_Antique.jpg","5","0","1697"
"5","5","encoding","encoding","95","LumiereBeautyBeast.jpg","1","0","2049"
"5","5","encoding","encoding","96","Battery_Car.jpg","6","0","2161"
"5","5","encoding","encoding","97","DoorBolt.jpg","4","0","1576"
"5","5","encoding","encoding","98","Garlic_Whole.jpg","1","0","1281"
"5","5","encoding","encoding","99","Tomato.jpg","1","0","995"
"5","5","encoding","encoding","100","CapGraduation.jpg","6","0","2591"
"5","5","encoding","encoding","101","Decoration_Chinese.jpg","2","0","1830"
"5","5","encoding","encoding","102","ProcessorFood_Old.jpg","1","0","1454"
"5","5","encoding","encoding","103","Asparagus.jpg","1","0","1637"
"5","5","encoding","encoding","104","Shrimp.jpg","3","0","1357"
"5","5","encoding","encoding","105","Bag_Computer.jpg","2","0","1196"
"5","5","encoding","encoding","106","Stovetop.jpg","6","0","1348"
"5","5","encoding","encoding","107","Kite_Rainbow.jpg","1","0","1387"
"5","5","encoding","encoding","108","Computer_CPU.jpg","2","0","1466"
"5","5","encoding","encoding","109","Glass_Wine.jpg","1","0","1362"
"5","5","encoding","encoding","110","Canister_Oil.jpg","6","0","1713"
"5","5","encoding","encoding","111","Jug_ClayAncient.jpg","4","0","1800"
"5","5","encoding","encoding","112","Iguana.jpg","5","0","1320"
"5","5","encoding","encoding","113","Toy_DinosaurBrontosaurus.jpg","4","0","1695"
"5","5","encoding","encoding","114","SpinningWheel.jpg","2","0","1615"
"5","5","encoding","encoding","115","LawnMower.jpg","7","0","1574"
"5","5","encoding","encoding","116","Ship_Cruise.jpg","7","0","1166"
"5","5","encoding","encoding","117","Bed_ChildBirch.jpg","5","0","1661"
"5","5","encoding","encoding","118","Toy_MerryGoRound.jpg","1","0","1404"
"5","5","encoding","encoding","119","Pretzel_Sticks.jpg","1","0","1115"
"5","5","encoding","encoding","120","TubeRing.jpg","7","0","1683"
"5","5","encoding","encoding","121","NeedlesAcupuncture.jpg","5","0","1747"
"5","5","encoding","encoding","123","Fence_ChainLink.jpg","4","0","1797"
"5","5","encoding","encoding","124","Light_PostIsolated.jpg","3","0","1484"
"5","5","encoding","encoding","125","Fence_Wooden.jpg","2","0","1380"
"5","5","encoding","encoding","126","Gun_Nerf.jpg","6","0","2035"
"5","5","encoding","encoding","127","Cucumber.jpg","1","0","1386"
"5","5","encoding","encoding","128","OrigamiPaper.jpg","4","0","1826"
"5","5","encoding","encoding","129","Clamp.jpg","5","0","1657"
"5","5","encoding","encoding","130","Sieve_SideView.jpg","1","0","1280"
"5","5","encoding","encoding","131","BunsenBurner.jpg","5","0","1543"
"5","5","encoding","encoding","132","Oneholepunch.jpg","4","0","1520"
"5","5","encoding","encoding","133","MalletJudge.jpg","6","0","1663"
"5","5","encoding","encoding","134","LifeJacket_BlueYellow.jpg","5","0","1662"
"5","5","encoding","encoding","135","Toy_Drill.jpg","4","0","1622"
"5","5","encoding","encoding","136","MortarPestle_BlackStone.jpg","2","0","2189"
"5","5","encoding","encoding","137","Freezer.jpg","1","0","1812"
"5","5","encoding","encoding","138","Camera_ProfessionalFilm.jpg","5","0","1636"
"5","5","encoding","encoding","139","SledgeHammer.jpg","3","0","1667"
"5","5","encoding","encoding","140","Tray_Wooden.jpg","1","0","1346"
"5","5","encoding","encoding","141","Toy_Turtle.jpg","1","0","1314"
"5","5","encoding","encoding","142","Cup_Fruits.jpg","5","0","1610"
"5","5","encoding","encoding","143","Jacket_Jean.jpg","3","0","1457"
"5","5","encoding","encoding","144","CandyDispenser.jpg","2","0","1312"
"5","5","encoding","encoding","145","SnowmanDecor.jpg","5","0","1672"
"5","5","encoding","encoding","146","Jar_Cotton.jpg","1","0","1519"
"5","5","encoding","encoding","147","Lollipop_Rainbow.jpg","4","0","1542"
"5","5","encoding","encoding","148","Scythe.jpg","7","0","1886"
"5","5","encoding","encoding","149","Sushi.jpg","1","0","1564"
"5","5","encoding","encoding","150","Drink_Green.jpg","2","0","1324"
"5","5","encoding","encoding","151","Knee.jpg","3","0","1828"
"5","5","encoding","encoding","152","Scarecrow.jpg","2","0","1531"
"5","5","encoding","encoding","153","Telephone_TinCan.jpg","3","0","1571"
"5","5","encoding","encoding","154","Pricegun.jpg","4","0","1754"
"5","5","encoding","encoding","155","Jacket_Suit.jpg","1","0","1322"
"5","5","encoding","encoding","156","Amp.jpg","3","0","1361"
"5","5","encoding","encoding","157","Cheese_Platter.jpg","2","0","1584"
"5","5","encoding","encoding","158","RollerBlade.jpg","6","0","1760"
"5","5","encoding","encoding","159","Thermos_MetalSleek.jpg","2","0","1485"
"5","5","encoding","encoding","160","GranolaBar.jpg","1","0","1543"
"5","5","encoding","encoding","161","Alfalfa.jpg","2","0","1478"
"5","5","encoding","encoding","162","TigerWhite.jpg","7","0","1662"
"5","5","encoding","encoding","163","Jug_Wicker.jpg","1","0","1268"
"5","5","encoding","encoding","164","BicycleSeat.jpg","4","0","1772"
"5","5","encoding","encoding","165","TimerKitchen.jpg","1","0","1363"
"5","5","encoding","encoding","166","TowelRack_Brown.jpg","1","0","1179"
"5","5","encoding","encoding","167","Fruit_Orange.jpg","2","0","1266"
"5","5","encoding","encoding","168","Radio_Antique.jpg","3","0","1586"
"5","5","encoding","encoding","169","Olives.jpg","2","0","1306"
"5","5","encoding","encoding","170","Radio_Modern.jpg","3","0","1424"
"5","5","encoding","encoding","171","Flower_Daisy.jpg","5","0","1552"
"5","5","encoding","encoding","172","Basket_Firewood.jpg","2","0","1471"
"5","5","encoding","encoding","173","Chainsaw.jpg","7","0","1663"
"5","5","encoding","encoding","174","Nightstand.jpg","2","0","1359"
"5","5","encoding","encoding","175","ScannerShoplifting.jpg","3","0","1422"
"5","5","encoding","encoding","176","Clothespin_Beige.jpg","1","0","1566"
"5","5","encoding","encoding","177","Lens_ColourFilter.jpg","4","0","1878"
"5","5","retrieval","new_objects","1","Ball_Tennis.jpg","37","1","1309"
"5","5","retrieval","old_objects","2","Drink_Green.jpg","36","1","696"
"5","5","retrieval","old_objects","3","Pillar.jpg","36","1","661"
"5","5","retrieval","new_objects","4","Faucet.jpg","36","0","975"
"5","5","retrieval","new_objects","5","TireRims.jpg","37","1","814"
"5","5","retrieval","new_objects","6","Boots_KneeHigh.jpg","37","1","781"
"5","5","retrieval","old_objects","7","Chainsaw.jpg","36","1","702"
"5","5","retrieval","old_objects","8","Scarecrow.jpg","36","1","666"
"5","5","retrieval","new_objects","9","Crab.jpg","37","1","861"
"5","5","retrieval","new_objects","10","Mug_Travel.jpg","37","1","975"
"5","5","retrieval","old_objects","11","Bread_Loaf.jpg","36","1","696"
"5","5","retrieval","new_objects","12","Vase_EarthToned.jpg","37","1","1015"
"5","5","retrieval","new_objects","13","MonaLisa.jpg","37","1","663"
"5","5","retrieval","old_objects","14","Vest.jpg","36","1","740"
"5","5","retrieval","old_objects","15","LifeJacket_BlueYellow.jpg","36","1","773"
"5","5","retrieval","new_objects","16","PocketKnife.jpg","37","1","851"
"5","5","retrieval","new_objects","17","Stepper.jpg","36","0","1015"
"5","5","retrieval","new_objects","18","Awning.jpg","37","1","699"
"5","5","retrieval","old_objects","19","Sieve_SideView.jpg","36","1","784"
"5","5","retrieval","new_objects","20","Bucket_WoodenLight.jpg","37","1","820"
"5","5","retrieval","old_objects","21","CapGraduation.jpg","37","0","786"
"5","5","retrieval","new_objects","22","Puzzle_Tree.jpg","37","1","729"
"5","5","retrieval","new_objects","23","Condom.jpg","37","1","739"
"5","5","retrieval","old_objects","24","RollerBlade.jpg","36","1","653"
"5","5","retrieval","old_objects","25","Switch_Power.jpg","36","1","865"
"5","5","retrieval","old_objects","26","TowelRack_Brown.jpg","36","1","741"
"5","5","retrieval","new_objects","27","Arch.jpg","37","1","731"
"5","5","retrieval","new_objects","28","Ship_Model.jpg","37","1","648"
"5","5","retrieval","new_objects","29","Tray_Metal.jpg","37","1","741"
"5","5","retrieval","old_objects","30","LawnMower.jpg","36","1","932"
"5","5","retrieval","new_objects","31","Hat_Sheriff.jpg","37","1","702"
"5","5","retrieval","old_objects","32","Thermos_MetalSleek.jpg","36","1","745"
"5","5","retrieval","new_objects","33","Mask_African.jpg","37","1","738"
"5","5","retrieval","old_objects","34","SnowmanDecor.jpg","36","1","731"
"5","5","retrieval","new_objects","35","Chair_Deck.jpg","37","1","707"
"5","5","retrieval","old_objects","36","Rake_Long.jpg","36","1","1083"
"5","5","retrieval","old_objects","37","Iron_Antique.jpg","36","1","900"
"5","5","retrieval","new_objects","38","Platter_Vegetables.jpg","37","1","980"
"5","5","retrieval","new_objects","39","Dolly.jpg","37","1","819"
"5","5","retrieval","old_objects","40","Jar_Money.jpg","36","1","677"
"5","5","retrieval","new_objects","41","PickupTruck.jpg","37","1","658"
"5","5","retrieval","new_objects","42","BoxTrailer.jpg","37","1","695"
"5","5","retrieval","new_objects","43","Toy_SandRake.jpg","37","1","619"
"5","5","retrieval","new_objects","44","Key_Car.jpg","37","1","1005"
"5","5","retrieval","new_objects","45","Chicken_FriedWing.jpg","37","1","731"
"5","5","retrieval","old_objects","46","EyeExamDevice.jpg","36","1","898"
"5","5","retrieval","new_objects","47","Rope_Manila.jpg","37","1","702"
"5","5","retrieval","old_objects","48","PotatoMasher_Zigzag.jpg","36","1","903"
"5","5","retrieval","new_objects","49","Bucket_Rusty.jpg","37","1","781"
"5","5","retrieval","old_objects","50","Stovetop.jpg","36","1","820"
"5","5","retrieval","new_objects","51","Pillow_Heart.jpg","37","1","690"
"5","5","retrieval","old_objects","52","Bag_Computer.jpg","36","1","982"
"5","5","retrieval","new_objects","53","Broom_Short.jpg","37","1","782"
"5","5","retrieval","new_objects","54","Toolbox_Old.jpg","37","1","859"
"5","5","retrieval","old_objects","55","Gun_Nerf.jpg","36","1","735"
"5","5","retrieval","new_objects","56","Stamp.jpg","37","1","728"
"5","5","retrieval","new_objects","57","Clock_Radioalarm.jpg","37","1","817"
"5","5","retrieval","new_objects","58","Shrub_Cedar.jpg","37","1","861"
"5","5","retrieval","old_objects","59","Cane_Metal.jpg","36","1","856"
"5","5","retrieval","old_objects","60","Pumpkin.jpg","36","1","693"
"5","5","retrieval","old_objects","62","Clothespin_Beige.jpg","36","1","1216"
"5","5","retrieval","new_objects","63","Bird_Parrot.jpg","37","1","663"
"5","5","retrieval","new_objects","64","Easel.jpg","37","1","660"
"5","5","retrieval","old_objects","65","Cantaloupe.jpg","36","1","776"
"5","5","retrieval","old_objects","66","Bulldozer.jpg","37","0","972"
"5","5","retrieval","old_objects","67","RickShaw.jpg","36","1","889"
"5","5","retrieval","new_objects","68","Inukshuk.jpg","37","1","771"
"5","5","retrieval","old_objects","69","BicycleSeat.jpg","36","1","849"
"5","5","retrieval","new_objects","70","Axe.jpg","37","1","950"
"5","5","retrieval","new_objects","71","Dress_Party.jpg","37","1","664"
"5","5","retrieval","new_objects","72","Statue_Jesus.jpg","37","1","674"
"5","5","retrieval","old_objects","73","Tape_Scotch.jpg","36","1","812"
"5","5","retrieval","old_objects","74","Ladle.jpg","36","1","817"
"5","5","retrieval","old_objects","75","Radio_Vintage.jpg","36","1","743"
"5","5","retrieval","old_objects","76","Ship_Cruise.jpg","36","1","854"
"5","5","retrieval","old_objects","77","Brush_Light.jpg","36","1","809"
"5","5","retrieval","old_objects","78","Iguana.jpg","36","1","735"
"5","5","retrieval","old_objects","79","Radio_Modern.jpg","36","1","744"
"5","5","retrieval","new_objects","80","Clock_Interior.jpg","37","1","697"
"5","5","retrieval","new_objects","81","Bucket_WoodenDark.jpg","36","0","779"
"5","5","retrieval","new_objects","82","DVDPlayer.jpg","37","1","857"
"5","5","retrieval","old_objects","83","BicycleReflector.jpg","36","1","943"
"5","5","retrieval","old_objects","84","Purse.jpg","36","1","736"
"5","5","retrieval","old_objects","85","Bowl_Wooden.jpg","36","1","666"
"5","5","retrieval","old_objects","86","GranolaBar.jpg","36","1","703"
"5","5","retrieval","old_objects","87","Basket_Firewood.jpg","36","1","677"
"5","5","retrieval","old_objects","88","Pretzel_Sticks.jpg","36","1","776"
"5","5","retrieval","new_objects","89","Noisemaker_Streamers.jpg","37","1","669"
"5","5","retrieval","new_objects","90","RadioactiveContainer.jpg","37","1","729"
"5","5","retrieval","old_objects","91","Mirror_Makeup.jpg","36","1","710"
"5","5","retrieval","new_objects","92","Box_Staples.jpg","37","1","933"
"5","5","retrieval","old_objects","93","NeedlesAcupuncture.jpg","36","1","663"
"5","5","retrieval","new_objects","94","GiftBow.jpg","37","1","699"
"5","5","retrieval","old_objects","95","Machine_Arm.jpg","36","1","860"
"5","5","retrieval","new_objects","96","Mitt_Blue.jpg","37","1","710"
"5","5","retrieval","old_objects","97","Hat_Tuque.jpg","36","1","933"
"5","5","retrieval","new_objects","98","Avocado.jpg","37","1","900"
"5","5","retrieval","new_objects","99","Makeup_Mascara.jpg","37","1","716"
"5","5","retrieval","old_objects","100","CandyDispenser.jpg","36","1","860"
"5","5","retrieval","new_objects","101","Lilypad.jpg","37","1","736"
"5","5","retrieval","new_objects","102","Bottle_Bleach.jpg","37","1","689"
"5","5","retrieval","new_objects","103","Dragonfly.jpg","37","1","692"
"5","5","retrieval","new_objects","104","Mat_Car.jpg","36","0","972"
"5","5","retrieval","new_objects","105","Rag.jpg","36","0","1125"
"5","5","retrieval","old_objects","106","Knee.jpg","36","1","695"
"5","5","retrieval","old_objects","107","Olives.jpg","36","1","737"
"5","5","retrieval","new_objects","108","Golf_Club.jpg","37","1","820"
"5","5","retrieval","old_objects","109","Jug_ClayAncient.jpg","36","1","903"
"5","5","retrieval","old_objects","110","Toy_DonkeyFur.jpg","36","1","729"
"5","5","retrieval","old_objects","111","Lips_Wax.jpg","36","1","699"
"5","5","retrieval","new_objects","112","Shorts_Sports.jpg","37","1","742"
"5","5","retrieval","old_objects","113","AirPump.jpg","37","0","773"
"5","5","retrieval","new_objects","114","Mailbox_Community.jpg","37","1","812"
"5","5","retrieval","new_objects","115","Bottle_Blue.jpg","37","1","777"
"5","5","retrieval","old_objects","116","Mask_Buddhist.jpg","36","1","736"
"5","5","retrieval","new_objects","117","Sandwich_Ham.jpg","37","1","768"
"5","5","retrieval","old_objects","118","Canister_Oil.jpg","36","1","1020"
"5","5","retrieval","new_objects","119","PeriodicTable.jpg","37","1","808"
"5","5","retrieval","old_objects","120","Computer_CPU.jpg","36","1","773"
"5","5","retrieval","new_objects","121","Bag_Saline.jpg","37","1","771"
"5","5","retrieval","new_objects","123","Rock_Agate.jpg","37","1","790"
"5","5","retrieval","old_objects","124","LumiereBeautyBeast.jpg","36","1","890"
"5","5","retrieval","new_objects","125","Oyster.jpg","37","1","772"
"5","5","retrieval","old_objects","126","Cup_Fruits.jpg","36","1","770"
"5","5","retrieval","new_objects","127","Guitar_Acoustic.jpg","37","1","1084"
"5","5","retrieval","old_objects","128","Lollipop_Rainbow.jpg","36","1","704"
"5","5","retrieval","new_objects","129","Carousel copy.jpg","36","0","927"
"5","5","retrieval","old_objects","130","Kettle.jpg","37","0","736"
"5","5","retrieval","new_objects","131","Leek.jpg","37","1","768"
"5","5","retrieval","old_objects","132","Escalator.jpg","37","0","1059"
"5","5","retrieval","old_objects","133","Castle_Sand.jpg","36","1","853"
"5","5","retrieval","new_objects","134","Archery_ArrowsBows.jpg","37","1","808"
"5","5","retrieval","old_objects","135","Suitcase.jpg","36","1","773"
"5","5","retrieval","old_objects","136","Jar_Cotton.jpg","36","1","811"
"5","5","retrieval","new_objects","137","SolderingIron.jpg","37","1","737"
"5","5","retrieval","old_objects","138","Nuts_PeanutsPeeled.jpg","36","1","746"
"5","5","retrieval","old_objects","139","Pepperoni.jpg","36","1","699"
"5","5","retrieval","new_objects","140","Toy_Helicopter.jpg","37","1","820"
"5","5","retrieval","old_objects","141","Pipe.jpg","37","0","680"
"5","5","retrieval","new_objects","142","Cup_Latte.jpg","37","1","739"
"5","5","retrieval","new_objects","143","Seashell_AlternateTellin.jpg","37","1","692"
"5","5","retrieval","old_objects","144","Statue_Cat.jpg","36","1","773"
"5","5","retrieval","old_objects","145","Exercise_Bike.jpg","36","1","811"
"5","5","retrieval","old_objects","146","Oneholepunch.jpg","36","1","984"
"5","5","retrieval","old_objects","147","StringBean.jpg","36","1","743"
"5","5","retrieval","new_objects","148","Harmonica.jpg","37","1","736"
"5","5","retrieval","new_objects","149","Knife_Kitchen.jpg","37","1","701"
"5","5","retrieval","new_objects","150","Bullet.jpg","37","1","727"
"5","5","retrieval","new_objects","151","Keychain_Metal.jpg","37","1","657"
"5","5","retrieval","new_objects","152","CartonEggs.jpg","37","1","694"
"5","5","retrieval","new_objects","153","Drum_Conga.jpg","37","1","815"
"5","5","retrieval","old_objects","154","Ostrich.jpg","36","1","701"
"5","5","retrieval","old_objects","155","SoapDish.jpg","36","1","822"
"5","5","retrieval","old_objects","156","Toy_MerryGoRound.jpg","36","1","889"
"5","5","retrieval","old_objects","157","Toy_DinosaurBrontosaurus.jpg","36","1","692"
"5","5","retrieval","old_objects","158","Flower_Daisy.jpg","36","1","655"
"5","5","retrieval","new_objects","159","Sign_HumpBridgeAhead.jpg","37","1","652"
"5","5","retrieval","old_objects","160","Amp.jpg","36","1","863"
"5","5","retrieval","old_objects","161","CoffeeBeans.jpg","36","1","817"
"5","5","retrieval","old_objects","162","Dog_SaintBernard.jpg","36","1","822"
"5","5","retrieval","old_objects","163","DoorBolt.jpg","36","1","809"
"5","5","retrieval","new_objects","164","Toy_BlocksPlastic Colourful.jpg","37","1","814"
"5","5","retrieval","new_objects","165","Bottle_Plastic.jpg","37","1","1055"
"5","5","retrieval","old_objects","166","Trash_Medical.jpg","36","1","809"
"5","5","retrieval","new_objects","167","Oven.jpg","37","1","735"
"5","5","retrieval","new_objects","168","Heelpad.jpg","37","1","806"
"5","5","retrieval","old_objects","169","Pricegun.jpg","36","1","969"
"5","5","retrieval","old_objects","170","Glass_Wine.jpg","36","1","784"
"5","5","retrieval","new_objects","171","WaterColorPaintset.jpg","37","1","664"
"5","5","retrieval","old_objects","172","Heater_ElectricUpright.jpg","36","1","1252"
"5","5","retrieval","old_objects","173","Light_PostIsolated.jpg","36","1","744"
"5","5","retrieval","old_objects","174","Airplane_Fighter.jpg","36","1","697"
"5","5","retrieval","new_objects","175","Peeler.jpg","37","1","779"
"5","5","retrieval","new_objects","176","Tripod.jpg","37","1","738"
"5","5","retrieval","old_objects","177","BunsenBurner.jpg","36","1","1006"
"5","5","retrieval","old_objects","178","Nightstand.jpg","36","1","771"
"5","5","retrieval","new_objects","179","GasBurner.jpg","37","1","849"
"5","5","retrieval","new_objects","180","GatedEntrance.jpg","37","1","820"
"5","5","retrieval","new_objects","181","NailPolish.jpg","37","1","729"
"5","5","retrieval","new_objects","182","ComputerKeyboard_Backspace.jpg","37","1","737"
"5","5","retrieval","old_objects","184","Basket_Straw.jpg","36","1","1058"
"5","5","retrieval","new_objects","185","Bone.jpg","37","1","734"
"5","5","retrieval","new_objects","186","Partition.jpg","37","1","726"
"5","5","retrieval","old_objects","187","Freezer.jpg","36","1","814"
"5","5","retrieval","new_objects","188","Chicken_Dinner.jpg","37","1","779"
"5","5","retrieval","old_objects","189","Scythe.jpg","36","1","1054"
"5","5","retrieval","old_objects","190","Sushi.jpg","36","1","768"
"5","5","retrieval","new_objects","191","Tray_Medical.jpg","37","1","727"
"5","5","retrieval","new_objects","192","Book_Paper.jpg","37","1","710"
"5","5","retrieval","new_objects","193","Corkscrew.jpg","37","1","774"
"5","5","retrieval","new_objects","194","Backpack_Suitcase.jpg","37","1","983"
"5","5","retrieval","new_objects","195","Box_Wine.jpg","37","1","821"
"5","5","retrieval","new_objects","196","Pear_Yellow.jpg","37","1","730"
"5","5","retrieval","old_objects","197","TubeRing.jpg","36","1","699"
"5","5","retrieval","old_objects","198","ProcessorFood_Old.jpg","36","1","860"
"5","5","retrieval","old_objects","199","Pasta_Penne.jpg","36","1","735"
"5","5","retrieval","new_objects","200","Spoons_MeasuringAttached.jpg","37","1","767"
"5","5","retrieval","old_objects","201","Tweezers.jpg","36","1","703"
"5","5","retrieval","old_objects","202","ClothRed.jpg","36","1","745"
"5","5","retrieval","old_objects","203","Oars.jpg","37","0","777"
"5","5","retrieval","new_objects","204","Box_FirstAidOpen.jpg","37","1","696"
"5","5","retrieval","new_objects","205","Lettuce_Romaine.jpg","37","1","699"
"5","5","retrieval","old_objects","206","Camera_ProfessionalFilm.jpg","36","1","872"
"5","5","retrieval","old_objects","207","Toy_Turtle.jpg","36","1","1046"
"5","5","retrieval","old_objects","208","Tomato.jpg","36","1","660"
"5","5","retrieval","new_objects","209","Toy_StackingRing.jpg","37","1","814"
"5","5","retrieval","old_objects","210","Toaster_MetalSleek.jpg","36","1","908"
"5","5","retrieval","old_objects","211","MortarPestle_BlackStone.jpg","36","1","1128"
"5","5","retrieval","old_objects","212","Statue_Buddha.jpg","36","1","697"
"5","5","retrieval","new_objects","213","TowelRack_Metal.jpg","37","1","858"
"5","5","retrieval","new_objects","214","Shark_GreatWhite.jpg","37","1","733"
"5","5","retrieval","old_objects","215","Exercise_HandTrainer.jpg","36","1","1097"
"5","5","retrieval","new_objects","216","CoolingFan_Engine2.jpg","37","1","976"
"5","5","retrieval","new_objects","217","Cougar.jpg","37","1","866"
"5","5","retrieval","new_objects","218","PedestalGreek.jpg","37","1","663"
"5","5","retrieval","new_objects","219","Dresser.jpg","37","1","1369"
"5","5","retrieval","old_objects","220","Fence_Wooden.jpg","36","1","784"
"5","5","retrieval","old_objects","221","Altar.jpg","36","1","743"
"5","5","retrieval","new_objects","222","Cheque.jpg","37","1","854"
"5","5","retrieval","old_objects","223","Slippers.jpg","37","0","706"
"5","5","retrieval","old_objects","224","Potato.jpg","36","1","771"
"5","5","retrieval","new_objects","225","Shoes_WomenBoots.jpg","37","1","820"
"5","5","retrieval","old_objects","226","Can_Oblong.jpg","36","1","903"
"5","5","retrieval","new_objects","227","Licorice.jpg","37","1","807"
"5","5","retrieval","old_objects","228","OrigamiPaper.jpg","36","1","704"
"5","5","retrieval","old_objects","229","Fish_Rockbass.jpg","36","1","927"
"5","5","retrieval","new_objects","230","LintRemover.jpg","37","1","1090"
"5","5","retrieval","old_objects","231","Fence_ChainLink.jpg","36","1","890"
"5","5","retrieval","new_objects","232","Toys_Lego.jpg","37","1","930"
"5","5","retrieval","old_objects","233","Asparagus.jpg","37","0","1014"
"5","5","retrieval","old_objects","234","Jacket_Jean.jpg","36","1","700"
"5","5","retrieval","old_objects","235","AmpMeter.jpg","36","1","782"
"5","5","retrieval","new_objects","236","Toy_RockingHorseBlack.jpg","37","1","938"
"5","5","retrieval","old_objects","237","Alfalfa.jpg","36","1","848"
"5","5","retrieval","old_objects","238","Radio_Antique.jpg","36","1","870"
"5","5","retrieval","old_objects","239","Ship_Battle.jpg","37","0","903"
"5","5","retrieval","old_objects","240","Bindings_Snowboard.jpg","36","1","768"
"5","5","retrieval","new_objects","241","Walker_Blue.jpg","36","0","687"
"5","5","retrieval","old_objects","242","Knife_Butter.jpg","36","1","796"
"5","5","retrieval","new_objects","243","StreetSweeper.jpg","37","1","777"
"5","5","retrieval","old_objects","245","Shrimp.jpg","36","1","811"
"5","5","retrieval","new_objects","246","Toy_Motorcycle.jpg","37","1","972"
"5","5","retrieval","old_objects","247","Cassette_Video.jpg","36","1","810"
"5","5","retrieval","old_objects","248","Chair_Student.jpg","36","1","854"
"5","5","retrieval","old_objects","249","Telephone_TinCan.jpg","36","1","768"
"5","5","retrieval","old_objects","250","Hammer.jpg","36","1","676"
"5","5","retrieval","new_objects","251","Bucket_Ice.jpg","37","1","813"
"5","5","retrieval","old_objects","252","Cheese_Platter.jpg","36","1","1054"
"5","5","retrieval","new_objects","253","Brush_Toilet.jpg","37","1","809"
"5","5","retrieval","old_objects","254","Scorpion.jpg","36","1","1010"
"5","5","retrieval","old_objects","255","Gloves_Winter.jpg","36","1","696"
"5","5","retrieval","new_objects","256","Milkshake_StrawberryStraw.jpg","37","1","778"
"5","5","retrieval","old_objects","257","Ladder.jpg","36","1","657"
"5","5","retrieval","old_objects","258","Instrument_Nyckelharpa.jpg","37","0","1020"
"5","5","retrieval","old_objects","259","Zucchini.jpg","36","1","745"
"5","5","retrieval","new_objects","260","OvenElement.jpg","37","1","711"
"5","5","retrieval","new_objects","261","Case_WoodenOrnate.jpg","37","1","815"
"5","5","retrieval","old_objects","262","Bread_Pita.jpg","36","1","740"
"5","5","retrieval","new_objects","263","ChalkLineTool.jpg","37","1","1008"
"5","5","retrieval","old_objects","264","TigerWhite.jpg","36","1","852"
"5","5","retrieval","new_objects","265","Stick_Drum.jpg","37","1","806"
"5","5","retrieval","old_objects","266","DrawingCompass.jpg","36","1","731"
"5","5","retrieval","new_objects","267","SpiderWeb.jpg","37","1","937"
"5","5","retrieval","old_objects","268","MalletJudge.jpg","36","1","808"
"5","5","retrieval","new_objects","269","DentalFloss.jpg","37","1","694"
"5","5","retrieval","new_objects","270","Origami_Boat.jpg","37","1","657"
"5","5","retrieval","old_objects","271","Kite_Rainbow.jpg","36","1","693"
"5","5","retrieval","old_objects","272","Aquarium.jpg","36","1","814"
"5","5","retrieval","new_objects","273","Phone_Flip.jpg","36","0","1055"
"5","5","retrieval","old_objects","274","CDstack.jpg","37","0","651"
"5","5","retrieval","new_objects","275","Neckrest.jpg","37","1","1003"
"5","5","retrieval","old_objects","276","Clamp.jpg","36","1","902"
"5","5","retrieval","old_objects","277","Stationary.jpg","36","1","1139"
"5","5","retrieval","new_objects","278","Hammer_Reflex.jpg","37","1","809"
"5","5","retrieval","new_objects","279","Toy_Shark.jpg","37","1","748"
"5","5","retrieval","new_objects","280","Man.jpg","37","1","700"
"5","5","retrieval","new_objects","281","Diode.jpg","37","1","900"
"5","5","retrieval","old_objects","282","Sign_OneWay.jpg","36","1","913"
"5","5","retrieval","old_objects","283","Decoration_Chinese.jpg","36","1","935"
"5","5","retrieval","new_objects","284","Candy_Caramel.jpg","37","1","806"
"5","5","retrieval","old_objects","285","TimerKitchen.jpg","37","0","850"
"5","5","retrieval","old_objects","286","Hazelnut.jpg","36","1","860"
"5","5","retrieval","old_objects","287","Jug_Wicker.jpg","36","1","1051"
"5","5","retrieval","new_objects","288","Cheeseburger.jpg","37","1","1053"
"5","5","retrieval","old_objects","289","Battery_Car.jpg","36","1","981"
"5","5","retrieval","old_objects","290","Garlic_Whole.jpg","36","1","819"
"5","5","retrieval","new_objects","291","Toy_DinosaurTRex.jpg","37","1","806"
"5","5","retrieval","old_objects","292","Cucumber.jpg","36","1","692"
"5","5","retrieval","old_objects","293","SewingMachine.jpg","36","1","892"
"5","5","retrieval","old_objects","294","Mug_Beer.jpg","36","1","773"
"5","5","retrieval","old_objects","295","WorldMap.jpg","36","1","850"
"5","5","retrieval","new_objects","296","Cannon.jpg","37","1","978"
"5","5","retrieval","new_objects","297","Sheep.jpg","37","1","737"
"5","5","retrieval","new_objects","298","PagodaModel.jpg","37","1","887"
"5","5","retrieval","old_objects","299","Tortilla.jpg","36","1","745"
"5","5","retrieval","old_objects","300","Bag_Toiletry.jpg","36","1","816"
"5","5","retrieval","old_objects","301","Tray_Wooden.jpg","36","1","713"
"5","5","retrieval","old_objects","302","Can_Peas.jpg","36","1","659"
"5","5","retrieval","new_objects","303","Pliers_SlipJoint.jpg","37","1","892"
"5","5","retrieval","new_objects","304","Light_Studio.jpg","37","1","1010"
"5","5","retrieval","new_objects","306","Flowers_DryBouquet.jpg","37","1","818"
"5","5","retrieval","new_objects","307","Tube_Glue.jpg","37","1","845"
"5","5","retrieval","new_objects","308","Flower_Sun.jpg","37","1","895"
"5","5","retrieval","old_objects","309","Fruit_Orange.jpg","36","1","776"
"5","5","retrieval","new_objects","310","Toy_PandaPlushie.jpg","37","1","814"
"5","5","retrieval","new_objects","311","Stick_IceHockey.jpg","37","1","1133"
"5","5","retrieval","new_objects","312","Bagel.jpg","37","1","979"
"5","5","retrieval","new_objects","313","DeepFryer.jpg","37","1","1053"
"5","5","retrieval","new_objects","314","Bellows.jpg","37","1","899"
"5","5","retrieval","old_objects","315","PlantPotted.jpg","36","1","701"
"5","5","retrieval","old_objects","316","Turtle.jpg","36","1","940"
"5","5","retrieval","old_objects","317","Jacket_Suit.jpg","36","1","851"
"5","5","retrieval","old_objects","318","Candleholder_Tall.jpg","36","1","782"
"5","5","retrieval","old_objects","319","Toy_Drill.jpg","36","1","1253"
"5","5","retrieval","new_objects","320","SundaeBanana.jpg","37","1","847"
"5","5","retrieval","old_objects","321","Tape_Washi.jpg","36","1","817"
"5","5","retrieval","new_objects","322","MilkJug.jpg","37","1","1019"
"5","5","retrieval","new_objects","323","Lamp_TableWhite.jpg","37","1","687"
"5","5","retrieval","old_objects","324","JoustingSpear.jpg","36","1","848"
"5","5","retrieval","new_objects","325","Barrel_Upright.jpg","37","1","819"
"5","5","retrieval","new_objects","326","Heater_Outdoor.jpg","37","1","806"
"5","5","retrieval","new_objects","327","Feet.jpg","37","1","705"
"5","5","retrieval","old_objects","328","Stapler_Gun.jpg","36","1","691"
"5","5","retrieval","new_objects","329","Jar_Capers.jpg","37","1","822"
"5","5","retrieval","new_objects","330","Lobster.jpg","37","1","770"
"5","5","retrieval","new_objects","331","Toy_BeadMaze.jpg","37","1","742"
"5","5","retrieval","old_objects","332","ScannerShoplifting.jpg","36","1","813"
"5","5","retrieval","new_objects","333","TreeHouse.jpg","37","1","1250"
"5","5","retrieval","old_objects","334","RecorderCassette.jpg","36","1","821"
"5","5","retrieval","new_objects","335","Bird_Toucan.jpg","37","1","848"
"5","5","retrieval","old_objects","336","Thermostat_Digital.jpg","36","1","858"
"5","5","retrieval","old_objects","337","SledgeHammer.jpg","36","1","773"
"5","5","retrieval","old_objects","338","Lens_ColourFilter.jpg","36","1","732"
"5","5","retrieval","new_objects","339","Boots_Hiking.jpg","37","1","790"
"5","5","retrieval","old_objects","340","Bed_ChildBirch.jpg","36","1","861"
"5","5","retrieval","old_objects","341","Corn.jpg","36","1","973"
"5","5","retrieval","new_objects","342","FlintIgniter.jpg","37","1","1441"
"5","5","retrieval","new_objects","343","Machine_Bread.jpg","36","0","970"
"5","5","retrieval","new_objects","344","Sink_Kitchen.jpg","37","1","807"
"5","5","retrieval","new_objects","345","DogFood.jpg","37","1","733"
"5","5","retrieval","new_objects","346","CanOpener.jpg","37","1","1017"
"5","5","retrieval","old_objects","347","Stool_Camping.jpg","36","1","704"
"5","5","retrieval","new_objects","348","DentistOverheadLight.jpg","37","1","768"
"5","5","retrieval","new_objects","349","Pillow_Plaid.jpg","37","1","766"
"5","5","retrieval","new_objects","350","TowerEiffel.jpg","37","1","702"
"5","5","retrieval","new_objects","351","Autocreeper.jpg","37","1","806"
"5","5","retrieval","new_objects","352","Bag_Camera.jpg","37","1","1007"
"5","5","retrieval","new_objects","353","Quartz.jpg","37","1","693"
"5","5","retrieval","old_objects","354","SpinningWheel.jpg","36","1","1089"
"5","5","retrieval","new_objects","355","OnionRings.jpg","37","1","810"
"5","5","demographics_block","gender","1","OnionRings.jpg","female","1","24007"
"5","5","demographics_block","age","1","OnionRings.jpg","72","1","24007"
"5","5","demographics_block","education","1","OnionRings.jpg","19","1","24007"
"5","5","demographics_block","left_right_handed","2","OnionRings.jpg","Right","1","10288"
"5","5","demographics_block","raceoption1","2","OnionRings.jpg","0","1","10288"
"5","5","demographics_block","raceoption2","2","OnionRings.jpg","","1","10288"
"5","5","demographics_block","raceoption3","2","OnionRings.jpg","","1","10288"
"5","5","demographics_block","raceoption4","2","OnionRings.jpg","","1","10288"
"5","5","demographics_block","raceoption5","2","OnionRings.jpg","","1","10288"
"5","5","demographics_block","raceoption6","2","OnionRings.jpg","","1","10288"
"5","5","demographics_block","raceoption7","2","OnionRings.jpg","","1","10288"
"5","5","demographics_block","raceoption8","2","OnionRings.jpg","","1","10288"
"5","5","demographics_block","raceoption9","2","OnionRings.jpg","","1","10288"
"5","5","demographics_block","raceother","2","OnionRings.jpg","","1","10288"
"5","5","demographics_block","raceother","2","OnionRings.jpg","","1","10288"
"5","5","demographics_block","english_language","2","OnionRings.jpg","Yes","1","10288"
"5","5","demographics_block","english_languageother","2","OnionRings.jpg","","1","10288"
"5","5","demographics_block","eyesight","3","OnionRings.jpg","Yes","1","7982"
"5","5","demographics_block","colorblind","3","OnionRings.jpg","No","1","7982"
"5","5","worker_id_block","worker_id_textbox","1","OnionRings.jpg","AW0K78T4I2T72","1","17468"
"2","2","encoding","encoding","1","Canister_Oil.jpg","0","0","3000"
"2","2","encoding","encoding","2","Scarecrow.jpg","0","0","3000"
"2","2","encoding","encoding","3","NeedlesAcupuncture.jpg","7","0","1301"
"2","2","encoding","encoding","4","Tweezers.jpg","1","0","2106"
"2","2","encoding","encoding","5","Kite_Rainbow.jpg","1","0","2337"
"2","2","encoding","encoding","6","Heater_ElectricUpright.jpg","1","0","1459"
"2","2","encoding","encoding","7","Drink_Green.jpg","1","0","1365"
"2","2","encoding","encoding","8","Instrument_Nyckelharpa.jpg","0","0","3000"
"2","2","encoding","encoding","9","Olives.jpg","0","0","3000"
"2","2","encoding","encoding","10","Oars.jpg","0","0","3000"
"2","2","encoding","encoding","11","Mask_Buddhist.jpg","0","0","3000"
"2","2","encoding","encoding","12","CoffeeBeans.jpg","0","0","3000"
"2","2","encoding","encoding","13","Cantaloupe.jpg","0","0","3000"
"2","2","encoding","encoding","14","Freezer.jpg","1","0","1410"
"2","2","encoding","encoding","15","GranolaBar.jpg","1","0","2341"
"2","2","encoding","encoding","16","Battery_Car.jpg","1","0","1608"
"2","2","encoding","encoding","17","Chair_Student.jpg","0","0","3000"
"2","2","encoding","encoding","18","Toy_DonkeyFur.jpg","0","0","3000"
"2","2","encoding","encoding","19","Aquarium.jpg","0","0","3000"
"2","2","encoding","encoding","20","Ship_Cruise.jpg","1","0","904"
"2","2","encoding","encoding","21","Radio_Modern.jpg","2","0","2804"
"2","2","encoding","encoding","22","Bread_Loaf.jpg","1","0","1776"
"2","2","encoding","encoding","23","CapGraduation.jpg","7","0","2165"
"2","2","encoding","encoding","24","Flower_Daisy.jpg","0","0","3000"
"2","2","encoding","encoding","25","Jacket_Jean.jpg","7","0","1158"
"2","2","encoding","encoding","26","Tape_Scotch.jpg","7","0","1263"
"2","2","encoding","encoding","27","OrigamiPaper.jpg","0","0","3000"
"2","2","encoding","encoding","28","Ladder.jpg","7","0","589"
"2","2","encoding","encoding","29","Telephone_TinCan.jpg","1","0","2632"
"2","2","encoding","encoding","30","RollerBlade.jpg","1","0","2470"
"2","2","encoding","encoding","31","Turtle.jpg","1","0","2714"
"2","2","encoding","encoding","32","Jacket_Suit.jpg","7","0","1891"
"2","2","encoding","encoding","33","LumiereBeautyBeast.jpg","1","0","1980"
"2","2","encoding","encoding","34","Knee.jpg","1","0","2687"
"2","2","encoding","encoding","35","MalletJudge.jpg","1","0","1634"
"2","2","encoding","encoding","36","SewingMachine.jpg","1","0","1120"
"2","2","encoding","encoding","37","Tomato.jpg","1","0","1466"
"2","2","encoding","encoding","38","Switch_Power.jpg","2","0","2392"
"2","2","encoding","encoding","39","Camera_ProfessionalFilm.jpg","1","0","2372"
"2","2","encoding","encoding","40","Stovetop.jpg","1","0","1176"
"2","2","encoding","encoding","41","Decoration_Chinese.jpg","0","0","3000"
"2","2","encoding","encoding","42","Tray_Wooden.jpg","1","0","2234"
"2","2","encoding","encoding","43","DrawingCompass.jpg","2","0","2180"
"2","2","encoding","encoding","44","Stationary.jpg","1","0","1407"
"2","2","encoding","encoding","45","Hat_Tuque.jpg","7","0","1868"
"2","2","encoding","encoding","46","TubeRing.jpg","1","0","2142"
"2","2","encoding","encoding","47","Thermostat_Digital.jpg","1","0","2328"
"2","2","encoding","encoding","48","StringBean.jpg","1","0","1508"
"2","2","encoding","encoding","49","Pretzel_Sticks.jpg","1","0","1912"
"2","2","encoding","encoding","50","Amp.jpg","0","0","3000"
"2","2","encoding","encoding","51","LawnMower.jpg","1","0","1382"
"2","2","encoding","encoding","52","Chainsaw.jpg","1","0","1153"
"2","2","encoding","encoding","53","PotatoMasher_Zigzag.jpg","1","0","978"
"2","2","encoding","encoding","54","Corn.jpg","1","0","1206"
"2","2","encoding","encoding","55","ScannerShoplifting.jpg","1","0","1809"
"2","2","encoding","encoding","56","AirPump.jpg","1","0","867"
"2","2","encoding","encoding","57","Toy_DinosaurBrontosaurus.jpg","1","0","919"
"2","2","encoding","encoding","58","RecorderCassette.jpg","1","0","1989"
"2","2","encoding","encoding","59","Tortilla.jpg","1","0","1597"
"2","2","encoding","encoding","60","Bowl_Wooden.jpg","1","0","1163"
"2","2","encoding","encoding","62","Fruit_Orange.jpg","1","0","1731"
"2","2","encoding","encoding","63","TigerWhite.jpg","1","0","1425"
"2","2","encoding","encoding","64","Trash_Medical.jpg","1","0","1174"
"2","2","encoding","encoding","65","Clamp.jpg","1","0","175"
"2","2","encoding","encoding","66","Stool_Camping.jpg","1","0","918"
"2","2","encoding","encoding","67","Castle_Sand.jpg","1","0","1544"
"2","2","encoding","encoding","68","Bed_ChildBirch.jpg","1","0","857"
"2","2","encoding","encoding","69","Glass_Wine.jpg","1","0","1543"
"2","2","encoding","encoding","70","BunsenBurner.jpg","1","0","1213"
"2","2","encoding","encoding","71","Garlic_Whole.jpg","1","0","695"
"2","2","encoding","encoding","72","Zucchini.jpg","1","0","826"
"2","2","encoding","encoding","73","Jar_Money.jpg","1","0","2374"
"2","2","encoding","encoding","74","Bag_Computer.jpg","1","0","1876"
"2","2","encoding","encoding","75","Cane_Metal.jpg","1","0","1087"
"2","2","encoding","encoding","76","Computer_CPU.jpg","0","0","3000"
"2","2","encoding","encoding","77","Toy_Drill.jpg","1","0","908"
"2","2","encoding","encoding","78","Airplane_Fighter.jpg","1","0","701"
"2","2","encoding","encoding","79","Bag_Toiletry.jpg","1","0","897"
"2","2","encoding","encoding","80","AmpMeter.jpg","1","0","1330"
"2","2","encoding","encoding","81","Dog_SaintBernard.jpg","1","0","1521"
"2","2","encoding","encoding","82","Bread_Pita.jpg","1","0","1213"
"2","2","encoding","encoding","83","TimerKitchen.jpg","1","0","1977"
"2","2","encoding","encoding","84","Machine_Arm.jpg","1","0","1137"
"2","2","encoding","encoding","85","Light_PostIsolated.jpg","2","0","2563"
"2","2","encoding","encoding","86","Radio_Antique.jpg","1","0","1474"
"2","2","encoding","encoding","87","Nuts_PeanutsPeeled.jpg","1","0","2480"
"2","2","encoding","encoding","88","Exercise_Bike.jpg","1","0","2188"
"2","2","encoding","encoding","89","ProcessorFood_Old.jpg","1","0","1773"
"2","2","encoding","encoding","90","SpinningWheel.jpg","1","0","1734"
"2","2","encoding","encoding","91","RickShaw.jpg","1","0","1006"
"2","2","encoding","encoding","92","Thermos_MetalSleek.jpg","1","0","2412"
"2","2","encoding","encoding","93","Slippers.jpg","1","0","1228"
"2","2","encoding","encoding","94","Pumpkin.jpg","1","0","2188"
"2","2","encoding","encoding","95","Potato.jpg","1","0","2230"
"2","2","encoding","encoding","96","Pipe.jpg","1","0","840"
"2","2","encoding","encoding","97","Ship_Battle.jpg","1","0","2690"
"2","2","encoding","encoding","98","Stapler_Gun.jpg","1","0","939"
"2","2","encoding","encoding","99","LifeJacket_BlueYellow.jpg","1","0","1188"
"2","2","encoding","encoding","100","Hazelnut.jpg","1","0","2087"
"2","2","encoding","encoding","101","Fence_Wooden.jpg","1","0","981"
"2","2","encoding","encoding","102","Toy_Turtle.jpg","1","0","1214"
"2","2","encoding","encoding","103","Gun_Nerf.jpg","1","0","1043"
"2","2","encoding","encoding","104","Cucumber.jpg","1","0","1330"
"2","2","encoding","encoding","105","SoapDish.jpg","1","0","1566"
"2","2","encoding","encoding","106","Fence_ChainLink.jpg","1","0","1064"
"2","2","encoding","encoding","107","Lollipop_Rainbow.jpg","0","0","3000"
"2","2","encoding","encoding","108","PlantPotted.jpg","1","0","1340"
"2","2","encoding","encoding","109","Mug_Beer.jpg","1","0","838"
"2","2","encoding","encoding","110","Nightstand.jpg","1","0","2951"
"2","2","encoding","encoding","111","Statue_Buddha.jpg","1","0","1123"
"2","2","encoding","encoding","112","Altar.jpg","1","0","2446"
"2","2","encoding","encoding","113","Gloves_Winter.jpg","1","0","1218"
"2","2","encoding","encoding","114","WorldMap.jpg","1","0","1371"
"2","2","encoding","encoding","115","Escalator.jpg","1","0","1741"
"2","2","encoding","encoding","116","Brush_Light.jpg","1","0","1078"
"2","2","encoding","encoding","117","Can_Oblong.jpg","1","0","1634"
"2","2","encoding","encoding","118","Ostrich.jpg","1","0","1345"
"2","2","encoding","encoding","119","TowelRack_Brown.jpg","1","0","1305"
"2","2","encoding","encoding","120","Shrimp.jpg","1","0","1499"
"2","2","encoding","encoding","121","Bulldozer.jpg","0","0","3000"
"2","2","encoding","encoding","123","Basket_Straw.jpg","0","0","3000"
"2","2","encoding","encoding","124","Jug_Wicker.jpg","1","0","1136"
"2","2","encoding","encoding","125","Ladle.jpg","1","0","734"
"2","2","encoding","encoding","126","Basket_Firewood.jpg","1","0","1126"
"2","2","encoding","encoding","127","Candleholder_Tall.jpg","1","0","280"
"2","2","encoding","encoding","128","Pepperoni.jpg","1","0","983"
"2","2","encoding","encoding","129","JoustingSpear.jpg","1","0","1973"
"2","2","encoding","encoding","130","Toy_MerryGoRound.jpg","1","0","1230"
"2","2","encoding","encoding","131","Iguana.jpg","1","0","713"
"2","2","encoding","encoding","132","Lens_ColourFilter.jpg","1","0","1450"
"2","2","encoding","encoding","133","Radio_Vintage.jpg","1","0","976"
"2","2","encoding","encoding","134","CandyDispenser.jpg","1","0","699"
"2","2","encoding","encoding","135","Oneholepunch.jpg","1","0","763"
"2","2","encoding","encoding","136","DoorBolt.jpg","1","0","876"
"2","2","encoding","encoding","137","SledgeHammer.jpg","1","0","1494"
"2","2","encoding","encoding","138","Suitcase.jpg","1","0","1848"
"2","2","encoding","encoding","139","BicycleSeat.jpg","1","0","738"
"2","2","encoding","encoding","140","Statue_Cat.jpg","1","0","436"
"2","2","encoding","encoding","141","Alfalfa.jpg","1","0","792"
"2","2","encoding","encoding","142","Rake_Long.jpg","1","0","1027"
"2","2","encoding","encoding","143","Toaster_MetalSleek.jpg","1","0","625"
"2","2","encoding","encoding","144","MortarPestle_BlackStone.jpg","1","0","632"
"2","2","encoding","encoding","145","Iron_Antique.jpg","1","0","354"
"2","2","encoding","encoding","146","ClothRed.jpg","1","0","303"
"2","2","encoding","encoding","147","Mirror_Makeup.jpg","1","0","784"
"2","2","encoding","encoding","148","Clothespin_Beige.jpg","1","0","715"
"2","2","encoding","encoding","149","Tape_Washi.jpg","1","0","263"
"2","2","encoding","encoding","150","Exercise_HandTrainer.jpg","1","0","241"
"2","2","encoding","encoding","151","BicycleReflector.jpg","1","0","494"
"2","2","encoding","encoding","152","Scorpion.jpg","1","0","156"
"2","2","encoding","encoding","153","Hammer.jpg","1","0","1901"
"2","2","encoding","encoding","154","CDstack.jpg","1","0","436"
"2","2","encoding","encoding","155","Asparagus.jpg","7","0","605"
"2","2","encoding","encoding","156","Pillar.jpg","1","0","1446"
"2","2","encoding","encoding","157","EyeExamDevice.jpg","1","0","882"
"2","2","encoding","encoding","158","Can_Peas.jpg","1","0","799"
"2","2","encoding","encoding","159","Cassette_Video.jpg","1","0","2410"
"2","2","encoding","encoding","160","SnowmanDecor.jpg","1","0","878"
"2","2","encoding","encoding","161","Pasta_Penne.jpg","1","0","299"
"2","2","encoding","encoding","162","Bindings_Snowboard.jpg","1","0","1735"
"2","2","encoding","encoding","163","Sushi.jpg","1","0","894"
"2","2","encoding","encoding","164","Kettle.jpg","1","0","845"
"2","2","encoding","encoding","165","Knife_Butter.jpg","1","0","662"
"2","2","encoding","encoding","166","Sieve_SideView.jpg","1","0","2158"
"2","2","encoding","encoding","167","Cheese_Platter.jpg","1","0","1389"
"2","2","encoding","encoding","168","Scythe.jpg","1","0","790"
"2","2","encoding","encoding","169","Fish_Rockbass.jpg","1","0","289"
"2","2","encoding","encoding","170","Purse.jpg","1","0","336"
"2","2","encoding","encoding","171","Pricegun.jpg","1","0","1952"
"2","2","encoding","encoding","172","Sign_OneWay.jpg","0","0","3000"
"2","2","encoding","encoding","173","Lips_Wax.jpg","0","0","3000"
"2","2","encoding","encoding","174","Jug_ClayAncient.jpg","0","0","3000"
"2","2","encoding","encoding","175","Cup_Fruits.jpg","1","0","2403"
"2","2","encoding","encoding","176","Jar_Cotton.jpg","2","0","1224"
"2","2","encoding","encoding","177","Vest.jpg","7","0","1940"
"2","2","retrieval","old_objects","1","SewingMachine.jpg","36","1","1578"
"2","2","retrieval","new_objects","2","Carousel copy.jpg","37","1","819"
"2","2","retrieval","old_objects","3","Decoration_Chinese.jpg","37","0","1477"
"2","2","retrieval","old_objects","4","Pepperoni.jpg","36","1","1159"
"2","2","retrieval","new_objects","5","Box_Staples.jpg","36","0","1973"
"2","2","retrieval","new_objects","6","Lamp_TableWhite.jpg","36","0","1222"
"2","2","retrieval","old_objects","7","Mug_Beer.jpg","37","0","1500"
"2","2","retrieval","old_objects","8","BicycleSeat.jpg","37","0","1134"
"2","2","retrieval","old_objects","9","TigerWhite.jpg","36","1","1129"
"2","2","retrieval","old_objects","10","PotatoMasher_Zigzag.jpg","37","0","1170"
"2","2","retrieval","old_objects","11","SnowmanDecor.jpg","36","1","1370"
"2","2","retrieval","new_objects","12","DentistOverheadLight.jpg","36","0","1489"
"2","2","retrieval","old_objects","13","Candleholder_Tall.jpg","37","0","994"
"2","2","retrieval","old_objects","14","Stovetop.jpg","36","1","1160"
"2","2","retrieval","old_objects","15","Clothespin_Beige.jpg","36","1","1215"
"2","2","retrieval","new_objects","16","Stamp.jpg","37","1","1162"
"2","2","retrieval","old_objects","17","Airplane_Fighter.jpg","37","0","1356"
"2","2","retrieval","new_objects","18","CartonEggs.jpg","36","0","555"
"2","2","retrieval","old_objects","19","Chainsaw.jpg","37","0","4"
"2","2","retrieval","old_objects","20","Altar.jpg","36","1","18"
"2","2","retrieval","old_objects","21","Clamp.jpg","36","1","207"
"2","2","retrieval","old_objects","22","Toaster_MetalSleek.jpg","37","0","75"
"2","2","retrieval","old_objects","23","Radio_Vintage.jpg","36","1","947"
"2","2","retrieval","new_objects","24","Boots_Hiking.jpg","36","0","922"
"2","2","retrieval","old_objects","25","AirPump.jpg","37","0","714"
"2","2","retrieval","old_objects","26","Ladle.jpg","37","0","739"
"2","2","retrieval","old_objects","27","Hat_Tuque.jpg","37","0","982"
"2","2","retrieval","old_objects","28","AmpMeter.jpg","36","1","916"
"2","2","retrieval","old_objects","29","Tape_Washi.jpg","36","1","940"
"2","2","retrieval","new_objects","30","Peeler.jpg","37","1","844"
"2","2","retrieval","old_objects","31","Battery_Car.jpg","37","0","927"
"2","2","retrieval","old_objects","32","Ship_Battle.jpg","37","0","667"
"2","2","retrieval","old_objects","33","Amp.jpg","37","0","642"
"2","2","retrieval","new_objects","34","Avocado.jpg","37","1","1080"
"2","2","retrieval","old_objects","35","Thermos_MetalSleek.jpg","37","0","772"
"2","2","retrieval","new_objects","36","Backpack_Suitcase.jpg","37","1","571"
"2","2","retrieval","old_objects","37","Kite_Rainbow.jpg","37","0","541"
"2","2","retrieval","new_objects","38","Easel.jpg","37","1","838"
"2","2","retrieval","new_objects","39","Keychain_Metal.jpg","37","1","724"
"2","2","retrieval","old_objects","40","Tomato.jpg","37","0","387"
"2","2","retrieval","old_objects","41","Cassette_Video.jpg","37","0","492"
"2","2","retrieval","old_objects","42","BunsenBurner.jpg","37","0","493"
"2","2","retrieval","old_objects","43","MortarPestle_BlackStone.jpg","37","0","1239"
"2","2","retrieval","new_objects","44","Inukshuk.jpg","36","0","1354"
"2","2","retrieval","old_objects","45","Slippers.jpg","37","0","1452"
"2","2","retrieval","new_objects","46","Arch.jpg","37","1","1144"
"2","2","retrieval","new_objects","47","MilkJug.jpg","37","1","1289"
"2","2","retrieval","old_objects","48","Gun_Nerf.jpg","37","0","845"
"2","2","retrieval","new_objects","49","Vase_EarthToned.jpg","37","1","1030"
"2","2","retrieval","new_objects","50","Walker_Blue.jpg","37","1","1456"
"2","2","retrieval","old_objects","51","Knee.jpg","36","1","1178"
"2","2","retrieval","new_objects","52","Light_Studio.jpg","37","1","962"
"2","2","retrieval","old_objects","53","Exercise_Bike.jpg","37","0","1021"
"2","2","retrieval","old_objects","54","LawnMower.jpg","36","1","984"
"2","2","retrieval","new_objects","55","Barrel_Upright.jpg","36","0","1384"
"2","2","retrieval","old_objects","56","BicycleReflector.jpg","37","0","581"
"2","2","retrieval","old_objects","57","Brush_Light.jpg","37","0","1060"
"2","2","retrieval","new_objects","58","OnionRings.jpg","0","0","2000"
"2","2","retrieval","new_objects","59","OvenElement.jpg","37","1","1806"
"2","2","retrieval","new_objects","60","Noisemaker_Streamers.jpg","37","1","1346"
"2","2","retrieval","new_objects","62","Jar_Capers.jpg","0","0","2000"
"2","2","retrieval","new_objects","63","Bone.jpg","36","0","1227"
"2","2","retrieval","new_objects","64","CoolingFan_Engine2.jpg","36","0","1115"
"2","2","retrieval","new_objects","65","SpiderWeb.jpg","36","0","1147"
"2","2","retrieval","old_objects","66","Nightstand.jpg","36","1","920"
"2","2","retrieval","old_objects","67","Jacket_Suit.jpg","37","0","969"
"2","2","retrieval","new_objects","68","Man.jpg","37","1","831"
"2","2","retrieval","old_objects","69","Kettle.jpg","36","1","171"
"2","2","retrieval","new_objects","70","Ship_Model.jpg","36","0","112"
"2","2","retrieval","new_objects","71","Bucket_Ice.jpg","36","0","175"
"2","2","retrieval","old_objects","72","Knife_Butter.jpg","37","0","75"
"2","2","retrieval","old_objects","73","RecorderCassette.jpg","37","0","44"
"2","2","retrieval","old_objects","74","Bag_Toiletry.jpg","37","0","41"
"2","2","retrieval","old_objects","75","Camera_ProfessionalFilm.jpg","36","1","64"
"2","2","retrieval","old_objects","76","Asparagus.jpg","37","0","103"
"2","2","retrieval","old_objects","77","SpinningWheel.jpg","36","1","82"
"2","2","retrieval","old_objects","78","Shrimp.jpg","37","0","95"
"2","2","retrieval","new_objects","79","NailPolish.jpg","36","0","90"
"2","2","retrieval","new_objects","80","Cheeseburger.jpg","37","1","68"
"2","2","retrieval","old_objects","81","Trash_Medical.jpg","36","1","77"
"2","2","retrieval","new_objects","82","Flower_Sun.jpg","37","1","102"
"2","2","retrieval","old_objects","83","Thermostat_Digital.jpg","36","1","91"
"2","2","retrieval","old_objects","84","Stationary.jpg","36","1","15"
"2","2","retrieval","new_objects","85","Milkshake_StrawberryStraw.jpg","37","1","95"
"2","2","retrieval","old_objects","86","Escalator.jpg","36","1","52"
"2","2","retrieval","old_objects","87","Fence_Wooden.jpg","36","1","723"
"2","2","retrieval","old_objects","88","TowelRack_Brown.jpg","36","1","11"
"2","2","retrieval","old_objects","89","Rake_Long.jpg","36","1","51"
"2","2","retrieval","new_objects","90","StreetSweeper.jpg","36","0","42"
"2","2","retrieval","new_objects","91","Chicken_FriedWing.jpg","36","0","16"
"2","2","retrieval","old_objects","92","Turtle.jpg","37","0","116"
"2","2","retrieval","new_objects","93","Book_Paper.jpg","37","1","28"
"2","2","retrieval","old_objects","94","Can_Oblong.jpg","37","0","73"
"2","2","retrieval","old_objects","95","TubeRing.jpg","36","1","235"
"2","2","retrieval","old_objects","96","Freezer.jpg","37","0","17"
"2","2","retrieval","old_objects","97","Jar_Cotton.jpg","36","1","124"
"2","2","retrieval","new_objects","98","Oven.jpg","37","1","79"
"2","2","retrieval","new_objects","99","Clock_Interior.jpg","37","1","14"
"2","2","retrieval","new_objects","100","Toy_Motorcycle.jpg","36","0","124"
"2","2","retrieval","new_objects","101","Tube_Glue.jpg","36","0","83"
"2","2","retrieval","new_objects","102","Shrub_Cedar.jpg","36","0","54"
"2","2","retrieval","old_objects","103","Canister_Oil.jpg","37","0","30"
"2","2","retrieval","old_objects","104","Stool_Camping.jpg","37","0","55"
"2","2","retrieval","old_objects","105","Stapler_Gun.jpg","37","0","57"
"2","2","retrieval","new_objects","106","Pear_Yellow.jpg","37","1","156"
"2","2","retrieval","new_objects","107","Condom.jpg","37","1","2"
"2","2","retrieval","old_objects","108","Aquarium.jpg","37","0","26"
"2","2","retrieval","old_objects","109","Sushi.jpg","37","0","37"
"2","2","retrieval","new_objects","110","TowerEiffel.jpg","36","0","122"
"2","2","retrieval","new_objects","111","TireRims.jpg","36","0","65"
"2","2","retrieval","old_objects","112","Hazelnut.jpg","0","0","2000"
"2","2","retrieval","new_objects","113","Knife_Kitchen.jpg","0","0","2000"
"2","2","retrieval","new_objects","114","Shorts_Sports.jpg","0","0","2000"
"2","2","retrieval","old_objects","115","Mirror_Makeup.jpg","0","0","2000"
"2","2","retrieval","new_objects","116","Guitar_Acoustic.jpg","0","0","2000"
"2","2","retrieval","new_objects","117","ComputerKeyboard_Backspace.jpg","36","0","105"
"2","2","retrieval","old_objects","118","Cane_Metal.jpg","36","1","127"
"2","2","retrieval","old_objects","119","Lips_Wax.jpg","37","0","23"
"2","2","retrieval","new_objects","120","Pillow_Plaid.jpg","37","1","114"
"2","2","retrieval","old_objects","121","Purse.jpg","37","0","20"
"2","2","retrieval","old_objects","123","Radio_Modern.jpg","36","1","38"
"2","2","retrieval","old_objects","124","Vest.jpg","36","1","38"
"2","2","retrieval","new_objects","125","WaterColorPaintset.jpg","37","1","26"
"2","2","retrieval","new_objects","126","Flowers_DryBouquet.jpg","36","0","67"
"2","2","retrieval","old_objects","127","Chair_Student.jpg","37","0","40"
"2","2","retrieval","new_objects","128","Key_Car.jpg","36","0","94"
"2","2","retrieval","old_objects","129","Bag_Computer.jpg","37","0","55"
"2","2","retrieval","new_objects","130","Machine_Bread.jpg","36","0","120"
"2","2","retrieval","new_objects","131","Toy_Helicopter.jpg","0","0","2000"
"2","2","retrieval","new_objects","132","Clock_Radioalarm.jpg","0","0","2000"
"2","2","retrieval","new_objects","133","Tray_Metal.jpg","0","0","2000"
"2","2","retrieval","old_objects","134","Basket_Straw.jpg","0","0","2000"
"2","2","retrieval","new_objects","135","Dolly.jpg","0","0","2000"
"2","2","retrieval","new_objects","136","Platter_Vegetables.jpg","0","0","2000"
"2","2","retrieval","new_objects","137","Toy_BlocksPlastic Colourful.jpg","0","0","2000"
"2","2","retrieval","new_objects","138","GatedEntrance.jpg","37","1","75"
"2","2","retrieval","new_objects","139","Bucket_WoodenDark.jpg","36","0","55"
"2","2","retrieval","new_objects","140","Candy_Caramel.jpg","37","1","127"
"2","2","retrieval","old_objects","141","Bulldozer.jpg","0","0","2000"
"2","2","retrieval","old_objects","142","Suitcase.jpg","0","0","2000"
"2","2","retrieval","old_objects","143","Ship_Cruise.jpg","0","0","2000"
"2","2","retrieval","new_objects","144","Hammer_Reflex.jpg","0","0","2000"
"2","2","retrieval","old_objects","145","Iguana.jpg","0","0","2000"
"2","2","retrieval","old_objects","146","Can_Peas.jpg","0","0","2000"
"2","2","retrieval","old_objects","147","Statue_Cat.jpg","0","0","2000"
"2","2","retrieval","new_objects","148","Sheep.jpg","0","0","2000"
"2","2","retrieval","old_objects","149","Bread_Loaf.jpg","0","0","2000"
"2","2","retrieval","old_objects","150","Scorpion.jpg","36","1","64"
"2","2","retrieval","new_objects","151","Awning.jpg","37","1","69"
"2","2","retrieval","old_objects","152","Iron_Antique.jpg","36","1","69"
"2","2","retrieval","new_objects","153","ChalkLineTool.jpg","37","1","65"
"2","2","retrieval","old_objects","154","Scarecrow.jpg","37","0","10"
"2","2","retrieval","old_objects","155","Toy_Turtle.jpg","36","1","150"
"2","2","retrieval","new_objects","156","Cougar.jpg","37","1","83"
"2","2","retrieval","old_objects","157","Lens_ColourFilter.jpg","36","1","116"
"2","2","retrieval","new_objects","158","Pillow_Heart.jpg","37","1","98"
"2","2","retrieval","new_objects","159","Brush_Toilet.jpg","36","0","117"
"2","2","retrieval","new_objects","160","Shoes_WomenBoots.jpg","37","1","84"
"2","2","retrieval","new_objects","161","Archery_ArrowsBows.jpg","36","0","114"
"2","2","retrieval","new_objects","162","Bottle_Plastic.jpg","36","0","23"
"2","2","retrieval","old_objects","163","Pasta_Penne.jpg","36","1","92"
"2","2","retrieval","new_objects","164","Bagel.jpg","36","0","1"
"2","2","retrieval","new_objects","165","Crab.jpg","37","1","143"
"2","2","retrieval","old_objects","166","StringBean.jpg","37","0","28"
"2","2","retrieval","new_objects","167","Leek.jpg","37","1","50"
"2","2","retrieval","new_objects","168","Bird_Toucan.jpg","37","1","122"
"2","2","retrieval","new_objects","169","GiftBow.jpg","37","1","42"
"2","2","retrieval","new_objects","170","SundaeBanana.jpg","36","0","717"
"2","2","retrieval","old_objects","171","JoustingSpear.jpg","36","1","141"
"2","2","retrieval","new_objects","172","Sign_HumpBridgeAhead.jpg","36","0","76"
"2","2","retrieval","old_objects","173","MalletJudge.jpg","36","1","120"
"2","2","retrieval","new_objects","174","PickupTruck.jpg","36","0","195"
"2","2","retrieval","new_objects","175","Quartz.jpg","37","1","383"
"2","2","retrieval","new_objects","176","Lettuce_Romaine.jpg","36","0","7"
"2","2","retrieval","new_objects","177","Bucket_WoodenLight.jpg","36","0","31"
"2","2","retrieval","new_objects","178","Pliers_SlipJoint.jpg","36","0","1246"
"2","2","retrieval","new_objects","179","Bag_Saline.jpg","36","0","36"
"2","2","retrieval","old_objects","180","Statue_Buddha.jpg","36","1","92"
"2","2","retrieval","old_objects","181","Drink_Green.jpg","36","1","58"
"2","2","retrieval","old_objects","182","Pipe.jpg","37","0","24"
"2","2","retrieval","new_objects","184","Toys_Lego.jpg","0","0","2000"
"2","2","retrieval","old_objects","185","CoffeeBeans.jpg","0","0","2000"
"2","2","retrieval","old_objects","186","Jug_ClayAncient.jpg","0","0","2000"
"2","2","retrieval","old_objects","187","Nuts_PeanutsPeeled.jpg","36","1","12"
"2","2","retrieval","old_objects","188","Jar_Money.jpg","36","1","65"
"2","2","retrieval","new_objects","189","Sandwich_Ham.jpg","36","0","17"
"2","2","retrieval","new_objects","190","Toolbox_Old.jpg","36","0","6"
"2","2","retrieval","old_objects","191","GranolaBar.jpg","36","1","0"
"2","2","retrieval","old_objects","192","Light_PostIsolated.jpg","37","0","77"
"2","2","retrieval","new_objects","193","Neckrest.jpg","36","0","101"
"2","2","retrieval","old_objects","194","SledgeHammer.jpg","37","0","112"
"2","2","retrieval","new_objects","195","Bellows.jpg","36","0","161"
"2","2","retrieval","new_objects","196","PocketKnife.jpg","36","0","77"
"2","2","retrieval","old_objects","197","TimerKitchen.jpg","36","1","5"
"2","2","retrieval","old_objects","198","Heater_ElectricUpright.jpg","36","1","35"
"2","2","retrieval","old_objects","199","Bread_Pita.jpg","36","1","48"
"2","2","retrieval","new_objects","200","Puzzle_Tree.jpg","37","1","134"
"2","2","retrieval","old_objects","201","ScannerShoplifting.jpg","37","0","29"
"2","2","retrieval","old_objects","202","CDstack.jpg","36","1","4"
"2","2","retrieval","new_objects","203","Chair_Deck.jpg","36","0","27"
"2","2","retrieval","new_objects","204","Toy_DinosaurTRex.jpg","36","0","780"
"2","2","retrieval","new_objects","205","TreeHouse.jpg","36","0","4"
"2","2","retrieval","new_objects","206","Ball_Tennis.jpg","36","0","61"
"2","2","retrieval","new_objects","207","Mask_African.jpg","36","0","185"
"2","2","retrieval","new_objects","208","Cheque.jpg","36","0","192"
"2","2","retrieval","old_objects","209","Tweezers.jpg","36","1","1363"
"2","2","retrieval","new_objects","210","GasBurner.jpg","36","0","92"
"2","2","retrieval","old_objects","211","Bed_ChildBirch.jpg","36","1","47"
"2","2","retrieval","new_objects","212","RadioactiveContainer.jpg","36","0","158"
"2","2","retrieval","old_objects","213","Pumpkin.jpg","37","0","27"
"2","2","retrieval","old_objects","214","Hammer.jpg","37","0","57"
"2","2","retrieval","new_objects","215","Stick_IceHockey.jpg","36","0","250"
"2","2","retrieval","new_objects","216","Stick_Drum.jpg","37","1","20"
"2","2","retrieval","new_objects","217","Tray_Medical.jpg","36","0","122"
"2","2","retrieval","old_objects","218","Ladder.jpg","36","1","19"
"2","2","retrieval","old_objects","219","Toy_Drill.jpg","36","1","106"
"2","2","retrieval","old_objects","220","PlantPotted.jpg","36","1","66"
"2","2","retrieval","new_objects","221","Phone_Flip.jpg","36","0","13"
"2","2","retrieval","old_objects","222","Toy_MerryGoRound.jpg","36","1","38"
"2","2","retrieval","old_objects","223","Dog_SaintBernard.jpg","36","1","13"
"2","2","retrieval","old_objects","224","Jacket_Jean.jpg","36","1","12"
"2","2","retrieval","old_objects","225","Tortilla.jpg","36","1","7"
"2","2","retrieval","new_objects","226","Bucket_Rusty.jpg","37","1","126"
"2","2","retrieval","old_objects","227","Radio_Antique.jpg","36","1","108"
"2","2","retrieval","new_objects","228","Mug_Travel.jpg","36","0","20"
"2","2","retrieval","old_objects","229","ProcessorFood_Old.jpg","36","1","7"
"2","2","retrieval","new_objects","230","Cannon.jpg","36","0","14"
"2","2","retrieval","new_objects","231","TowelRack_Metal.jpg","37","1","1377"
"2","2","retrieval","new_objects","232","Rock_Agate.jpg","37","1","100"
"2","2","retrieval","old_objects","233","Cup_Fruits.jpg","37","0","38"
"2","2","retrieval","old_objects","234","DoorBolt.jpg","36","1","1272"
"2","2","retrieval","old_objects","235","RollerBlade.jpg","36","1","60"
"2","2","retrieval","new_objects","236","Mailbox_Community.jpg","36","0","3"
"2","2","retrieval","old_objects","237","Scythe.jpg","36","1","28"
"2","2","retrieval","new_objects","238","Harmonica.jpg","36","0","43"
"2","2","retrieval","new_objects","239","Bottle_Bleach.jpg","36","0","41"
"2","2","retrieval","new_objects","240","Box_Wine.jpg","36","0","16"
"2","2","retrieval","old_objects","241","Lollipop_Rainbow.jpg","36","1","130"
"2","2","retrieval","new_objects","242","Lobster.jpg","36","0","279"
"2","2","retrieval","new_objects","243","Box_FirstAidOpen.jpg","36","0","81"
"2","2","retrieval","old_objects","245","SoapDish.jpg","36","1","138"
"2","2","retrieval","old_objects","246","Olives.jpg","37","0","75"
"2","2","retrieval","new_objects","247","Broom_Short.jpg","37","1","16"
"2","2","retrieval","new_objects","248","Partition.jpg","37","1","7"
"2","2","retrieval","old_objects","249","RickShaw.jpg","36","1","78"
"2","2","retrieval","new_objects","250","Toy_RockingHorseBlack.jpg","37","1","33"
"2","2","retrieval","old_objects","251","Castle_Sand.jpg","37","0","28"
"2","2","retrieval","old_objects","252","DrawingCompass.jpg","37","0","20"
"2","2","retrieval","new_objects","253","Dress_Party.jpg","36","0","184"
"2","2","retrieval","old_objects","254","Exercise_HandTrainer.jpg","36","1","5"
"2","2","retrieval","old_objects","255","Glass_Wine.jpg","36","1","75"
"2","2","retrieval","new_objects","256","Bottle_Blue.jpg","36","0","47"
"2","2","retrieval","new_objects","257","Corkscrew.jpg","37","1","49"
"2","2","retrieval","new_objects","258","BoxTrailer.jpg","36","0","109"
"2","2","retrieval","new_objects","259","Statue_Jesus.jpg","37","1","70"
"2","2","retrieval","new_objects","260","Makeup_Mascara.jpg","37","1","87"
"2","2","retrieval","new_objects","261","MonaLisa.jpg","36","0","171"
"2","2","retrieval","new_objects","262","Rag.jpg","36","0","13"
"2","2","retrieval","old_objects","263","Bindings_Snowboard.jpg","37","0","87"
"2","2","retrieval","new_objects","264","Hat_Sheriff.jpg","37","1","27"
"2","2","retrieval","new_objects","265","Bullet.jpg","37","1","11"
"2","2","retrieval","old_objects","266","Zucchini.jpg","37","0","26"
"2","2","retrieval","old_objects","267","Instrument_Nyckelharpa.jpg","37","0","48"
"2","2","retrieval","old_objects","268","Bowl_Wooden.jpg","37","0","61"
"2","2","retrieval","new_objects","269","Drum_Conga.jpg","36","0","247"
"2","2","retrieval","new_objects","270","DogFood.jpg","36","0","63"
"2","2","retrieval","new_objects","271","Toy_SandRake.jpg","36","0","61"
"2","2","retrieval","new_objects","272","Oyster.jpg","37","1","48"
"2","2","retrieval","old_objects","273","Mask_Buddhist.jpg","36","1","76"
"2","2","retrieval","old_objects","274","Jug_Wicker.jpg","36","1","119"
"2","2","retrieval","new_objects","275","Seashell_AlternateTellin.jpg","36","0","56"
"2","2","retrieval","old_objects","276","Pillar.jpg","36","1","39"
"2","2","retrieval","new_objects","277","Dresser.jpg","36","0","72"
"2","2","retrieval","new_objects","278","DVDPlayer.jpg","36","0","41"
"2","2","retrieval","new_objects","279","PedestalGreek.jpg","36","0","45"
"2","2","retrieval","old_objects","280","Ostrich.jpg","36","1","55"
"2","2","retrieval","new_objects","281","Toy_PandaPlushie.jpg","36","0","225"
"2","2","retrieval","new_objects","282","Rope_Manila.jpg","36","0","80"
"2","2","retrieval","new_objects","283","Stepper.jpg","36","0","129"
"2","2","retrieval","new_objects","284","SolderingIron.jpg","36","0","254"
"2","2","retrieval","old_objects","285","Fence_ChainLink.jpg","36","1","6"
"2","2","retrieval","old_objects","286","Toy_DinosaurBrontosaurus.jpg","37","0","79"
"2","2","retrieval","new_objects","287","Shark_GreatWhite.jpg","37","1","15"
"2","2","retrieval","old_objects","288","Garlic_Whole.jpg","37","0","201"
"2","2","retrieval","new_objects","289","PagodaModel.jpg","37","1","87"
"2","2","retrieval","old_objects","290","Telephone_TinCan.jpg","36","1","123"
"2","2","retrieval","new_objects","291","Licorice.jpg","37","1","5"
"2","2","retrieval","old_objects","292","LifeJacket_BlueYellow.jpg","36","1","0"
"2","2","retrieval","new_objects","293","Lilypad.jpg","36","0","152"
"2","2","retrieval","new_objects","294","Tripod.jpg","37","1","1"
"2","2","retrieval","old_objects","295","Oneholepunch.jpg","37","0","9"
"2","2","retrieval","new_objects","296","Mitt_Blue.jpg","36","0","112"
"2","2","retrieval","new_objects","297","PeriodicTable.jpg","37","1","62"
"2","2","retrieval","old_objects","298","Sieve_SideView.jpg","36","1","128"
"2","2","retrieval","old_objects","299","Machine_Arm.jpg","37","0","52"
"2","2","retrieval","old_objects","300","ClothRed.jpg","37","0","10"
"2","2","retrieval","new_objects","301","Sink_Kitchen.jpg","36","0","1091"
"2","2","retrieval","old_objects","302","EyeExamDevice.jpg","37","0","132"
"2","2","retrieval","new_objects","303","Toy_BeadMaze.jpg","37","1","34"
"2","2","retrieval","new_objects","304","Feet.jpg","36","0","20"
"2","2","retrieval","new_objects","306","Axe.jpg","0","0","2000"
"2","2","retrieval","old_objects","307","Gloves_Winter.jpg","0","0","2000"
"2","2","retrieval","old_objects","308","OrigamiPaper.jpg","0","0","2000"
"2","2","retrieval","old_objects","309","Tape_Scotch.jpg","0","0","2000"
"2","2","retrieval","new_objects","310","Bird_Parrot.jpg","0","0","2000"
"2","2","retrieval","new_objects","311","Mat_Car.jpg","0","0","2000"
"2","2","retrieval","old_objects","312","Cheese_Platter.jpg","0","0","2000"
"2","2","retrieval","old_objects","313","Alfalfa.jpg","37","0","246"
"2","2","retrieval","old_objects","314","Tray_Wooden.jpg","36","1","60"
"2","2","retrieval","old_objects","315","Computer_CPU.jpg","36","1","69"
"2","2","retrieval","old_objects","316","Fish_Rockbass.jpg","36","1","94"
"2","2","retrieval","old_objects","317","Corn.jpg","36","1","89"
"2","2","retrieval","new_objects","318","Golf_Club.jpg","37","1","35"
"2","2","retrieval","new_objects","319","Heelpad.jpg","37","1","42"
"2","2","retrieval","new_objects","320","Dragonfly.jpg","37","1","3"
"2","2","retrieval","new_objects","321","Case_WoodenOrnate.jpg","36","0","47"
"2","2","retrieval","old_objects","322","Potato.jpg","37","0","36"
"2","2","retrieval","old_objects","323","Flower_Daisy.jpg","37","0","8"
"2","2","retrieval","new_objects","324","Toy_StackingRing.jpg","37","1","8"
"2","2","retrieval","old_objects","325","Cantaloupe.jpg","37","0","54"
"2","2","retrieval","old_objects","326","WorldMap.jpg","37","0","104"
"2","2","retrieval","old_objects","327","Pretzel_Sticks.jpg","37","0","55"
"2","2","retrieval","new_objects","328","Boots_KneeHigh.jpg","37","1","83"
"2","2","retrieval","old_objects","329","Switch_Power.jpg","37","0","181"
"2","2","retrieval","new_objects","330","Spoons_MeasuringAttached.jpg","37","1","67"
"2","2","retrieval","new_objects","331","Toy_Shark.jpg","37","1","27"
"2","2","retrieval","old_objects","332","CapGraduation.jpg","37","0","55"
"2","2","retrieval","old_objects","333","Sign_OneWay.jpg","37","0","39"
"2","2","retrieval","new_objects","334","Autocreeper.jpg","37","1","49"
"2","2","retrieval","new_objects","335","LintRemover.jpg","37","1","80"
"2","2","retrieval","new_objects","336","Faucet.jpg","37","1","11"
"2","2","retrieval","old_objects","337","Cucumber.jpg","37","0","97"
"2","2","retrieval","old_objects","338","LumiereBeautyBeast.jpg","37","0","102"
"2","2","retrieval","old_objects","339","Basket_Firewood.jpg","36","1","30"
"2","2","retrieval","new_objects","340","DeepFryer.jpg","36","0","8"
"2","2","retrieval","old_objects","341","Oars.jpg","36","1","72"
"2","2","retrieval","new_objects","342","CanOpener.jpg","36","0","73"
"2","2","retrieval","old_objects","343","Fruit_Orange.jpg","37","0","256"
"2","2","retrieval","new_objects","344","Cup_Latte.jpg","36","0","100"
"2","2","retrieval","old_objects","345","NeedlesAcupuncture.jpg","36","1","42"
"2","2","retrieval","new_objects","346","Diode.jpg","36","0","60"
"2","2","retrieval","new_objects","347","DentalFloss.jpg","36","0","204"
"2","2","retrieval","old_objects","348","CandyDispenser.jpg","37","0","45"
"2","2","retrieval","new_objects","349","Origami_Boat.jpg","37","1","142"
"2","2","retrieval","new_objects","350","Bag_Camera.jpg","37","1","65"
"2","2","retrieval","new_objects","351","FlintIgniter.jpg","37","1","204"
"2","2","retrieval","new_objects","352","Chicken_Dinner.jpg","37","1","169"
"2","2","retrieval","old_objects","353","Toy_DonkeyFur.jpg","37","0","218"
"2","2","retrieval","new_objects","354","Heater_Outdoor.jpg","37","1","30"
"2","2","retrieval","old_objects","355","Pricegun.jpg","37","0","123"
"2","2","demographics_block","gender","1","Pricegun.jpg","male","1","17692"
"2","2","demographics_block","age","1","Pricegun.jpg","31","1","17692"
"2","2","demographics_block","education","1","Pricegun.jpg","16","1","17692"
"2","2","demographics_block","left_right_handed","2","Pricegun.jpg","Right","1","9762"
"2","2","demographics_block","raceoption1","2","Pricegun.jpg","","1","9762"
"2","2","demographics_block","raceoption2","2","Pricegun.jpg","","1","9762"
"2","2","demographics_block","raceoption3","2","Pricegun.jpg","","1","9762"
"2","2","demographics_block","raceoption4","2","Pricegun.jpg","3","1","9762"
"2","2","demographics_block","raceoption5","2","Pricegun.jpg","","1","9762"
"2","2","demographics_block","raceoption6","2","Pricegun.jpg","","1","9762"
"2","2","demographics_block","raceoption7","2","Pricegun.jpg","","1","9762"
"2","2","demographics_block","raceoption8","2","Pricegun.jpg","","1","9762"
"2","2","demographics_block","raceoption9","2","Pricegun.jpg","","1","9762"
"2","2","demographics_block","raceother","2","Pricegun.jpg","","1","9762"
"2","2","demographics_block","raceother","2","Pricegun.jpg","","1","9762"
"2","2","demographics_block","english_language","2","Pricegun.jpg","Yes","1","9762"
"2","2","demographics_block","english_languageother","2","Pricegun.jpg","","1","9762"
"2","2","demographics_block","eyesight","3","Pricegun.jpg","Yes","1","12466"
"2","2","demographics_block","colorblind","3","Pricegun.jpg","No","1","12466"
"2","2","worker_id_block","worker_id_textbox","1","Pricegun.jpg","A1JWNGQFNYSCQC","1","12918"
"6","6","encoding","encoding","1","Slippers.jpg","1","0","1795"
"6","6","encoding","encoding","2","Chainsaw.jpg","6","0","1886"
"6","6","encoding","encoding","3","Hazelnut.jpg","4","0","1397"
"6","6","encoding","encoding","4","TubeRing.jpg","4","0","1244"
"6","6","encoding","encoding","5","Toy_DonkeyFur.jpg","2","0","1649"
"6","6","encoding","encoding","6","ClothRed.jpg","4","0","1954"
"6","6","encoding","encoding","7","Clamp.jpg","6","0","1274"
"6","6","encoding","encoding","8","LawnMower.jpg","5","0","2112"
"6","6","encoding","encoding","9","PlantPotted.jpg","5","0","1807"
"6","6","encoding","encoding","10","Airplane_Fighter.jpg","7","0","1327"
"6","6","encoding","encoding","11","Switch_Power.jpg","5","0","1941"
"6","6","encoding","encoding","12","Bag_Toiletry.jpg","6","0","2812"
"6","6","encoding","encoding","13","NeedlesAcupuncture.jpg","5","0","1966"
"6","6","encoding","encoding","14","Aquarium.jpg","3","0","2164"
"6","6","encoding","encoding","15","Exercise_Bike.jpg","7","0","2020"
"6","6","encoding","encoding","16","Pumpkin.jpg","7","0","1258"
"6","6","encoding","encoding","17","Vest.jpg","5","0","1623"
"6","6","encoding","encoding","18","SnowmanDecor.jpg","7","0","1154"
"6","6","encoding","encoding","19","Scythe.jpg","6","0","2129"
"6","6","encoding","encoding","20","Iguana.jpg","6","0","2008"
"6","6","encoding","encoding","21","SewingMachine.jpg","4","0","1381"
"6","6","encoding","encoding","22","Dog_SaintBernard.jpg","7","0","1253"
"6","6","encoding","encoding","23","Pepperoni.jpg","2","0","1430"
"6","6","encoding","encoding","24","Fence_ChainLink.jpg","2","0","1763"
"6","6","encoding","encoding","25","Jar_Cotton.jpg","0","0","3000"
"6","6","encoding","encoding","26","Scarecrow.jpg","3","0","1920"
"6","6","encoding","encoding","27","Bag_Computer.jpg","4","0","1097"
"6","6","encoding","encoding","28","Freezer.jpg","1","0","1978"
"6","6","encoding","encoding","29","Light_PostIsolated.jpg","4","0","1302"
"6","6","encoding","encoding","30","TowelRack_Brown.jpg","4","0","1340"
"6","6","encoding","encoding","31","Glass_Wine.jpg","2","0","2880"
"6","6","encoding","encoding","32","Ship_Cruise.jpg","7","0","1682"
"6","6","encoding","encoding","33","RollerBlade.jpg","6","0","1289"
"6","6","encoding","encoding","34","Clothespin_Beige.jpg","3","0","1366"
"6","6","encoding","encoding","35","CoffeeBeans.jpg","7","0","1513"
"6","6","encoding","encoding","36","Nightstand.jpg","4","0","1360"
"6","6","encoding","encoding","37","EyeExamDevice.jpg","2","0","1177"
"6","6","encoding","encoding","38","Pricegun.jpg","6","0","1567"
"6","6","encoding","encoding","39","Knee.jpg","1","0","1578"
"6","6","encoding","encoding","40","Computer_CPU.jpg","2","0","1721"
"6","6","encoding","encoding","41","GranolaBar.jpg","5","0","1439"
"6","6","encoding","encoding","42","Fence_Wooden.jpg","4","0","1351"
"6","6","encoding","encoding","43","Cantaloupe.jpg","5","0","1238"
"6","6","encoding","encoding","44","Brush_Light.jpg","1","0","1974"
"6","6","encoding","encoding","45","Candleholder_Tall.jpg","2","0","931"
"6","6","encoding","encoding","46","Drink_Green.jpg","5","0","1255"
"6","6","encoding","encoding","47","StringBean.jpg","1","0","2005"
"6","6","encoding","encoding","48","PotatoMasher_Zigzag.jpg","3","0","1275"
"6","6","encoding","encoding","49","Machine_Arm.jpg","5","0","1616"
"6","6","encoding","encoding","50","MortarPestle_BlackStone.jpg","4","0","1746"
"6","6","encoding","encoding","51","Sushi.jpg","7","0","1521"
"6","6","encoding","encoding","52","Gloves_Winter.jpg","4","0","2926"
"6","6","encoding","encoding","53","AirPump.jpg","5","0","1300"
"6","6","encoding","encoding","54","Jacket_Jean.jpg","5","0","1454"
"6","6","encoding","encoding","55","Mask_Buddhist.jpg","7","0","1405"
"6","6","encoding","encoding","56","Exercise_HandTrainer.jpg","2","0","1186"
"6","6","encoding","encoding","57","RecorderCassette.jpg","6","0","1661"
"6","6","encoding","encoding","58","ProcessorFood_Old.jpg","7","0","1419"
"6","6","encoding","encoding","59","Cheese_Platter.jpg","7","0","1409"
"6","6","encoding","encoding","60","Canister_Oil.jpg","1","0","1426"
"6","6","encoding","encoding","62","BicycleSeat.jpg","0","0","3000"
"6","6","encoding","encoding","63","Toy_Drill.jpg","6","0","1998"
"6","6","encoding","encoding","64","RickShaw.jpg","4","0","1646"
"6","6","encoding","encoding","65","Kite_Rainbow.jpg","6","0","1199"
"6","6","encoding","encoding","66","Kettle.jpg","1","0","1076"
"6","6","encoding","encoding","67","WorldMap.jpg","4","0","1439"
"6","6","encoding","encoding","68","Stovetop.jpg","5","0","1380"
"6","6","encoding","encoding","69","Scorpion.jpg","7","0","1481"
"6","6","encoding","encoding","70","Thermos_MetalSleek.jpg","7","0","1611"
"6","6","encoding","encoding","71","Toy_MerryGoRound.jpg","6","0","1819"
"6","6","encoding","encoding","72","Corn.jpg","4","0","1442"
"6","6","encoding","encoding","73","Altar.jpg","5","0","1138"
"6","6","encoding","encoding","74","Statue_Cat.jpg","7","0","1354"
"6","6","encoding","encoding","75","Heater_ElectricUpright.jpg","2","0","1472"
"6","6","encoding","encoding","76","Camera_ProfessionalFilm.jpg","5","0","1414"
"6","6","encoding","encoding","77","Pillar.jpg","1","0","1334"
"6","6","encoding","encoding","78","Toy_Turtle.jpg","7","0","1268"
"6","6","encoding","encoding","79","Ladle.jpg","3","0","1258"
"6","6","encoding","encoding","80","Cane_Metal.jpg","1","0","1219"
"6","6","encoding","encoding","81","Potato.jpg","3","0","1228"
"6","6","encoding","encoding","82","Lips_Wax.jpg","7","0","1323"
"6","6","encoding","encoding","83","ScannerShoplifting.jpg","4","0","1715"
"6","6","encoding","encoding","84","Battery_Car.jpg","6","0","1372"
"6","6","encoding","encoding","85","Jug_Wicker.jpg","7","0","1674"
"6","6","encoding","encoding","86","Decoration_Chinese.jpg","4","0","1409"
"6","6","encoding","encoding","87","OrigamiPaper.jpg","7","0","1930"
"6","6","encoding","encoding","88","Bed_ChildBirch.jpg","7","0","1608"
"6","6","encoding","encoding","89","Gun_Nerf.jpg","6","0","1362"
"6","6","encoding","encoding","90","Garlic_Whole.jpg","5","0","1200"
"6","6","encoding","encoding","91","Flower_Daisy.jpg","4","0","1439"
"6","6","encoding","encoding","92","Can_Oblong.jpg","1","0","1603"
"6","6","encoding","encoding","93","Asparagus.jpg","4","0","1269"
"6","6","encoding","encoding","94","SpinningWheel.jpg","6","0","1667"
"6","6","encoding","encoding","95","DrawingCompass.jpg","4","0","1390"
"6","6","encoding","encoding","96","BunsenBurner.jpg","4","0","1186"
"6","6","encoding","encoding","97","Jar_Money.jpg","7","0","1604"
"6","6","encoding","encoding","98","MalletJudge.jpg","7","0","1448"
"6","6","encoding","encoding","99","Alfalfa.jpg","3","0","1598"
"6","6","encoding","encoding","100","Jacket_Suit.jpg","7","0","1264"
"6","6","encoding","encoding","101","Can_Peas.jpg","4","0","1192"
"6","6","encoding","encoding","102","Jug_ClayAncient.jpg","7","0","1229"
"6","6","encoding","encoding","103","Pretzel_Sticks.jpg","1","0","1290"
"6","6","encoding","encoding","104","Bread_Loaf.jpg","5","0","1279"
"6","6","encoding","encoding","105","Pipe.jpg","1","0","1476"
"6","6","encoding","encoding","106","Cup_Fruits.jpg","7","0","1211"
"6","6","encoding","encoding","107","Knife_Butter.jpg","4","0","1020"
"6","6","encoding","encoding","108","BicycleReflector.jpg","7","0","1149"
"6","6","encoding","encoding","109","LifeJacket_BlueYellow.jpg","7","0","1096"
"6","6","encoding","encoding","110","Bindings_Snowboard.jpg","6","0","1408"
"6","6","encoding","encoding","111","Tape_Washi.jpg","3","0","1528"
"6","6","encoding","encoding","112","Olives.jpg","5","0","1169"
"6","6","encoding","encoding","113","Toy_DinosaurBrontosaurus.jpg","7","0","1048"
"6","6","encoding","encoding","114","Cucumber.jpg","7","0","1214"
"6","6","encoding","encoding","115","Lollipop_Rainbow.jpg","7","0","1076"
"6","6","encoding","encoding","116","Stool_Camping.jpg","3","0","1886"
"6","6","encoding","encoding","117","Mug_Beer.jpg","5","0","1244"
"6","6","encoding","encoding","118","Fruit_Orange.jpg","7","0","1325"
"6","6","encoding","encoding","119","Hat_Tuque.jpg","2","0","1181"
"6","6","encoding","encoding","120","Sieve_SideView.jpg","3","0","1235"
"6","6","encoding","encoding","121","Basket_Firewood.jpg","5","0","1114"
"6","6","encoding","encoding","123","Tweezers.jpg","3","0","1164"
"6","6","encoding","encoding","124","Zucchini.jpg","6","0","1384"
"6","6","encoding","encoding","125","Purse.jpg","7","0","1330"
"6","6","encoding","encoding","126","Toaster_MetalSleek.jpg","7","0","1410"
"6","6","encoding","encoding","127","Turtle.jpg","7","0","1191"
"6","6","encoding","encoding","128","Statue_Buddha.jpg","7","0","1296"
"6","6","encoding","encoding","129","Radio_Antique.jpg","7","0","903"
"6","6","encoding","encoding","130","Rake_Long.jpg","3","0","1918"
"6","6","encoding","encoding","131","Ship_Battle.jpg","6","0","1342"
"6","6","encoding","encoding","132","Trash_Medical.jpg","7","0","1132"
"6","6","encoding","encoding","133","Ostrich.jpg","7","0","937"
"6","6","encoding","encoding","134","Instrument_Nyckelharpa.jpg","7","0","826"
"6","6","encoding","encoding","135","Stapler_Gun.jpg","7","0","937"
"6","6","encoding","encoding","136","Amp.jpg","7","0","936"
"6","6","encoding","encoding","137","AmpMeter.jpg","5","0","1529"
"6","6","encoding","encoding","138","Iron_Antique.jpg","4","0","2250"
"6","6","encoding","encoding","139","Tortilla.jpg","2","0","1518"
"6","6","encoding","encoding","140","Thermostat_Digital.jpg","2","0","1382"
"6","6","encoding","encoding","141","TimerKitchen.jpg","1","0","1625"
"6","6","encoding","encoding","142","Tape_Scotch.jpg","1","0","1254"
"6","6","encoding","encoding","143","Stationary.jpg","7","0","1543"
"6","6","encoding","encoding","144","LumiereBeautyBeast.jpg","7","0","899"
"6","6","encoding","encoding","145","SledgeHammer.jpg","3","0","1178"
"6","6","encoding","encoding","146","Lens_ColourFilter.jpg","5","0","1684"
"6","6","encoding","encoding","147","Basket_Straw.jpg","1","0","1533"
"6","6","encoding","encoding","148","Hammer.jpg","4","0","1304"
"6","6","encoding","encoding","149","Ladder.jpg","4","0","2896"
"6","6","encoding","encoding","150","Oneholepunch.jpg","4","0","842"
"6","6","encoding","encoding","151","TigerWhite.jpg","7","0","1416"
"6","6","encoding","encoding","152","Suitcase.jpg","7","0","712"
"6","6","encoding","encoding","153","CDstack.jpg","4","0","1489"
"6","6","encoding","encoding","154","SoapDish.jpg","4","0","744"
"6","6","encoding","encoding","155","Pasta_Penne.jpg","2","0","1058"
"6","6","encoding","encoding","156","Tomato.jpg","7","0","1389"
"6","6","encoding","encoding","157","Escalator.jpg","7","0","1084"
"6","6","encoding","encoding","158","Radio_Modern.jpg","7","0","2061"
"6","6","encoding","encoding","159","Fish_Rockbass.jpg","5","0","1334"
"6","6","encoding","encoding","160","Mirror_Makeup.jpg","3","0","1283"
"6","6","encoding","encoding","161","Oars.jpg","4","0","1419"
"6","6","encoding","encoding","162","Telephone_TinCan.jpg","5","0","1252"
"6","6","encoding","encoding","163","JoustingSpear.jpg","2","0","1289"
"6","6","encoding","encoding","164","Sign_OneWay.jpg","5","0","1227"
"6","6","encoding","encoding","165","Bowl_Wooden.jpg","4","0","1009"
"6","6","encoding","encoding","166","Chair_Student.jpg","2","0","1335"
"6","6","encoding","encoding","167","Nuts_PeanutsPeeled.jpg","5","0","1024"
"6","6","encoding","encoding","168","Bread_Pita.jpg","6","0","1233"
"6","6","encoding","encoding","169","DoorBolt.jpg","5","0","1246"
"6","6","encoding","encoding","170","CandyDispenser.jpg","7","0","1184"
"6","6","encoding","encoding","171","Cassette_Video.jpg","5","0","1238"
"6","6","encoding","encoding","172","Bulldozer.jpg","7","0","1323"
"6","6","encoding","encoding","173","Castle_Sand.jpg","7","0","1597"
"6","6","encoding","encoding","174","Tray_Wooden.jpg","6","0","1188"
"6","6","encoding","encoding","175","Radio_Vintage.jpg","3","0","1074"
"6","6","encoding","encoding","176","Shrimp.jpg","2","0","1371"
"6","6","encoding","encoding","177","CapGraduation.jpg","5","0","1321"
"6","6","retrieval","new_objects","1","Bagel.jpg","36","0","1376"
"6","6","retrieval","new_objects","2","GasBurner.jpg","37","1","1122"
"6","6","retrieval","old_objects","3","Pasta_Penne.jpg","36","1","931"
"6","6","retrieval","new_objects","4","Shoes_WomenBoots.jpg","37","1","716"
"6","6","retrieval","old_objects","5","Radio_Modern.jpg","36","1","1108"
"6","6","retrieval","new_objects","6","Origami_Boat.jpg","37","1","736"
"6","6","retrieval","old_objects","7","Cucumber.jpg","36","1","982"
"6","6","retrieval","new_objects","8","Toys_Lego.jpg","37","1","863"
"6","6","retrieval","old_objects","9","AmpMeter.jpg","36","1","1037"
"6","6","retrieval","new_objects","10","Bucket_Rusty.jpg","37","1","1442"
"6","6","retrieval","old_objects","11","Fish_Rockbass.jpg","36","1","711"
"6","6","retrieval","new_objects","12","Pliers_SlipJoint.jpg","36","0","869"
"6","6","retrieval","old_objects","13","Candleholder_Tall.jpg","36","1","680"
"6","6","retrieval","old_objects","14","Tweezers.jpg","36","1","677"
"6","6","retrieval","new_objects","15","SolderingIron.jpg","37","1","740"
"6","6","retrieval","old_objects","16","RecorderCassette.jpg","36","1","729"
"6","6","retrieval","old_objects","17","Bag_Toiletry.jpg","36","1","762"
"6","6","retrieval","old_objects","18","Pillar.jpg","36","1","741"
"6","6","retrieval","old_objects","19","Basket_Firewood.jpg","36","1","671"
"6","6","retrieval","old_objects","20","Tomato.jpg","36","1","687"
"6","6","retrieval","new_objects","21","Shorts_Sports.jpg","37","1","806"
"6","6","retrieval","old_objects","22","Nuts_PeanutsPeeled.jpg","36","1","1077"
"6","6","retrieval","new_objects","23","Milkshake_StrawberryStraw.jpg","37","1","756"
"6","6","retrieval","old_objects","24","Kite_Rainbow.jpg","36","1","1378"
"6","6","retrieval","old_objects","25","Olives.jpg","36","1","987"
"6","6","retrieval","new_objects","26","Oyster.jpg","37","1","1387"
"6","6","retrieval","new_objects","27","Shrub_Cedar.jpg","37","1","1265"
"6","6","retrieval","old_objects","28","Fruit_Orange.jpg","36","1","678"
"6","6","retrieval","new_objects","29","MilkJug.jpg","0","0","2000"
"6","6","retrieval","old_objects","30","Jacket_Jean.jpg","36","1","814"
"6","6","retrieval","new_objects","31","Cheque.jpg","37","1","833"
"6","6","retrieval","old_objects","32","Battery_Car.jpg","36","1","1008"
"6","6","retrieval","new_objects","33","Box_Staples.jpg","37","1","805"
"6","6","retrieval","old_objects","34","Clamp.jpg","36","1","784"
"6","6","retrieval","new_objects","35","CanOpener.jpg","36","0","875"
"6","6","retrieval","old_objects","36","Alfalfa.jpg","36","1","747"
"6","6","retrieval","new_objects","37","Clock_Radioalarm.jpg","37","1","1144"
"6","6","retrieval","new_objects","38","Autocreeper.jpg","37","1","684"
"6","6","retrieval","old_objects","39","Rake_Long.jpg","36","1","687"
"6","6","retrieval","new_objects","40","Chicken_FriedWing.jpg","37","1","644"
"6","6","retrieval","new_objects","41","Dolly.jpg","37","1","1993"
"6","6","retrieval","new_objects","42","Candy_Caramel.jpg","37","1","628"
"6","6","retrieval","new_objects","43","Hammer_Reflex.jpg","37","1","1377"
"6","6","retrieval","old_objects","44","Stationary.jpg","36","1","678"
"6","6","retrieval","old_objects","45","Potato.jpg","36","1","730"
"6","6","retrieval","old_objects","46","DrawingCompass.jpg","36","1","627"
"6","6","retrieval","new_objects","47","Jar_Capers.jpg","37","1","651"
"6","6","retrieval","new_objects","48","GiftBow.jpg","37","1","675"
"6","6","retrieval","new_objects","49","Tube_Glue.jpg","37","1","626"
"6","6","retrieval","old_objects","50","Decoration_Chinese.jpg","36","1","722"
"6","6","retrieval","new_objects","51","WaterColorPaintset.jpg","37","1","554"
"6","6","retrieval","old_objects","52","LifeJacket_BlueYellow.jpg","36","1","888"
"6","6","retrieval","new_objects","53","Toy_Helicopter.jpg","37","1","1502"
"6","6","retrieval","new_objects","54","Bird_Parrot.jpg","37","1","601"
"6","6","retrieval","old_objects","55","CandyDispenser.jpg","36","1","667"
"6","6","retrieval","new_objects","56","CartonEggs.jpg","37","1","646"
"6","6","retrieval","new_objects","57","PeriodicTable.jpg","37","1","641"
"6","6","retrieval","old_objects","58","RickShaw.jpg","36","1","666"
"6","6","retrieval","old_objects","59","Statue_Cat.jpg","36","1","579"
"6","6","retrieval","new_objects","60","Leek.jpg","37","1","844"
"6","6","retrieval","old_objects","62","Canister_Oil.jpg","36","1","1296"
"6","6","retrieval","new_objects","63","OvenElement.jpg","37","1","687"
"6","6","retrieval","new_objects","64","Neckrest.jpg","37","1","442"
"6","6","retrieval","new_objects","65","Stepper.jpg","36","0","828"
"6","6","retrieval","old_objects","66","BicycleReflector.jpg","36","1","677"
"6","6","retrieval","old_objects","67","Radio_Vintage.jpg","36","1","598"
"6","6","retrieval","old_objects","68","Cane_Metal.jpg","36","1","591"
"6","6","retrieval","new_objects","69","DentistOverheadLight.jpg","37","1","670"
"6","6","retrieval","new_objects","70","Toy_PandaPlushie.jpg","37","1","657"
"6","6","retrieval","new_objects","71","FlintIgniter.jpg","37","1","612"
"6","6","retrieval","old_objects","72","SewingMachine.jpg","36","1","655"
"6","6","retrieval","new_objects","73","Phone_Flip.jpg","37","1","976"
"6","6","retrieval","old_objects","74","Instrument_Nyckelharpa.jpg","36","1","1270"
"6","6","retrieval","old_objects","75","Suitcase.jpg","36","1","688"
"6","6","retrieval","new_objects","76","SpiderWeb.jpg","37","1","550"
"6","6","retrieval","old_objects","77","Jar_Money.jpg","36","1","715"
"6","6","retrieval","old_objects","78","Chainsaw.jpg","36","1","664"
"6","6","retrieval","new_objects","79","Cup_Latte.jpg","37","1","627"
"6","6","retrieval","old_objects","80","Fence_ChainLink.jpg","36","1","837"
"6","6","retrieval","new_objects","81","Easel.jpg","36","0","832"
"6","6","retrieval","old_objects","82","AirPump.jpg","36","1","759"
"6","6","retrieval","old_objects","83","Sushi.jpg","36","1","714"
"6","6","retrieval","new_objects","84","ComputerKeyboard_Backspace.jpg","37","1","685"
"6","6","retrieval","old_objects","85","JoustingSpear.jpg","36","1","635"
"6","6","retrieval","new_objects","86","Tray_Metal.jpg","37","1","555"
"6","6","retrieval","new_objects","87","Bottle_Blue.jpg","37","1","670"
"6","6","retrieval","old_objects","88","Pepperoni.jpg","36","1","545"
"6","6","retrieval","new_objects","89","BoxTrailer.jpg","37","1","615"
"6","6","retrieval","new_objects","90","Licorice.jpg","37","1","672"
"6","6","retrieval","old_objects","91","Hat_Tuque.jpg","36","1","556"
"6","6","retrieval","new_objects","92","Stick_IceHockey.jpg","36","0","604"
"6","6","retrieval","old_objects","93","Tray_Wooden.jpg","36","1","559"
"6","6","retrieval","new_objects","94","Lettuce_Romaine.jpg","37","1","776"
"6","6","retrieval","new_objects","95","Bag_Saline.jpg","37","1","554"
"6","6","retrieval","new_objects","96","SundaeBanana.jpg","37","1","541"
"6","6","retrieval","new_objects","97","Boots_KneeHigh.jpg","37","1","505"
"6","6","retrieval","new_objects","98","Knife_Kitchen.jpg","37","1","572"
"6","6","retrieval","old_objects","99","Chair_Student.jpg","36","1","518"
"6","6","retrieval","old_objects","100","ScannerShoplifting.jpg","36","1","715"
"6","6","retrieval","old_objects","101","Mirror_Makeup.jpg","36","1","1584"
"6","6","retrieval","new_objects","102","Keychain_Metal.jpg","37","1","544"
"6","6","retrieval","new_objects","103","Heelpad.jpg","37","1","677"
"6","6","retrieval","new_objects","104","Cougar.jpg","37","1","647"
"6","6","retrieval","new_objects","105","Bag_Camera.jpg","37","1","908"
"6","6","retrieval","old_objects","106","LumiereBeautyBeast.jpg","36","1","562"
"6","6","retrieval","old_objects","107","Stovetop.jpg","36","1","801"
"6","6","retrieval","old_objects","108","MortarPestle_BlackStone.jpg","36","1","790"
"6","6","retrieval","new_objects","109","Flower_Sun.jpg","37","1","565"
"6","6","retrieval","new_objects","110","PickupTruck.jpg","37","1","540"
"6","6","retrieval","old_objects","111","Can_Peas.jpg","36","1","545"
"6","6","retrieval","new_objects","112","Hat_Sheriff.jpg","37","1","558"
"6","6","retrieval","old_objects","113","SledgeHammer.jpg","36","1","730"
"6","6","retrieval","new_objects","114","Dresser.jpg","37","1","740"
"6","6","retrieval","new_objects","115","Barrel_Upright.jpg","37","1","751"
"6","6","retrieval","new_objects","116","Axe.jpg","36","0","509"
