"group","subject","blockcode","trialcode","trialnum","values.stimulus","response","correct","latency"
"3","3","encoding","encoding","1","Chest.jpg","2","0","1814"
"3","3","encoding","encoding","2","Armchair.jpg","2","0","936"
"3","3","encoding","encoding","3","Pen_Ballpoint.jpg","1","0","1753"
"3","3","encoding","encoding","4","Whip.jpg","2","0","1921"
"3","3","encoding","encoding","5","DrillBit.jpg","2","0","1990"
"3","3","encoding","encoding","6","Jug_Milk.jpg","3","0","1973"
"3","3","encoding","encoding","7","Steamer.jpg","2","0","1941"
"3","3","encoding","encoding","8","Sock_Ankle.jpg","3","0","2069"
"3","3","encoding","encoding","9","Toolbox_RedOpen.jpg","2","0","2093"
"3","3","encoding","encoding","10","Tap.jpg","3","0","2077"
"3","3","encoding","encoding","11","Watch.jpg","2","0","2827"
"3","3","encoding","encoding","12","CoffeeLid.jpg","1","0","2317"
"3","3","encoding","encoding","13","Milkshake_Chocolate.jpg","4","0","1938"
"3","3","encoding","encoding","14","PuppetTheatre_WhiteGold.jpg","2","0","2182"
"3","3","encoding","encoding","15","Triangle.jpg","1","0","2196"
"3","3","encoding","encoding","16","Bottle_Beer.jpg","2","0","2035"
"3","3","encoding","encoding","17","CarSeat.jpg","0","0","3000"
"3","3","encoding","encoding","18","Necklace_Pearl.jpg","2","0","2540"
"3","3","encoding","encoding","19","Staples.jpg","1","0","2361"
"3","3","encoding","encoding","20","Pasta_Macaroni.jpg","3","0","2474"
"3","3","encoding","encoding","21","Clock_Wall.jpg","1","0","2128"
"3","3","encoding","encoding","22","Ball_Baseball.jpg","2","0","1561"
"3","3","encoding","encoding","23","ScrewDriver.jpg","1","0","1745"
"3","3","encoding","encoding","24","CoffeeGrinder.jpg","3","0","2293"
"3","3","encoding","encoding","25","Keyhole.jpg","1","0","1706"
"3","3","encoding","encoding","26","Bag_Satchel.jpg","2","0","1915"
"3","3","encoding","encoding","27","Snorkle.jpg","1","0","1977"
"3","3","encoding","encoding","28","Bird_CanadianGoose.jpg","3","0","2246"
"3","3","encoding","encoding","29","Helmet_Knight.jpg","1","0","2094"
"3","3","encoding","encoding","30","PumiceStone.jpg","2","0","1452"
"3","3","encoding","encoding","31","Colosseum.jpg","3","0","1457"
"3","3","encoding","encoding","32","MeasuringTape.jpg","1","0","1800"
"3","3","encoding","encoding","33","Mixer_Hand.jpg","1","0","2537"
"3","3","encoding","encoding","34","Hat_Colonial.jpg","2","0","1765"
"3","3","encoding","encoding","35","Toy_Shapesorter.jpg","2","0","1577"
"3","3","encoding","encoding","36","Knife_Camping.jpg","1","0","2931"
"3","3","encoding","encoding","37","Cow.jpg","1","0","2699"
"3","3","encoding","encoding","38","Bowl_Fruits.jpg","4","0","2160"
"3","3","encoding","encoding","39","Colander.jpg","1","0","1823"
"3","3","encoding","encoding","40","Glasses_Sun.jpg","2","0","1709"
"3","3","encoding","encoding","41","Flamingo_Real.jpg","2","0","1713"
"3","3","encoding","encoding","42","Microwave.jpg","1","0","1982"
"3","3","encoding","encoding","43","Cane_Wooden.jpg","1","0","2180"
"3","3","encoding","encoding","44","Exercise_Stepper.jpg","1","0","1925"
"3","3","encoding","encoding","45","Table_Magazine.jpg","1","0","2238"
"3","3","encoding","encoding","46","MannequinBust.jpg","1","0","2743"
"3","3","encoding","encoding","47","Loveseat.jpg","1","0","1880"
"3","3","encoding","encoding","48","Cabinet_Office.jpg","2","0","1773"
"3","3","encoding","encoding","49","Leg.jpg","1","0","1904"
"3","3","encoding","encoding","50","Envelope_Manila.jpg","1","0","1647"
"3","3","encoding","encoding","51","Cup_Bathroom.jpg","1","0","1556"
"3","3","encoding","encoding","52","Candy_Heart.jpg","2","0","2232"
"3","3","encoding","encoding","53","MemoPaperSpike.jpg","1","0","1994"
"3","3","encoding","encoding","54","Clam.jpg","1","0","2036"
"3","3","encoding","encoding","55","FireExtinguisher.jpg","1","0","1827"
"3","3","encoding","encoding","56","ServiceBell.jpg","1","0","1672"
"3","3","encoding","encoding","57","Canister_Tea.jpg","3","0","2503"
"3","3","encoding","encoding","58","Staircase_Curving.jpg","1","0","1415"
"3","3","encoding","encoding","59","Hubcap.jpg","1","0","1383"
"3","3","encoding","encoding","60","Box_Package.jpg","1","0","1592"
"3","3","encoding","encoding","62","Shovel_Garden.jpg","1","0","1578"
"3","3","encoding","encoding","63","Gametable_AirHockey.jpg","1","0","1765"
"3","3","encoding","encoding","64","DJMixer.jpg","3","0","2986"
"3","3","encoding","encoding","65","House_Wooden.jpg","3","0","1719"
"3","3","encoding","encoding","66","Gun_Bazooka.jpg","1","0","2378"
"3","3","encoding","encoding","67","Cable_JumpStart.jpg","1","0","1167"
"3","3","encoding","encoding","68","Card_QueenSpade.jpg","1","0","1376"
"3","3","encoding","encoding","69","IceCrusher.jpg","1","0","2027"
"3","3","encoding","encoding","70","Box_Chocolate.jpg","5","0","2088"
"3","3","encoding","encoding","71","Gum_Pack.jpg","2","0","1883"
"3","3","encoding","encoding","72","SpinalCord.jpg","1","0","1958"
"3","3","encoding","encoding","73","Shoe_Sneaker.jpg","1","0","1297"
"3","3","encoding","encoding","74","Truck_Tanker.jpg","1","0","1311"
"3","3","encoding","encoding","75","Tractor_Orange.jpg","1","0","1428"
"3","3","encoding","encoding","76","Kangaroo_WithJoey.jpg","1","0","1546"
"3","3","encoding","encoding","77","Lipstick.jpg","1","0","1305"
"3","3","encoding","encoding","78","Tree_ChristmasMini.jpg","1","0","1170"
"3","3","encoding","encoding","79","Cologne.jpg","1","0","936"
"3","3","encoding","encoding","80","Pig.jpg","1","0","1395"
"3","3","encoding","encoding","81","Magnet_Three.jpg","1","0","1736"
"3","3","encoding","encoding","82","SaladCaesar.jpg","4","0","2732"
"3","3","encoding","encoding","83","ClothesDryingRack.jpg","1","0","2050"
"3","3","encoding","encoding","84","Cheesegrater_Box.jpg","1","0","1561"
"3","3","encoding","encoding","85","Mask_Ski.jpg","1","0","1985"
"3","3","encoding","encoding","86","PictureFrame.jpg","1","0","1592"
"3","3","encoding","encoding","87","Sign_Airport.jpg","1","0","1269"
"3","3","encoding","encoding","88","Napkin_Holder.jpg","1","0","1994"
"3","3","encoding","encoding","89","Scoop_Flour.jpg","1","0","2053"
"3","3","encoding","encoding","90","BikiniTop.jpg","1","0","1976"
"3","3","encoding","encoding","91","Clip_Binder.jpg","1","0","1631"
"3","3","encoding","encoding","92","Garbage_GreenBin.jpg","1","0","1309"
"3","3","encoding","encoding","93","Accordion.jpg","1","0","1627"
"3","3","encoding","encoding","94","Lens_Camera.jpg","1","0","1663"
"3","3","encoding","encoding","95","Seashell_BayScallop.jpg","1","0","1721"
"3","3","encoding","encoding","96","Speaker_Single.jpg","1","0","1209"
"3","3","encoding","encoding","97","Box_JeweleryWooden.jpg","1","0","1571"
"3","3","encoding","encoding","98","PencilCase.jpg","1","0","1718"
"3","3","encoding","encoding","99","Toy_WoodenPlainSingle.jpg","1","0","1359"
"3","3","encoding","encoding","100","Branch.jpg","1","0","1448"
"3","3","encoding","encoding","101","Leaf_Yellow.jpg","1","0","1120"
"3","3","encoding","encoding","102","HandMixer.jpg","1","0","1039"
"3","3","encoding","encoding","103","Book_Leather.jpg","1","0","1353"
"3","3","encoding","encoding","104","PillBottle_Prescription.jpg","1","0","1491"
"3","3","encoding","encoding","105","SofaAntique.jpg","1","0","1192"
"3","3","encoding","encoding","106","Skirt_Stripes.jpg","1","0","1289"
"3","3","encoding","encoding","107","Candle_Blue.jpg","1","0","1896"
"3","3","encoding","encoding","108","FlipFlop_PairBlue.jpg","1","0","1279"
"3","3","encoding","encoding","109","Table_Poker.jpg","2","0","1841"
"3","3","encoding","encoding","110","House_CeramicGingerbread.jpg","3","0","2073"
"3","3","encoding","encoding","111","Mallet.jpg","1","0","1433"
"3","3","encoding","encoding","112","Ball_Basketball.jpg","1","0","1108"
"3","3","encoding","encoding","113","Comb.jpg","1","0","1196"
"3","3","encoding","encoding","114","Flower_Tulip.jpg","2","0","2387"
"3","3","encoding","encoding","115","PaperTowel_Kitchen.jpg","1","0","1545"
"3","3","encoding","encoding","116","Jar_Empty.jpg","2","0","1801"
"3","3","encoding","encoding","117","Sign_Taxi.jpg","1","0","1454"
"3","3","encoding","encoding","118","Toy_Moose.jpg","1","0","1815"
"3","3","encoding","encoding","119","ToothbrushHolder.jpg","1","0","2034"
"3","3","encoding","encoding","120","Shirt_Tshirt.jpg","1","0","2030"
"3","3","encoding","encoding","121","Can_Milk.jpg","1","0","1821"
"3","3","encoding","encoding","123","FileFolder.jpg","1","0","1271"
"3","3","encoding","encoding","124","Brush_Makeup.jpg","1","0","1351"
"3","3","encoding","encoding","125","Mat_Door.jpg","1","0","1519"
"3","3","encoding","encoding","126","Shovel_Sandbox.jpg","1","0","1299"
"3","3","encoding","encoding","127","Garbage_Can.jpg","1","0","1439"
"3","3","encoding","encoding","128","Heater_ElectricPortable.jpg","1","0","2079"
"3","3","encoding","encoding","129","Drum_Set.jpg","3","0","1511"
"3","3","encoding","encoding","130","Cord_Ethernet.jpg","1","0","2228"
"3","3","encoding","encoding","131","Piano_Upright.jpg","4","0","2345"
"3","3","encoding","encoding","132","Van.jpg","0","0","3000"
"3","3","encoding","encoding","133","Toy_RaceTrack.jpg","1","0","1456"
"3","3","encoding","encoding","134","Airplane_Small.jpg","1","0","2719"
"3","3","encoding","encoding","135","SpaceRover.jpg","2","0","2253"
"3","3","encoding","encoding","136","Hook_Double.jpg","1","0","2009"
"3","3","encoding","encoding","137","Lock_Combination.jpg","1","0","1912"
"3","3","encoding","encoding","138","Spider.jpg","2","0","2539"
"3","3","encoding","encoding","139","Toy_Alien.jpg","1","0","2352"
"3","3","encoding","encoding","140","Camel_Bactrian.jpg","3","0","2743"
"3","3","encoding","encoding","141","Coin.jpg","1","0","1477"
"3","3","encoding","encoding","142","Bench_Wooden.jpg","1","0","1371"
"3","3","encoding","encoding","143","Chair_Barber.jpg","1","0","1429"
"3","3","encoding","encoding","144","Briefcase_Leather.jpg","3","0","1791"
"3","3","encoding","encoding","145","LeafBlower.jpg","1","0","2162"
"3","3","encoding","encoding","146","Hook_Fishing.jpg","1","0","2183"
"3","3","encoding","encoding","147","Candy_GummyBear.jpg","1","0","2653"
"3","3","encoding","encoding","148","BinRecycling.jpg","1","0","2422"
"3","3","encoding","encoding","149","Toy_BearBluePlushie.jpg","1","0","2705"
"3","3","encoding","encoding","150","Hat_Party.jpg","1","0","1748"
"3","3","encoding","encoding","151","Almond.jpg","3","0","2679"
"3","3","encoding","encoding","152","DogToy.jpg","1","0","1917"
"3","3","encoding","encoding","153","Box_WoodenOpen.jpg","1","0","2080"
"3","3","encoding","encoding","154","SatelliteDish.jpg","1","0","1918"
"3","3","encoding","encoding","155","DustPan.jpg","1","0","2177"
"3","3","encoding","encoding","156","Stove_WithOven.jpg","1","0","2414"
"3","3","encoding","encoding","157","Toy_ElephantPlastic.jpg","0","0","3000"
"3","3","encoding","encoding","158","FlipFlop_SingleRed.jpg","1","0","1550"
"3","3","encoding","encoding","159","HairScrunchie.jpg","1","0","2164"
"3","3","encoding","encoding","160","Car_Totalled.jpg","2","0","1767"
"3","3","encoding","encoding","161","StickyTack.jpg","1","0","1467"
"3","3","encoding","encoding","162","Tickets_Blank.jpg","1","0","1320"
"3","3","encoding","encoding","163","Stone_AncientWriting.jpg","1","0","1322"
"3","3","encoding","encoding","164","Toy_DollHomeMade.jpg","1","0","1715"
"3","3","encoding","encoding","165","Seashell_RoseMurex.jpg","1","0","1999"
"3","3","encoding","encoding","166","PhoneJack.jpg","1","0","1955"
"3","3","encoding","encoding","167","Gorilla.jpg","2","0","2087"
"3","3","encoding","encoding","168","WaterFountain.jpg","1","0","2267"
"3","3","encoding","encoding","169","Tickets_PrintWords.jpg","1","0","1951"
"3","3","encoding","encoding","170","SmokeDetector.jpg","1","0","1897"
"3","3","encoding","encoding","171","Teabag.jpg","1","0","2182"
"3","3","encoding","encoding","172","Mask_VenetianCat.jpg","3","0","1865"
"3","3","encoding","encoding","173","Candelabra.jpg","1","0","1707"
"3","3","encoding","encoding","174","Chair_Airplane.jpg","1","0","1867"
"3","3","encoding","encoding","175","Stove_Portable.jpg","1","0","1952"
"3","3","encoding","encoding","176","Pickaxe.jpg","1","0","2474"
"3","3","encoding","encoding","177","Ruler_Metal.jpg","0","0","3000"
"3","3","retrieval","old_objects","1","Clip_Binder.jpg","36","1","1160"
"3","3","retrieval","new_objects","2","Camera_ProfessionalFilm.jpg","37","1","846"
"3","3","retrieval","new_objects","3","Cucumber.jpg","37","1","785"
"3","3","retrieval","new_objects","4","Basket_Firewood.jpg","37","1","873"
"3","3","retrieval","new_objects","5","Can_Peas.jpg","37","1","658"
"3","3","retrieval","new_objects","6","Fruit_Orange.jpg","37","1","775"
"3","3","retrieval","old_objects","7","Car_Totalled.jpg","36","1","892"
"3","3","retrieval","old_objects","8","PencilCase.jpg","37","0","704"
"3","3","retrieval","old_objects","9","Skirt_Stripes.jpg","36","1","626"
"3","3","retrieval","old_objects","10","Colosseum.jpg","36","1","595"
"3","3","retrieval","old_objects","11","Gametable_AirHockey.jpg","36","1","509"
"3","3","retrieval","old_objects","12","WaterFountain.jpg","36","1","558"
"3","3","retrieval","new_objects","13","Kite_Rainbow.jpg","37","1","620"
"3","3","retrieval","old_objects","14","Pen_Ballpoint.jpg","36","1","727"
"3","3","retrieval","new_objects","15","Jar_Money.jpg","37","1","634"
"3","3","retrieval","new_objects","16","Iron_Antique.jpg","36","0","809"
"3","3","retrieval","new_objects","17","Altar.jpg","37","1","861"
"3","3","retrieval","old_objects","18","HandMixer.jpg","37","0","1007"
"3","3","retrieval","old_objects","19","CoffeeLid.jpg","36","1","770"
"3","3","retrieval","new_objects","20","Fence_ChainLink.jpg","37","1","803"
"3","3","retrieval","old_objects","21","Staples.jpg","36","1","674"
"3","3","retrieval","new_objects","22","Pricegun.jpg","37","1","828"
"3","3","retrieval","new_objects","23","Mask_Buddhist.jpg","37","1","744"
"3","3","retrieval","old_objects","24","Seashell_BayScallop.jpg","36","1","716"
"3","3","retrieval","old_objects","25","Mask_Ski.jpg","36","1","699"
"3","3","retrieval","new_objects","26","Kettle.jpg","36","0","691"
"3","3","retrieval","new_objects","27","RollerBlade.jpg","37","1","742"
"3","3","retrieval","new_objects","28","CDstack.jpg","37","1","1018"
"3","3","retrieval","new_objects","29","JoustingSpear.jpg","37","1","898"
"3","3","retrieval","old_objects","30","PictureFrame.jpg","36","1","654"
"3","3","retrieval","new_objects","31","Cantaloupe.jpg","36","0","613"
"3","3","retrieval","new_objects","32","Amp.jpg","37","1","642"
"3","3","retrieval","new_objects","33","Toy_Drill.jpg","37","1","787"
"3","3","retrieval","old_objects","34","DogToy.jpg","36","1","751"
"3","3","retrieval","old_objects","35","Tractor_Orange.jpg","37","0","914"
"3","3","retrieval","old_objects","36","Milkshake_Chocolate.jpg","36","1","630"
"3","3","retrieval","old_objects","37","Truck_Tanker.jpg","37","0","1386"
"3","3","retrieval","old_objects","38","PillBottle_Prescription.jpg","36","1","824"
"3","3","retrieval","old_objects","39","SmokeDetector.jpg","36","1","740"
"3","3","retrieval","old_objects","40","Tap.jpg","36","1","690"
"3","3","retrieval","old_objects","41","Clock_Wall.jpg","36","1","574"
"3","3","retrieval","old_objects","42","MannequinBust.jpg","36","1","665"
"3","3","retrieval","new_objects","43","ClothRed.jpg","37","1","597"
"3","3","retrieval","new_objects","44","Tortilla.jpg","37","1","736"
"3","3","retrieval","new_objects","45","ScannerShoplifting.jpg","37","1","1100"
"3","3","retrieval","old_objects","46","Cane_Wooden.jpg","36","1","689"
"3","3","retrieval","new_objects","47","Jacket_Suit.jpg","37","1","704"
"3","3","retrieval","new_objects","48","MalletJudge.jpg","36","0","912"
"3","3","retrieval","new_objects","49","Oneholepunch.jpg","37","1","670"
"3","3","retrieval","old_objects","50","Cheesegrater_Box.jpg","36","1","719"
"3","3","retrieval","old_objects","51","Lipstick.jpg","36","1","602"
"3","3","retrieval","old_objects","52","ScrewDriver.jpg","36","1","949"
"3","3","retrieval","old_objects","53","Pickaxe.jpg","36","1","593"
"3","3","retrieval","old_objects","54","Garbage_Can.jpg","36","1","788"
"3","3","retrieval","old_objects","55","Staircase_Curving.jpg","37","0","703"
"3","3","retrieval","new_objects","56","Stovetop.jpg","36","0","945"
"3","3","retrieval","new_objects","57","Bag_Toiletry.jpg","37","1","760"
"3","3","retrieval","old_objects","58","Shovel_Sandbox.jpg","36","1","666"
"3","3","retrieval","old_objects","59","Flower_Tulip.jpg","36","1","759"
"3","3","retrieval","old_objects","60","Hook_Double.jpg","36","1","677"
"3","3","retrieval","old_objects","62","PaperTowel_Kitchen.jpg","37","0","1121"
"3","3","retrieval","old_objects","63","Brush_Makeup.jpg","36","1","569"
"3","3","retrieval","new_objects","64","CandyDispenser.jpg","37","1","628"
"3","3","retrieval","new_objects","65","Trash_Medical.jpg","37","1","622"
"3","3","retrieval","old_objects","66","Keyhole.jpg","36","1","513"
"3","3","retrieval","new_objects","67","SledgeHammer.jpg","36","0","495"
"3","3","retrieval","new_objects","68","Thermos_MetalSleek.jpg","36","0","576"
"3","3","retrieval","old_objects","69","Airplane_Small.jpg","36","1","669"
"3","3","retrieval","old_objects","70","Sign_Airport.jpg","37","0","759"
"3","3","retrieval","new_objects","71","Stationary.jpg","37","1","680"
"3","3","retrieval","new_objects","72","PotatoMasher_Zigzag.jpg","37","1","804"
"3","3","retrieval","old_objects","73","FlipFlop_PairBlue.jpg","36","1","602"
"3","3","retrieval","new_objects","74","Bindings_Snowboard.jpg","37","1","943"
"3","3","retrieval","old_objects","75","Table_Poker.jpg","36","1","760"
"3","3","retrieval","old_objects","76","Toy_DollHomeMade.jpg","36","1","675"
"3","3","retrieval","old_objects","77","PumiceStone.jpg","36","1","671"
"3","3","retrieval","new_objects","78","Jar_Cotton.jpg","37","1","708"
"3","3","retrieval","old_objects","79","Comb.jpg","36","1","580"
"3","3","retrieval","new_objects","80","Thermostat_Digital.jpg","37","1","669"
"3","3","retrieval","new_objects","81","StringBean.jpg","37","1","1357"
"3","3","retrieval","old_objects","82","Almond.jpg","36","1","685"
"3","3","retrieval","new_objects","83","Sign_OneWay.jpg","37","1","1083"
"3","3","retrieval","new_objects","84","Radio_Vintage.jpg","37","1","624"
"3","3","retrieval","new_objects","85","DrawingCompass.jpg","37","1","1108"
"3","3","retrieval","new_objects","86","Gloves_Winter.jpg","37","1","918"
"3","3","retrieval","old_objects","87","Toy_BearBluePlushie.jpg","0","0","2000"
"3","3","retrieval","old_objects","88","Teabag.jpg","36","1","845"
"3","3","retrieval","new_objects","89","Statue_Buddha.jpg","37","1","1259"
"3","3","retrieval","old_objects","90","LeafBlower.jpg","37","0","1169"
"3","3","retrieval","old_objects","91","PhoneJack.jpg","37","0","1188"
"3","3","retrieval","new_objects","92","Ladder.jpg","37","1","1510"
"3","3","retrieval","old_objects","93","DJMixer.jpg","36","1","894"
"3","3","retrieval","new_objects","94","Ship_Cruise.jpg","37","1","748"
"3","3","retrieval","new_objects","95","Mug_Beer.jpg","37","1","787"
"3","3","retrieval","new_objects","96","Telephone_TinCan.jpg","36","0","1126"
"3","3","retrieval","new_objects","97","Freezer.jpg","37","1","769"
"3","3","retrieval","old_objects","98","Leaf_Yellow.jpg","36","1","607"
"3","3","retrieval","old_objects","99","Table_Magazine.jpg","36","1","787"
"3","3","retrieval","new_objects","100","Scythe.jpg","37","1","737"
"3","3","retrieval","new_objects","101","Chainsaw.jpg","37","1","1122"
"3","3","retrieval","old_objects","102","Mask_VenetianCat.jpg","36","1","642"
"3","3","retrieval","new_objects","103","Alfalfa.jpg","37","1","1434"
"3","3","retrieval","new_objects","104","Jug_ClayAncient.jpg","36","0","1309"
"3","3","retrieval","old_objects","105","Chair_Airplane.jpg","36","1","680"
"3","3","retrieval","old_objects","106","Sign_Taxi.jpg","36","1","782"
"3","3","retrieval","old_objects","107","Steamer.jpg","37","0","634"
"3","3","retrieval","old_objects","108","Ruler_Metal.jpg","36","1","866"
"3","3","retrieval","new_objects","109","Ostrich.jpg","37","1","635"
"3","3","retrieval","old_objects","110","Van.jpg","37","0","1163"
"3","3","retrieval","old_objects","111","FireExtinguisher.jpg","36","1","841"
"3","3","retrieval","new_objects","112","Cheese_Platter.jpg","37","1","824"
"3","3","retrieval","old_objects","113","House_CeramicGingerbread.jpg","36","1","780"
"3","3","retrieval","old_objects","114","Mat_Door.jpg","36","1","790"
"3","3","retrieval","old_objects","115","Book_Leather.jpg","36","1","636"
"3","3","retrieval","old_objects","116","Bench_Wooden.jpg","37","0","616"
"3","3","retrieval","new_objects","117","Suitcase.jpg","37","1","783"
"3","3","retrieval","old_objects","118","Camel_Bactrian.jpg","36","1","574"
"3","3","retrieval","old_objects","119","Armchair.jpg","37","0","664"
"3","3","retrieval","new_objects","120","TimerKitchen.jpg","37","1","771"
"3","3","retrieval","old_objects","121","Gun_Bazooka.jpg","37","0","713"
"3","3","retrieval","new_objects","123","Bed_ChildBirch.jpg","37","1","629"
"3","3","retrieval","new_objects","124","Radio_Antique.jpg","36","0","1205"
"3","3","retrieval","new_objects","125","Heater_ElectricUpright.jpg","37","1","856"
"3","3","retrieval","old_objects","126","Hat_Party.jpg","37","0","1094"
"3","3","retrieval","old_objects","127","Sock_Ankle.jpg","36","1","1141"
"3","3","retrieval","new_objects","128","Potato.jpg","37","1","826"
"3","3","retrieval","new_objects","129","Gun_Nerf.jpg","37","1","1104"
"3","3","retrieval","old_objects","130","Hubcap.jpg","37","0","1407"
"3","3","retrieval","old_objects","131","Stove_WithOven.jpg","37","0","772"
"3","3","retrieval","new_objects","132","BunsenBurner.jpg","36","0","1116"
"3","3","retrieval","old_objects","133","HairScrunchie.jpg","36","1","969"
"3","3","retrieval","old_objects","134","Watch.jpg","36","1","1603"
"3","3","retrieval","new_objects","135","Ladle.jpg","37","1","1491"
"3","3","retrieval","old_objects","136","Pasta_Macaroni.jpg","36","1","1134"
"3","3","retrieval","new_objects","137","Toy_DinosaurBrontosaurus.jpg","36","0","1533"
"3","3","retrieval","new_objects","138","LumiereBeautyBeast.jpg","37","1","976"
"3","3","retrieval","old_objects","139","Snorkle.jpg","36","1","891"
"3","3","retrieval","old_objects","140","Lens_Camera.jpg","37","0","1309"
"3","3","retrieval","new_objects","141","Exercise_HandTrainer.jpg","37","1","1462"
"3","3","retrieval","new_objects","142","Decoration_Chinese.jpg","37","1","972"
"3","3","retrieval","old_objects","143","Shovel_Garden.jpg","36","1","1163"
"3","3","retrieval","old_objects","144","Spider.jpg","36","1","771"
"3","3","retrieval","old_objects","145","Toy_ElephantPlastic.jpg","37","0","1848"
"3","3","retrieval","old_objects","146","Tickets_Blank.jpg","36","1","954"
"3","3","retrieval","old_objects","147","Cologne.jpg","36","1","1658"
"3","3","retrieval","old_objects","148","SatelliteDish.jpg","37","0","1412"
"3","3","retrieval","old_objects","149","Candy_Heart.jpg","36","1","1308"
"3","3","retrieval","old_objects","150","MeasuringTape.jpg","36","1","710"
"3","3","retrieval","new_objects","151","Nightstand.jpg","37","1","1226"
"3","3","retrieval","old_objects","152","Chair_Barber.jpg","36","1","997"
"3","3","retrieval","new_objects","153","Oars.jpg","37","1","920"
"3","3","retrieval","new_objects","154","Dog_SaintBernard.jpg","37","1","1366"
"3","3","retrieval","new_objects","155","Radio_Modern.jpg","36","0","1600"
"3","3","retrieval","new_objects","156","CapGraduation.jpg","37","1","1220"
"3","3","retrieval","new_objects","157","DoorBolt.jpg","36","0","775"
"3","3","retrieval","new_objects","158","Pillar.jpg","37","1","1484"
"3","3","retrieval","old_objects","159","Candy_GummyBear.jpg","36","1","1012"
"3","3","retrieval","new_objects","160","Clamp.jpg","37","1","1200"
"3","3","retrieval","old_objects","161","Box_Chocolate.jpg","36","1","991"
"3","3","retrieval","new_objects","162","Tweezers.jpg","36","0","939"
"3","3","retrieval","old_objects","163","Shirt_Tshirt.jpg","36","1","917"
"3","3","retrieval","old_objects","164","CoffeeGrinder.jpg","36","1","1314"
"3","3","retrieval","old_objects","165","Jug_Milk.jpg","36","1","1622"
"3","3","retrieval","new_objects","166","Brush_Light.jpg","37","1","853"
"3","3","retrieval","old_objects","167","Branch.jpg","37","0","1114"
"3","3","retrieval","old_objects","168","PuppetTheatre_WhiteGold.jpg","36","1","1211"
"3","3","retrieval","old_objects","169","Chest.jpg","37","0","1137"
"3","3","retrieval","new_objects","170","Bread_Loaf.jpg","36","0","1002"
"3","3","retrieval","old_objects","171","Cow.jpg","36","1","984"
"3","3","retrieval","new_objects","172","Knife_Butter.jpg","37","1","1190"
"3","3","retrieval","new_objects","173","SpinningWheel.jpg","37","1","1770"
"3","3","retrieval","old_objects","174","Glasses_Sun.jpg","36","1","756"
"3","3","retrieval","new_objects","175","Zucchini.jpg","37","1","854"
"3","3","retrieval","old_objects","176","Canister_Tea.jpg","36","1","1335"
"3","3","retrieval","old_objects","177","Candelabra.jpg","36","1","1203"
"3","3","retrieval","old_objects","178","Hat_Colonial.jpg","36","1","1039"
"3","3","retrieval","old_objects","179","Ball_Baseball.jpg","36","1","1208"
"3","3","retrieval","new_objects","180","Bowl_Wooden.jpg","37","1","1680"
"3","3","retrieval","new_objects","181","Fence_Wooden.jpg","37","1","1531"
"3","3","retrieval","new_objects","182","NeedlesAcupuncture.jpg","37","1","1061"
"3","3","retrieval","new_objects","184","Stool_Camping.jpg","37","1","1271"
"3","3","retrieval","new_objects","185","Hammer.jpg","36","0","1328"
"3","3","retrieval","new_objects","186","BicycleSeat.jpg","37","1","971"
"3","3","retrieval","old_objects","187","Can_Milk.jpg","36","1","706"
"3","3","retrieval","old_objects","188","Gorilla.jpg","36","1","595"
"3","3","retrieval","new_objects","189","Lips_Wax.jpg","37","1","693"
"3","3","retrieval","new_objects","190","Tape_Scotch.jpg","37","1","958"
"3","3","retrieval","new_objects","191","RecorderCassette.jpg","37","1","690"
"3","3","retrieval","new_objects","192","Turtle.jpg","37","1","808"
"3","3","retrieval","new_objects","193","Toaster_MetalSleek.jpg","37","1","802"
"3","3","retrieval","old_objects","194","Cord_Ethernet.jpg","36","1","588"
"3","3","retrieval","old_objects","195","Toolbox_RedOpen.jpg","37","0","971"
"3","3","retrieval","new_objects","196","Vest.jpg","37","1","700"
"3","3","retrieval","new_objects","197","ProcessorFood_Old.jpg","36","0","704"
"3","3","retrieval","new_objects","198","Cassette_Video.jpg","37","1","888"
"3","3","retrieval","old_objects","199","Pig.jpg","37","0","1003"
"3","3","retrieval","old_objects","200","ServiceBell.jpg","36","1","1266"
"3","3","retrieval","old_objects","201","Shoe_Sneaker.jpg","37","0","519"
"3","3","retrieval","old_objects","202","Helmet_Knight.jpg","37","0","1127"
"3","3","retrieval","new_objects","203","AmpMeter.jpg","37","1","829"
"3","3","retrieval","new_objects","204","PlantPotted.jpg","37","1","1649"
"3","3","retrieval","new_objects","205","Tape_Washi.jpg","0","0","2000"
"3","3","retrieval","old_objects","206","Coin.jpg","36","1","1494"
"3","3","retrieval","old_objects","207","Heater_ElectricPortable.jpg","37","0","1090"
"3","3","retrieval","old_objects","208","Triangle.jpg","36","1","707"
"3","3","retrieval","new_objects","209","Statue_Cat.jpg","37","1","714"
"3","3","retrieval","new_objects","210","BicycleReflector.jpg","37","1","799"
"3","3","retrieval","new_objects","211","Candleholder_Tall.jpg","36","0","732"
"3","3","retrieval","new_objects","212","Lens_ColourFilter.jpg","37","1","676"
"3","3","retrieval","old_objects","213","CarSeat.jpg","37","0","701"
"3","3","retrieval","old_objects","214","Clam.jpg","36","1","755"
"3","3","retrieval","new_objects","215","Bulldozer.jpg","36","0","949"
"3","3","retrieval","new_objects","216","Cup_Fruits.jpg","36","0","1524"
"3","3","retrieval","new_objects","217","Tomato.jpg","37","1","892"
"3","3","retrieval","old_objects","218","Card_QueenSpade.jpg","36","1","712"
"3","3","retrieval","old_objects","219","Candle_Blue.jpg","36","1","859"
"3","3","retrieval","old_objects","220","Mixer_Hand.jpg","36","1","773"
"3","3","retrieval","old_objects","221","SpinalCord.jpg","36","1","626"
"3","3","retrieval","new_objects","222","Jug_Wicker.jpg","36","0","694"
"3","3","retrieval","old_objects","223","Garbage_GreenBin.jpg","37","0","1241"
"3","3","retrieval","new_objects","224","Escalator.jpg","37","1","770"
"3","3","retrieval","old_objects","225","Briefcase_Leather.jpg","36","1","633"
"3","3","retrieval","old_objects","226","Lock_Combination.jpg","36","1","682"
"3","3","retrieval","new_objects","227","Instrument_Nyckelharpa.jpg","37","1","728"
"3","3","retrieval","new_objects","228","Ship_Battle.jpg","36","0","1033"
"3","3","retrieval","new_objects","229","Machine_Arm.jpg","37","1","1309"
"3","3","retrieval","old_objects","230","DrillBit.jpg","37","0","1022"
"3","3","retrieval","new_objects","231","EyeExamDevice.jpg","37","1","996"
"3","3","retrieval","old_objects","232","Drum_Set.jpg","36","1","729"
"3","3","retrieval","old_objects","233","FileFolder.jpg","37","0","977"
"3","3","retrieval","old_objects","234","Mallet.jpg","36","1","1394"
"3","3","retrieval","new_objects","235","TowelRack_Brown.jpg","37","1","1365"
"3","3","retrieval","old_objects","236","StickyTack.jpg","36","1","917"
"3","3","retrieval","new_objects","237","Computer_CPU.jpg","36","0","935"
"3","3","retrieval","old_objects","238","Toy_Alien.jpg","36","1","728"
"3","3","retrieval","old_objects","239","Stone_AncientWriting.jpg","36","1","693"
"3","3","retrieval","old_objects","240","Toy_WoodenPlainSingle.jpg","36","1","558"
"3","3","retrieval","old_objects","241","Cable_JumpStart.jpg","37","0","827"
"3","3","retrieval","old_objects","242","FlipFlop_SingleRed.jpg","37","0","733"
"3","3","retrieval","new_objects","243","Flower_Daisy.jpg","37","1","809"
"3","3","retrieval","new_objects","245","Bag_Computer.jpg","37","1","785"
"3","3","retrieval","new_objects","246","Mirror_Makeup.jpg","37","1","1255"
"3","3","retrieval","new_objects","247","Slippers.jpg","37","1","1219"
"3","3","retrieval","old_objects","248","Speaker_Single.jpg","37","0","773"
"3","3","retrieval","new_objects","249","CoffeeBeans.jpg","37","1","932"
"3","3","retrieval","new_objects","250","Pasta_Penne.jpg","36","0","744"
"3","3","retrieval","new_objects","251","Drink_Green.jpg","37","1","732"
"3","3","retrieval","new_objects","252","Stapler_Gun.jpg","37","1","696"
"3","3","retrieval","new_objects","253","Purse.jpg","37","1","768"
"3","3","retrieval","new_objects","254","Airplane_Fighter.jpg","37","1","771"
"3","3","retrieval","old_objects","255","Cup_Bathroom.jpg","36","1","723"
"3","3","retrieval","old_objects","256","ToothbrushHolder.jpg","36","1","913"
"3","3","retrieval","old_objects","257","Cabinet_Office.jpg","37","0","821"
"3","3","retrieval","new_objects","258","Clothespin_Beige.jpg","37","1","1361"
"3","3","retrieval","new_objects","259","Fish_Rockbass.jpg","37","1","881"
"3","3","retrieval","old_objects","260","BikiniTop.jpg","37","0","1206"
"3","3","retrieval","new_objects","261","Light_PostIsolated.jpg","36","0","735"
"3","3","retrieval","old_objects","262","Piano_Upright.jpg","36","1","742"
"3","3","retrieval","old_objects","263","Seashell_RoseMurex.jpg","37","0","981"
"3","3","retrieval","old_objects","264","SpaceRover.jpg","36","1","954"
"3","3","retrieval","new_objects","265","MortarPestle_BlackStone.jpg","37","1","776"
"3","3","retrieval","new_objects","266","Pipe.jpg","37","1","1114"
"3","3","retrieval","old_objects","267","House_Wooden.jpg","36","1","718"
"3","3","retrieval","old_objects","268","Kangaroo_WithJoey.jpg","36","1","814"
"3","3","retrieval","old_objects","269","Knife_Camping.jpg","37","0","659"
"3","3","retrieval","old_objects","270","Napkin_Holder.jpg","37","0","863"
"3","3","retrieval","new_objects","271","Nuts_PeanutsPeeled.jpg","36","0","837"
"3","3","retrieval","new_objects","272","Rake_Long.jpg","36","0","1045"
"3","3","retrieval","old_objects","273","Bowl_Fruits.jpg","36","1","806"
"3","3","retrieval","new_objects","274","GranolaBar.jpg","37","1","635"
"3","3","retrieval","new_objects","275","Basket_Straw.jpg","37","1","779"
"3","3","retrieval","old_objects","276","Box_JeweleryWooden.jpg","37","0","555"
"3","3","retrieval","new_objects","277","Scarecrow.jpg","37","1","895"
"3","3","retrieval","new_objects","278","SewingMachine.jpg","36","0","1489"
"3","3","retrieval","old_objects","279","Bird_CanadianGoose.jpg","36","1","638"
"3","3","retrieval","new_objects","280","Lollipop_Rainbow.jpg","37","1","657"
"3","3","retrieval","new_objects","281","Shrimp.jpg","37","1","1695"
"3","3","retrieval","new_objects","282","Sieve_SideView.jpg","37","1","789"
"3","3","retrieval","old_objects","283","Accordion.jpg","36","1","724"
"3","3","retrieval","old_objects","284","SofaAntique.jpg","36","1","848"
"3","3","retrieval","old_objects","285","Envelope_Manila.jpg","37","0","1335"
"3","3","retrieval","new_objects","286","Iguana.jpg","37","1","1388"
"3","3","retrieval","new_objects","287","Garlic_Whole.jpg","36","0","1612"
"3","3","retrieval","old_objects","288","Colander.jpg","37","0","1800"
"3","3","retrieval","old_objects","289","DustPan.jpg","37","0","1854"
"3","3","retrieval","new_objects","290","Exercise_Bike.jpg","37","1","1326"
"3","3","retrieval","old_objects","291","Bottle_Beer.jpg","36","1","896"
"3","3","retrieval","old_objects","292","Toy_RaceTrack.jpg","37","0","1308"
"3","3","retrieval","old_objects","293","Tree_ChristmasMini.jpg","37","0","997"
"3","3","retrieval","old_objects","294","Flamingo_Real.jpg","36","1","915"
"3","3","retrieval","old_objects","295","Box_Package.jpg","36","1","964"
"3","3","retrieval","old_objects","296","Bag_Satchel.jpg","36","1","720"
"3","3","retrieval","old_objects","297","MemoPaperSpike.jpg","37","0","1009"
"3","3","retrieval","new_objects","298","Toy_DonkeyFur.jpg","37","1","973"
"3","3","retrieval","old_objects","299","Gum_Pack.jpg","36","1","966"
"3","3","retrieval","old_objects","300","Tickets_PrintWords.jpg","36","1","725"
"3","3","retrieval","new_objects","301","Corn.jpg","37","1","1038"
"3","3","retrieval","old_objects","302","Scoop_Flour.jpg","37","0","974"
"3","3","retrieval","new_objects","303","Scorpion.jpg","37","1","721"
"3","3","retrieval","new_objects","304","Castle_Sand.jpg","37","1","1426"
"3","3","retrieval","old_objects","306","Loveseat.jpg","37","0","1348"
"3","3","retrieval","new_objects","307","Toy_MerryGoRound.jpg","37","1","564"
"3","3","retrieval","new_objects","308","Hat_Tuque.jpg","37","1","463"
"3","3","retrieval","old_objects","309","Whip.jpg","37","0","701"
"3","3","retrieval","old_objects","310","Ball_Basketball.jpg","36","1","561"
"3","3","retrieval","new_objects","311","TubeRing.jpg","37","1","576"
"3","3","retrieval","new_objects","312","Aquarium.jpg","37","1","748"
"3","3","retrieval","new_objects","313","RickShaw.jpg","37","1","576"
"3","3","retrieval","new_objects","314","Asparagus.jpg","36","0","655"
"3","3","retrieval","new_objects","315","Olives.jpg","36","0","941"
"3","3","retrieval","old_objects","316","Box_WoodenOpen.jpg","36","1","731"
"3","3","retrieval","new_objects","317","Tray_Wooden.jpg","37","1","1658"
"3","3","retrieval","old_objects","318","BinRecycling.jpg","37","0","1000"
"3","3","retrieval","new_objects","319","SoapDish.jpg","36","0","807"
"3","3","retrieval","old_objects","320","IceCrusher.jpg","36","1","896"
"3","3","retrieval","old_objects","321","Exercise_Stepper.jpg","36","1","674"
"3","3","retrieval","new_objects","322","Canister_Oil.jpg","37","1","730"
"3","3","retrieval","new_objects","323","OrigamiPaper.jpg","37","1","778"
"3","3","retrieval","new_objects","324","Battery_Car.jpg","36","0","967"
"3","3","retrieval","old_objects","325","SaladCaesar.jpg","36","1","990"
"3","3","retrieval","old_objects","326","Necklace_Pearl.jpg","37","0","778"
"3","3","retrieval","new_objects","327","SnowmanDecor.jpg","37","1","771"
"3","3","retrieval","new_objects","328","Pretzel_Sticks.jpg","37","1","822"
"3","3","retrieval","old_objects","329","Stove_Portable.jpg","36","1","725"
"3","3","retrieval","old_objects","330","Magnet_Three.jpg","36","1","685"
"3","3","retrieval","new_objects","331","Knee.jpg","37","1","869"
"3","3","retrieval","old_objects","332","Microwave.jpg","37","0","1254"
"3","3","retrieval","new_objects","333","AirPump.jpg","37","1","695"
"3","3","retrieval","new_objects","334","Chair_Student.jpg","37","1","1027"
"3","3","retrieval","new_objects","335","LifeJacket_BlueYellow.jpg","37","1","928"
"3","3","retrieval","old_objects","336","Jar_Empty.jpg","36","1","697"
"3","3","retrieval","old_objects","337","Toy_Shapesorter.jpg","36","1","921"
"3","3","retrieval","new_objects","338","Bread_Pita.jpg","36","0","1469"
"3","3","retrieval","new_objects","339","Hazelnut.jpg","36","0","594"
"3","3","retrieval","new_objects","340","TigerWhite.jpg","37","1","735"
"3","3","retrieval","new_objects","341","Glass_Wine.jpg","37","1","826"
"3","3","retrieval","old_objects","342","Toy_Moose.jpg","36","1","753"
"3","3","retrieval","old_objects","343","Leg.jpg","36","1","656"
"3","3","retrieval","new_objects","344","Can_Oblong.jpg","37","1","801"
"3","3","retrieval","new_objects","345","WorldMap.jpg","37","1","1156"
"3","3","retrieval","new_objects","346","Switch_Power.jpg","37","1","741"
"3","3","retrieval","new_objects","347","Pepperoni.jpg","37","1","675"
"3","3","retrieval","new_objects","348","Sushi.jpg","37","1","771"
"3","3","retrieval","old_objects","349","ClothesDryingRack.jpg","36","1","732"
"3","3","retrieval","new_objects","350","LawnMower.jpg","37","1","569"
"3","3","retrieval","new_objects","351","Jacket_Jean.jpg","37","1","596"
"3","3","retrieval","old_objects","352","Hook_Fishing.jpg","36","1","739"
"3","3","retrieval","new_objects","353","Toy_Turtle.jpg","37","1","873"
"3","3","retrieval","new_objects","354","Cane_Metal.jpg","37","1","628"
"3","3","retrieval","new_objects","355","Pumpkin.jpg","36","0","1137"
"3","3","demographics_block","gender","1","Pumpkin.jpg","male","1","14091"
"3","3","demographics_block","age","1","Pumpkin.jpg","25","1","14091"
"3","3","demographics_block","education","1","Pumpkin.jpg","University degree","1","14091"
"3","3","demographics_block","left_right_handed","2","Pumpkin.jpg","Right","1","11165"
"3","3","demographics_block","raceoption1","2","Pumpkin.jpg","","1","11165"
"3","3","demographics_block","raceoption2","2","Pumpkin.jpg","","1","11165"
"3","3","demographics_block","raceoption3","2","Pumpkin.jpg","2","1","11165"
"3","3","demographics_block","raceoption4","2","Pumpkin.jpg","","1","11165"
"3","3","demographics_block","raceoption5","2","Pumpkin.jpg","","1","11165"
"3","3","demographics_block","raceoption6","2","Pumpkin.jpg","","1","11165"
"3","3","demographics_block","raceoption7","2","Pumpkin.jpg","","1","11165"
"3","3","demographics_block","raceoption8","2","Pumpkin.jpg","","1","11165"
"3","3","demographics_block","raceoption9","2","Pumpkin.jpg","","1","11165"
"3","3","demographics_block","raceother","2","Pumpkin.jpg","","1","11165"
"3","3","demographics_block","raceother","2","Pumpkin.jpg","","1","11165"
"3","3","demographics_block","english_language","2","Pumpkin.jpg","Yes","1","11165"
"3","3","demographics_block","english_languageother","2","Pumpkin.jpg","","1","11165"
"3","3","demographics_block","eyesight","3","Pumpkin.jpg","Yes","1","3107"
"3","3","demographics_block","colorblind","3","Pumpkin.jpg","No","1","3107"
"3","3","worker_id_block","worker_id_textbox","1","Pumpkin.jpg","A2CTA782EBXUCT","1","6796"
"4","4","encoding","encoding","1","Tickets_Blank.jpg","0","0","3000"
"4","4","encoding","encoding","2","Table_Poker.jpg","4","0","1742"
"4","4","encoding","encoding","3","Necklace_Pearl.jpg","4","0","2274"
"4","4","encoding","encoding","4","Book_Leather.jpg","4","0","1672"
"4","4","encoding","encoding","5","Cane_Wooden.jpg","4","0","1392"
"4","4","encoding","encoding","6","StickyTack.jpg","3","0","1453"
"4","4","encoding","encoding","7","Colosseum.jpg","6","0","1881"
"4","4","encoding","encoding","8","Box_Chocolate.jpg","4","0","1396"
"4","4","encoding","encoding","9","Lipstick.jpg","3","0","1582"
"4","4","encoding","encoding","10","Box_JeweleryWooden.jpg","4","0","1565"
"4","4","encoding","encoding","11","ScrewDriver.jpg","3","0","1367"
"4","4","encoding","encoding","12","Pasta_Macaroni.jpg","1","0","1481"
"4","4","encoding","encoding","13","Stone_AncientWriting.jpg","1","0","1647"
"4","4","encoding","encoding","14","Toy_ElephantPlastic.jpg","1","0","1289"
"4","4","encoding","encoding","15","Can_Milk.jpg","1","0","1299"
"4","4","encoding","encoding","16","Clip_Binder.jpg","1","0","930"
"4","4","encoding","encoding","17","SmokeDetector.jpg","1","0","1400"
"4","4","encoding","encoding","18","Comb.jpg","1","0","1051"
"4","4","encoding","encoding","19","Lock_Combination.jpg","1","0","1575"
"4","4","encoding","encoding","20","Gorilla.jpg","1","0","1436"
"4","4","encoding","encoding","21","Seashell_RoseMurex.jpg","4","0","1851"
"4","4","encoding","encoding","22","BikiniTop.jpg","1","0","1773"
"4","4","encoding","encoding","23","MannequinBust.jpg","2","0","2663"
"4","4","encoding","encoding","24","FileFolder.jpg","1","0","1341"
"4","4","encoding","encoding","25","Speaker_Single.jpg","1","0","1082"
"4","4","encoding","encoding","26","Canister_Tea.jpg","1","0","1693"
"4","4","encoding","encoding","27","Candelabra.jpg","1","0","1260"
"4","4","encoding","encoding","28","Airplane_Small.jpg","1","0","1147"
"4","4","encoding","encoding","29","Steamer.jpg","1","0","1117"
"4","4","encoding","encoding","30","Box_Package.jpg","1","0","969"
"4","4","encoding","encoding","31","CoffeeGrinder.jpg","2","0","2159"
"4","4","encoding","encoding","32","Leaf_Yellow.jpg","1","0","2016"
"4","4","encoding","encoding","33","Chest.jpg","1","0","1071"
"4","4","encoding","encoding","34","Cable_JumpStart.jpg","1","0","1214"
"4","4","encoding","encoding","35","Toy_BearBluePlushie.jpg","1","0","1287"
"4","4","encoding","encoding","36","Napkin_Holder.jpg","1","0","1492"
"4","4","encoding","encoding","37","Kangaroo_WithJoey.jpg","1","0","1273"
"4","4","encoding","encoding","38","Watch.jpg","1","0","1458"
"4","4","encoding","encoding","39","Hook_Fishing.jpg","1","0","1153"
"4","4","encoding","encoding","40","Accordion.jpg","1","0","1283"
"4","4","encoding","encoding","41","MeasuringTape.jpg","1","0","1069"
"4","4","encoding","encoding","42","Briefcase_Leather.jpg","1","0","1409"
"4","4","encoding","encoding","43","HairScrunchie.jpg","1","0","1061"
"4","4","encoding","encoding","44","Helmet_Knight.jpg","2","0","2346"
"4","4","encoding","encoding","45","Hat_Party.jpg","1","0","1421"
"4","4","encoding","encoding","46","Cup_Bathroom.jpg","1","0","800"
"4","4","encoding","encoding","47","Van.jpg","1","0","1175"
"4","4","encoding","encoding","48","Pen_Ballpoint.jpg","1","0","819"
"4","4","encoding","encoding","49","Shoe_Sneaker.jpg","1","0","953"
"4","4","encoding","encoding","50","Cologne.jpg","2","0","1831"
"4","4","encoding","encoding","51","Leg.jpg","1","0","1307"
"4","4","encoding","encoding","52","Spider.jpg","1","0","1078"
"4","4","encoding","encoding","53","Shovel_Garden.jpg","1","0","1723"
"4","4","encoding","encoding","54","Jar_Empty.jpg","1","0","1253"
"4","4","encoding","encoding","55","Mask_VenetianCat.jpg","1","0","1985"
"4","4","encoding","encoding","56","Toolbox_RedOpen.jpg","1","0","993"
"4","4","encoding","encoding","57","Car_Totalled.jpg","1","0","1266"
"4","4","encoding","encoding","58","Scoop_Flour.jpg","1","0","1529"
"4","4","encoding","encoding","59","DJMixer.jpg","1","0","1225"
"4","4","encoding","encoding","60","Knife_Camping.jpg","1","0","1140"
"4","4","encoding","encoding","62","IceCrusher.jpg","1","0","1523"
"4","4","encoding","encoding","63","PencilCase.jpg","0","0","3000"
"4","4","encoding","encoding","64","Jug_Milk.jpg","1","0","1775"
"4","4","encoding","encoding","65","Exercise_Stepper.jpg","1","0","1121"
"4","4","encoding","encoding","66","Clock_Wall.jpg","1","0","883"
"4","4","encoding","encoding","67","PictureFrame.jpg","1","0","1213"
"4","4","encoding","encoding","68","ServiceBell.jpg","1","0","1287"
"4","4","encoding","encoding","69","Garbage_Can.jpg","1","0","787"
"4","4","encoding","encoding","70","Mallet.jpg","1","0","835"
"4","4","encoding","encoding","71","Hat_Colonial.jpg","2","0","2035"
"4","4","encoding","encoding","72","Gun_Bazooka.jpg","2","0","1828"
"4","4","encoding","encoding","73","Shirt_Tshirt.jpg","1","0","1214"
"4","4","encoding","encoding","74","Sock_Ankle.jpg","1","0","1056"
"4","4","encoding","encoding","75","Shovel_Sandbox.jpg","1","0","1009"
"4","4","encoding","encoding","76","Mask_Ski.jpg","1","0","1067"
"4","4","encoding","encoding","77","LeafBlower.jpg","1","0","1260"
"4","4","encoding","encoding","78","Bag_Satchel.jpg","1","0","974"
"4","4","encoding","encoding","79","Skirt_Stripes.jpg","1","0","2141"
"4","4","encoding","encoding","80","Armchair.jpg","3","0","1523"
"4","4","encoding","encoding","81","DrillBit.jpg","1","0","1668"
"4","4","encoding","encoding","82","PaperTowel_Kitchen.jpg","1","0","1149"
"4","4","encoding","encoding","83","Keyhole.jpg","1","0","1234"
"4","4","encoding","encoding","84","SaladCaesar.jpg","1","0","1474"
"4","4","encoding","encoding","85","Bird_CanadianGoose.jpg","1","0","912"
"4","4","encoding","encoding","86","House_Wooden.jpg","3","0","1906"
"4","4","encoding","encoding","87","SatelliteDish.jpg","1","0","1266"
"4","4","encoding","encoding","88","Tickets_PrintWords.jpg","1","0","1392"
"4","4","encoding","encoding","89","Toy_Alien.jpg","1","0","1270"
"4","4","encoding","encoding","90","Candle_Blue.jpg","1","0","1344"
"4","4","encoding","encoding","91","Envelope_Manila.jpg","1","0","1654"
"4","4","encoding","encoding","92","Cow.jpg","1","0","960"
"4","4","encoding","encoding","93","Bowl_Fruits.jpg","3","0","1726"
"4","4","encoding","encoding","94","BinRecycling.jpg","1","0","1095"
"4","4","encoding","encoding","95","Tractor_Orange.jpg","2","0","1820"
"4","4","encoding","encoding","96","Hook_Double.jpg","1","0","1110"
"4","4","encoding","encoding","97","ClothesDryingRack.jpg","1","0","1367"
"4","4","encoding","encoding","98","Pickaxe.jpg","1","0","808"
"4","4","encoding","encoding","99","Whip.jpg","1","0","1224"
"4","4","encoding","encoding","100","Stove_WithOven.jpg","1","0","1382"
"4","4","encoding","encoding","101","Branch.jpg","1","0","1802"
"4","4","encoding","encoding","102","Lens_Camera.jpg","1","0","1340"
"4","4","encoding","encoding","103","HandMixer.jpg","1","0","950"
"4","4","encoding","encoding","104","Hubcap.jpg","1","0","850"
"4","4","encoding","encoding","105","Card_QueenSpade.jpg","1","0","1141"
"4","4","encoding","encoding","106","DogToy.jpg","1","0","1419"
"4","4","encoding","encoding","107","Mat_Door.jpg","1","0","1248"
"4","4","encoding","encoding","108","Toy_WoodenPlainSingle.jpg","1","0","864"
"4","4","encoding","encoding","109","Coin.jpg","1","0","1704"
"4","4","encoding","encoding","110","DustPan.jpg","1","0","1311"
"4","4","encoding","encoding","111","Ruler_Metal.jpg","1","0","1054"
"4","4","encoding","encoding","112","Garbage_GreenBin.jpg","1","0","1220"
"4","4","encoding","encoding","113","Toy_DollHomeMade.jpg","1","0","769"
"4","4","encoding","encoding","114","Bench_Wooden.jpg","1","0","1775"
"4","4","encoding","encoding","115","Triangle.jpg","1","0","1300"
"4","4","encoding","encoding","116","Seashell_BayScallop.jpg","4","0","1506"
"4","4","encoding","encoding","117","Pig.jpg","1","0","1954"
"4","4","encoding","encoding","118","SpaceRover.jpg","1","0","1620"
"4","4","encoding","encoding","119","Mixer_Hand.jpg","1","0","977"
"4","4","encoding","encoding","120","Magnet_Three.jpg","1","0","888"
"4","4","encoding","encoding","121","Loveseat.jpg","3","0","1449"
"4","4","encoding","encoding","123","Teabag.jpg","1","0","1479"
"4","4","encoding","encoding","124","Cheesegrater_Box.jpg","1","0","884"
"4","4","encoding","encoding","125","Cord_Ethernet.jpg","1","0","707"
"4","4","encoding","encoding","126","Drum_Set.jpg","1","0","1106"
"4","4","encoding","encoding","127","FlipFlop_SingleRed.jpg","1","0","936"
"4","4","encoding","encoding","128","Clam.jpg","1","0","1220"
"4","4","encoding","encoding","129","Ball_Basketball.jpg","1","0","996"
"4","4","encoding","encoding","130","Brush_Makeup.jpg","1","0","885"
"4","4","encoding","encoding","131","Table_Magazine.jpg","1","0","1424"
"4","4","encoding","encoding","132","Toy_RaceTrack.jpg","1","0","886"
"4","4","encoding","encoding","133","Camel_Bactrian.jpg","1","0","964"
"4","4","encoding","encoding","134","Candy_Heart.jpg","1","0","1340"
"4","4","encoding","encoding","135","Colander.jpg","1","0","927"
"4","4","encoding","encoding","136","Sign_Airport.jpg","1","0","875"
"4","4","encoding","encoding","137","WaterFountain.jpg","1","0","1151"
"4","4","encoding","encoding","138","Milkshake_Chocolate.jpg","2","0","2192"
"4","4","encoding","encoding","139","Toy_Moose.jpg","1","0","1563"
"4","4","encoding","encoding","140","Piano_Upright.jpg","1","0","1011"
"4","4","encoding","encoding","141","Staircase_Curving.jpg","2","0","1899"
"4","4","encoding","encoding","142","ToothbrushHolder.jpg","1","0","1172"
"4","4","encoding","encoding","143","Heater_ElectricPortable.jpg","1","0","767"
"4","4","encoding","encoding","144","FlipFlop_PairBlue.jpg","1","0","1005"
"4","4","encoding","encoding","145","Ball_Baseball.jpg","1","0","786"
"4","4","encoding","encoding","146","CarSeat.jpg","1","0","968"
"4","4","encoding","encoding","147","Gum_Pack.jpg","1","0","1752"
"4","4","encoding","encoding","148","Gametable_AirHockey.jpg","1","0","1363"
"4","4","encoding","encoding","149","Chair_Airplane.jpg","1","0","1344"
"4","4","encoding","encoding","150","CoffeeLid.jpg","1","0","1256"
"4","4","encoding","encoding","151","Almond.jpg","1","0","1084"
"4","4","encoding","encoding","152","Cabinet_Office.jpg","1","0","1079"
"4","4","encoding","encoding","153","Truck_Tanker.jpg","1","0","1003"
"4","4","encoding","encoding","154","PuppetTheatre_WhiteGold.jpg","1","0","1836"
"4","4","encoding","encoding","155","Flower_Tulip.jpg","1","0","1280"
"4","4","encoding","encoding","156","Box_WoodenOpen.jpg","1","0","781"
"4","4","encoding","encoding","157","FireExtinguisher.jpg","1","0","1057"
"4","4","encoding","encoding","158","Toy_Shapesorter.jpg","1","0","929"
"4","4","encoding","encoding","159","Tap.jpg","1","0","1066"
"4","4","encoding","encoding","160","House_CeramicGingerbread.jpg","1","0","1569"
"4","4","encoding","encoding","161","SofaAntique.jpg","3","0","2065"
"4","4","encoding","encoding","162","Bottle_Beer.jpg","1","0","1390"
"4","4","encoding","encoding","163","Snorkle.jpg","1","0","1017"
"4","4","encoding","encoding","164","Microwave.jpg","1","0","888"
"4","4","encoding","encoding","165","Tree_ChristmasMini.jpg","1","0","1333"
"4","4","encoding","encoding","166","Chair_Barber.jpg","1","0","1055"
"4","4","encoding","encoding","167","MemoPaperSpike.jpg","1","0","1119"
"4","4","encoding","encoding","168","Flamingo_Real.jpg","1","0","857"
"4","4","encoding","encoding","169","PillBottle_Prescription.jpg","1","0","1189"
"4","4","encoding","encoding","170","Glasses_Sun.jpg","1","0","1247"
"4","4","encoding","encoding","171","Sign_Taxi.jpg","1","0","920"
"4","4","encoding","encoding","172","PumiceStone.jpg","1","0","1265"
"4","4","encoding","encoding","173","Stove_Portable.jpg","1","0","747"
"4","4","encoding","encoding","174","SpinalCord.jpg","1","0","1055"
"4","4","encoding","encoding","175","Staples.jpg","1","0","834"
"4","4","encoding","encoding","176","Candy_GummyBear.jpg","1","0","1069"
"4","4","encoding","encoding","177","PhoneJack.jpg","1","0","801"
"4","4","retrieval","new_objects","1","Radio_Modern.jpg","37","1","1297"
"4","4","retrieval","old_objects","2","Keyhole.jpg","36","1","838"
"4","4","retrieval","new_objects","3","Cane_Metal.jpg","36","0","911"
"4","4","retrieval","new_objects","4","Toy_Turtle.jpg","36","0","743"
"4","4","retrieval","new_objects","5","Escalator.jpg","37","1","1161"
"4","4","retrieval","old_objects","6","Bird_CanadianGoose.jpg","36","1","852"
"4","4","retrieval","old_objects","7","CoffeeGrinder.jpg","36","1","1004"
"4","4","retrieval","old_objects","8","FlipFlop_SingleRed.jpg","36","1","735"
"4","4","retrieval","new_objects","9","Pasta_Penne.jpg","37","1","1108"
"4","4","retrieval","old_objects","10","Lipstick.jpg","36","1","842"
"4","4","retrieval","new_objects","11","Decoration_Chinese.jpg","37","1","1203"
"4","4","retrieval","old_objects","12","Exercise_Stepper.jpg","36","1","955"
"4","4","retrieval","new_objects","13","Computer_CPU.jpg","36","0","927"
"4","4","retrieval","old_objects","14","Heater_ElectricPortable.jpg","36","1","1110"
"4","4","retrieval","old_objects","15","Tractor_Orange.jpg","36","1","996"
"4","4","retrieval","new_objects","16","ScannerShoplifting.jpg","37","1","662"
"4","4","retrieval","old_objects","17","ScrewDriver.jpg","36","1","935"
"4","4","retrieval","old_objects","18","Stone_AncientWriting.jpg","36","1","969"
"4","4","retrieval","new_objects","19","Toaster_MetalSleek.jpg","37","1","797"
"4","4","retrieval","old_objects","20","Bench_Wooden.jpg","36","1","872"
"4","4","retrieval","new_objects","21","Cup_Fruits.jpg","37","1","847"
"4","4","retrieval","old_objects","22","PictureFrame.jpg","36","1","1151"
"4","4","retrieval","old_objects","23","Hat_Colonial.jpg","36","1","900"
"4","4","retrieval","old_objects","24","DJMixer.jpg","36","1","770"
"4","4","retrieval","old_objects","25","PillBottle_Prescription.jpg","36","1","630"
"4","4","retrieval","old_objects","26","Colander.jpg","36","1","864"
"4","4","retrieval","new_objects","27","Olives.jpg","37","1","775"
"4","4","retrieval","old_objects","28","Chair_Airplane.jpg","36","1","878"
"4","4","retrieval","old_objects","29","Pasta_Macaroni.jpg","36","1","923"
"4","4","retrieval","new_objects","30","Scythe.jpg","37","1","1009"
"4","4","retrieval","old_objects","31","Truck_Tanker.jpg","36","1","786"
"4","4","retrieval","new_objects","32","RecorderCassette.jpg","36","0","1085"
"4","4","retrieval","old_objects","33","Cologne.jpg","36","1","676"
"4","4","retrieval","new_objects","34","Flower_Daisy.jpg","37","1","771"
"4","4","retrieval","old_objects","35","Cable_JumpStart.jpg","36","1","784"
"4","4","retrieval","old_objects","36","Leg.jpg","36","1","867"
"4","4","retrieval","new_objects","37","Suitcase.jpg","37","1","958"
"4","4","retrieval","old_objects","38","Box_Package.jpg","36","1","782"
"4","4","retrieval","new_objects","39","Instrument_Nyckelharpa.jpg","37","1","1107"
"4","4","retrieval","new_objects","40","Trash_Medical.jpg","36","0","662"
"4","4","retrieval","old_objects","41","Envelope_Manila.jpg","36","1","998"
"4","4","retrieval","old_objects","42","Knife_Camping.jpg","36","1","760"
"4","4","retrieval","old_objects","43","Skirt_Stripes.jpg","36","1","661"
"4","4","retrieval","old_objects","44","Shovel_Sandbox.jpg","36","1","670"
"4","4","retrieval","old_objects","45","Chair_Barber.jpg","36","1","757"
"4","4","retrieval","new_objects","46","PotatoMasher_Zigzag.jpg","37","1","794"
"4","4","retrieval","new_objects","47","Radio_Vintage.jpg","36","0","859"
"4","4","retrieval","new_objects","48","LifeJacket_BlueYellow.jpg","37","1","979"
"4","4","retrieval","old_objects","49","Piano_Upright.jpg","36","1","798"
"4","4","retrieval","new_objects","50","Fruit_Orange.jpg","37","1","698"
"4","4","retrieval","new_objects","51","Battery_Car.jpg","37","1","1550"
"4","4","retrieval","new_objects","52","SewingMachine.jpg","37","1","1113"
"4","4","retrieval","old_objects","53","Teabag.jpg","36","1","767"
"4","4","retrieval","old_objects","54","Almond.jpg","36","1","586"
"4","4","retrieval","new_objects","55","Stovetop.jpg","37","1","846"
"4","4","retrieval","new_objects","56","OrigamiPaper.jpg","37","1","855"
"4","4","retrieval","new_objects","57","Airplane_Fighter.jpg","37","1","1119"
"4","4","retrieval","new_objects","58","TubeRing.jpg","37","1","739"
"4","4","retrieval","old_objects","59","Garbage_GreenBin.jpg","36","1","695"
"4","4","retrieval","old_objects","60","Clock_Wall.jpg","36","1","895"
"4","4","retrieval","new_objects","62","Light_PostIsolated.jpg","37","1","832"
"4","4","retrieval","old_objects","63","Cow.jpg","36","1","558"
"4","4","retrieval","new_objects","64","Radio_Antique.jpg","36","0","1443"
"4","4","retrieval","old_objects","65","Jar_Empty.jpg","36","1","722"
"4","4","retrieval","old_objects","66","Gorilla.jpg","36","1","705"
"4","4","retrieval","new_objects","67","Pretzel_Sticks.jpg","37","1","743"
"4","4","retrieval","old_objects","68","Hook_Double.jpg","36","1","1060"
"4","4","retrieval","old_objects","69","Toy_Shapesorter.jpg","36","1","651"
"4","4","retrieval","old_objects","70","Hook_Fishing.jpg","36","1","620"
"4","4","retrieval","new_objects","71","Amp.jpg","36","0","805"
"4","4","retrieval","new_objects","72","Vest.jpg","37","1","711"
"4","4","retrieval","old_objects","73","Cup_Bathroom.jpg","36","1","662"
"4","4","retrieval","new_objects","74","Lollipop_Rainbow.jpg","37","1","529"
"4","4","retrieval","new_objects","75","Exercise_Bike.jpg","37","1","979"
"4","4","retrieval","new_objects","76","Mug_Beer.jpg","37","1","757"
"4","4","retrieval","old_objects","77","FlipFlop_PairBlue.jpg","36","1","649"
"4","4","retrieval","old_objects","78","Mask_Ski.jpg","36","1","946"
"4","4","retrieval","old_objects","79","Box_Chocolate.jpg","37","0","710"
"4","4","retrieval","old_objects","80","BikiniTop.jpg","36","1","804"
"4","4","retrieval","new_objects","81","DrawingCompass.jpg","37","1","926"
"4","4","retrieval","old_objects","82","ToothbrushHolder.jpg","36","1","836"
"4","4","retrieval","old_objects","83","PumiceStone.jpg","36","1","716"
"4","4","retrieval","old_objects","84","Jug_Milk.jpg","36","1","779"
"4","4","retrieval","old_objects","85","CoffeeLid.jpg","36","1","854"
"4","4","retrieval","old_objects","86","Sock_Ankle.jpg","36","1","695"
"4","4","retrieval","new_objects","87","Jug_ClayAncient.jpg","37","1","645"
"4","4","retrieval","old_objects","88","Toy_DollHomeMade.jpg","36","1","622"
"4","4","retrieval","new_objects","89","Sushi.jpg","37","1","848"
"4","4","retrieval","new_objects","90","Canister_Oil.jpg","37","1","616"
"4","4","retrieval","old_objects","91","Speaker_Single.jpg","36","1","802"
"4","4","retrieval","new_objects","92","Bulldozer.jpg","37","1","980"
"4","4","retrieval","old_objects","93","MannequinBust.jpg","36","1","647"
"4","4","retrieval","new_objects","94","WorldMap.jpg","37","1","727"
"4","4","retrieval","new_objects","95","Knife_Butter.jpg","37","1","821"
"4","4","retrieval","old_objects","96","Milkshake_Chocolate.jpg","36","1","731"
"4","4","retrieval","old_objects","97","Staircase_Curving.jpg","36","1","740"
"4","4","retrieval","old_objects","98","Branch.jpg","36","1","608"
"4","4","retrieval","new_objects","99","Tape_Scotch.jpg","37","1","690"
"4","4","retrieval","old_objects","100","Bowl_Fruits.jpg","36","1","1066"
"4","4","retrieval","new_objects","101","Telephone_TinCan.jpg","37","1","794"
"4","4","retrieval","old_objects","102","Microwave.jpg","36","1","877"
"4","4","retrieval","old_objects","103","Stove_WithOven.jpg","36","1","821"
"4","4","retrieval","new_objects","104","Bread_Pita.jpg","37","1","749"
"4","4","retrieval","old_objects","105","ClothesDryingRack.jpg","36","1","746"
"4","4","retrieval","old_objects","106","Pickaxe.jpg","36","1","799"
"4","4","retrieval","old_objects","107","Lens_Camera.jpg","36","1","697"
"4","4","retrieval","old_objects","108","Mat_Door.jpg","36","1","552"
"4","4","retrieval","new_objects","109","SnowmanDecor.jpg","37","1","733"
"4","4","retrieval","new_objects","110","Stool_Camping.jpg","37","1","803"
"4","4","retrieval","new_objects","111","Fence_ChainLink.jpg","37","1","620"
"4","4","retrieval","new_objects","112","Mask_Buddhist.jpg","37","1","966"
"4","4","retrieval","new_objects","113","CoffeeBeans.jpg","37","1","857"
"4","4","retrieval","new_objects","114","BicycleReflector.jpg","36","0","656"
"4","4","retrieval","old_objects","115","Spider.jpg","36","1","705"
"4","4","retrieval","old_objects","116","Mixer_Hand.jpg","36","1","849"
"4","4","retrieval","new_objects","117","Toy_DonkeyFur.jpg","37","1","689"
"4","4","retrieval","new_objects","118","Bread_Loaf.jpg","36","0","593"
"4","4","retrieval","old_objects","119","Armchair.jpg","36","1","660"
"4","4","retrieval","old_objects","120","Steamer.jpg","36","1","860"
"4","4","retrieval","old_objects","121","HandMixer.jpg","36","1","676"
"4","4","retrieval","new_objects","123","CapGraduation.jpg","37","1","771"
"4","4","retrieval","new_objects","124","Nightstand.jpg","37","1","718"
"4","4","retrieval","old_objects","125","DrillBit.jpg","36","1","662"
"4","4","retrieval","new_objects","126","Tomato.jpg","37","1","1092"
"4","4","retrieval","old_objects","127","Toy_Alien.jpg","36","1","794"
"4","4","retrieval","old_objects","128","Car_Totalled.jpg","36","1","709"
"4","4","retrieval","old_objects","129","Candy_GummyBear.jpg","36","1","603"
"4","4","retrieval","old_objects","130","Seashell_BayScallop.jpg","36","1","570"
"4","4","retrieval","old_objects","131","Helmet_Knight.jpg","36","1","635"
"4","4","retrieval","old_objects","132","MeasuringTape.jpg","36","1","605"
"4","4","retrieval","old_objects","133","Table_Magazine.jpg","36","1","680"
"4","4","retrieval","new_objects","134","Gun_Nerf.jpg","37","1","679"
"4","4","retrieval","new_objects","135","Fence_Wooden.jpg","37","1","709"
"4","4","retrieval","new_objects","136","Exercise_HandTrainer.jpg","37","1","731"
"4","4","retrieval","new_objects","137","Pillar.jpg","37","1","616"
"4","4","retrieval","old_objects","138","Canister_Tea.jpg","37","0","827"
"4","4","retrieval","old_objects","139","Flower_Tulip.jpg","36","1","564"
"4","4","retrieval","old_objects","140","StickyTack.jpg","36","1","585"
"4","4","retrieval","new_objects","141","Clothespin_Beige.jpg","37","1","740"
"4","4","retrieval","new_objects","142","GranolaBar.jpg","36","0","967"
"4","4","retrieval","new_objects","143","Scorpion.jpg","37","1","941"
"4","4","retrieval","old_objects","144","MemoPaperSpike.jpg","37","0","752"
"4","4","retrieval","new_objects","145","Stationary.jpg","37","1","904"
"4","4","retrieval","old_objects","146","Drum_Set.jpg","36","1","786"
"4","4","retrieval","old_objects","147","Mask_VenetianCat.jpg","37","0","693"
"4","4","retrieval","new_objects","148","AmpMeter.jpg","37","1","803"
"4","4","retrieval","new_objects","149","Oars.jpg","37","1","638"
"4","4","retrieval","new_objects","150","Nuts_PeanutsPeeled.jpg","37","1","726"
"4","4","retrieval","new_objects","151","Jug_Wicker.jpg","36","0","659"
"4","4","retrieval","old_objects","152","PuppetTheatre_WhiteGold.jpg","36","1","666"
"4","4","retrieval","new_objects","153","Bag_Toiletry.jpg","37","1","819"
"4","4","retrieval","new_objects","154","Asparagus.jpg","37","1","797"
"4","4","retrieval","new_objects","155","JoustingSpear.jpg","37","1","559"
"4","4","retrieval","new_objects","156","Slippers.jpg","37","1","947"
"4","4","retrieval","old_objects","157","Shovel_Garden.jpg","36","1","648"
"4","4","retrieval","new_objects","158","Pepperoni.jpg","37","1","640"
"4","4","retrieval","old_objects","159","Glasses_Sun.jpg","36","1","682"
"4","4","retrieval","old_objects","160","CarSeat.jpg","36","1","689"
"4","4","retrieval","old_objects","161","Necklace_Pearl.jpg","36","1","689"
"4","4","retrieval","old_objects","162","Cord_Ethernet.jpg","36","1","513"
"4","4","retrieval","new_objects","163","Jacket_Jean.jpg","37","1","596"
"4","4","retrieval","new_objects","164","Sign_OneWay.jpg","37","1","794"
"4","4","retrieval","old_objects","165","Accordion.jpg","36","1","1004"
"4","4","retrieval","new_objects","166","Ship_Cruise.jpg","37","1","662"
"4","4","retrieval","new_objects","167","Can_Peas.jpg","37","1","1174"
"4","4","retrieval","old_objects","168","Brush_Makeup.jpg","36","1","850"
"4","4","retrieval","new_objects","169","AirPump.jpg","37","1","818"
"4","4","retrieval","new_objects","170","ClothRed.jpg","37","1","605"
"4","4","retrieval","new_objects","171","Rake_Long.jpg","37","1","733"
"4","4","retrieval","old_objects","172","Snorkle.jpg","36","1","786"
"4","4","retrieval","old_objects","173","Sign_Airport.jpg","37","0","869"
"4","4","retrieval","new_objects","174","Toy_Drill.jpg","37","1","685"
"4","4","retrieval","old_objects","175","SpinalCord.jpg","36","1","749"
"4","4","retrieval","old_objects","176","Gametable_AirHockey.jpg","36","1","665"
"4","4","retrieval","new_objects","177","Cucumber.jpg","37","1","609"
"4","4","retrieval","old_objects","178","Pig.jpg","36","1","867"
"4","4","retrieval","old_objects","179","Shoe_Sneaker.jpg","36","1","628"
"4","4","retrieval","old_objects","180","Gum_Pack.jpg","36","1","669"
"4","4","retrieval","new_objects","181","Lens_ColourFilter.jpg","37","1","669"
"4","4","retrieval","old_objects","182","Lock_Combination.jpg","36","1","613"
"4","4","retrieval","old_objects","184","Airplane_Small.jpg","36","1","617"
"4","4","retrieval","old_objects","185","Cheesegrater_Box.jpg","36","1","563"
"4","4","retrieval","old_objects","186","Clip_Binder.jpg","36","1","551"
"4","4","retrieval","new_objects","187","LumiereBeautyBeast.jpg","37","1","626"
"4","4","retrieval","old_objects","188","FireExtinguisher.jpg","36","1","662"
"4","4","retrieval","old_objects","189","Clam.jpg","36","1","614"
"4","4","retrieval","old_objects","190","Bottle_Beer.jpg","36","1","696"
"4","4","retrieval","old_objects","191","Camel_Bactrian.jpg","36","1","559"
"4","4","retrieval","new_objects","192","CandyDispenser.jpg","37","1","484"
"4","4","retrieval","new_objects","193","Candleholder_Tall.jpg","36","0","723"
"4","4","retrieval","new_objects","194","Dog_SaintBernard.jpg","37","1","624"
"4","4","retrieval","new_objects","195","SoapDish.jpg","37","1","457"
"4","4","retrieval","new_objects","196","Kite_Rainbow.jpg","37","1","546"
"4","4","retrieval","old_objects","197","Tree_ChristmasMini.jpg","36","1","631"
"4","4","retrieval","old_objects","198","WaterFountain.jpg","36","1","664"
"4","4","retrieval","new_objects","199","NeedlesAcupuncture.jpg","37","1","625"
"4","4","retrieval","old_objects","200","Ruler_Metal.jpg","36","1","683"
"4","4","retrieval","old_objects","201","PhoneJack.jpg","36","1","529"
"4","4","retrieval","old_objects","202","Kangaroo_WithJoey.jpg","36","1","528"
"4","4","retrieval","new_objects","203","Camera_ProfessionalFilm.jpg","37","1","630"
"4","4","retrieval","new_objects","204","Iron_Antique.jpg","37","1","903"
"4","4","retrieval","new_objects","205","Gloves_Winter.jpg","36","0","661"
"4","4","retrieval","old_objects","206","Box_WoodenOpen.jpg","36","1","693"
"4","4","retrieval","new_objects","207","SledgeHammer.jpg","36","0","912"
"4","4","retrieval","old_objects","208","Scoop_Flour.jpg","36","1","633"
"4","4","retrieval","new_objects","209","PlantPotted.jpg","37","1","706"
"4","4","retrieval","old_objects","210","Candle_Blue.jpg","36","1","761"
"4","4","retrieval","old_objects","211","Ball_Basketball.jpg","36","1","533"
"4","4","retrieval","new_objects","212","Toy_MerryGoRound.jpg","36","0","650"
"4","4","retrieval","old_objects","213","House_Wooden.jpg","36","1","635"
"4","4","retrieval","old_objects","214","Bag_Satchel.jpg","36","1","589"
"4","4","retrieval","new_objects","215","TowelRack_Brown.jpg","37","1","647"
"4","4","retrieval","new_objects","216","Clamp.jpg","37","1","728"
"4","4","retrieval","new_objects","217","Corn.jpg","36","0","741"
"4","4","retrieval","old_objects","218","Cabinet_Office.jpg","36","1","715"
"4","4","retrieval","new_objects","219","Bindings_Snowboard.jpg","36","0","832"
"4","4","retrieval","new_objects","220","SpinningWheel.jpg","37","1","841"
"4","4","retrieval","old_objects","221","Staples.jpg","36","1","794"
"4","4","retrieval","new_objects","222","Hammer.jpg","36","0","501"
"4","4","retrieval","new_objects","223","Glass_Wine.jpg","37","1","739"
"4","4","retrieval","new_objects","224","Hat_Tuque.jpg","36","0","639"
"4","4","retrieval","new_objects","225","Ladle.jpg","37","1","624"
"4","4","retrieval","old_objects","226","Coin.jpg","36","1","738"
"4","4","retrieval","new_objects","227","BicycleSeat.jpg","37","1","903"
"4","4","retrieval","old_objects","228","Napkin_Holder.jpg","36","1","782"
"4","4","retrieval","new_objects","229","LawnMower.jpg","37","1","633"
"4","4","retrieval","new_objects","230","Chair_Student.jpg","37","1","985"
"4","4","retrieval","new_objects","231","Heater_ElectricUpright.jpg","37","1","524"
"4","4","retrieval","new_objects","232","Brush_Light.jpg","37","1","674"
"4","4","retrieval","new_objects","233","Cassette_Video.jpg","37","1","737"
"4","4","retrieval","old_objects","234","Watch.jpg","37","0","1103"
"4","4","retrieval","old_objects","235","Hat_Party.jpg","36","1","749"
"4","4","retrieval","new_objects","236","Statue_Cat.jpg","37","1","745"
"4","4","retrieval","new_objects","237","EyeExamDevice.jpg","37","1","734"
"4","4","retrieval","new_objects","238","Ship_Battle.jpg","37","1","755"
"4","4","retrieval","old_objects","239","Triangle.jpg","36","1","567"
"4","4","retrieval","new_objects","240","Lips_Wax.jpg","37","1","659"
"4","4","retrieval","old_objects","241","Briefcase_Leather.jpg","36","1","555"
"4","4","retrieval","old_objects","242","Can_Milk.jpg","36","1","753"
"4","4","retrieval","new_objects","243","Statue_Buddha.jpg","36","0","730"
"4","4","retrieval","new_objects","245","Garlic_Whole.jpg","37","1","716"
"4","4","retrieval","old_objects","246","Table_Poker.jpg","36","1","626"
"4","4","retrieval","new_objects","247","Purse.jpg","37","1","708"
"4","4","retrieval","old_objects","248","Garbage_Can.jpg","36","1","611"
"4","4","retrieval","new_objects","249","Zucchini.jpg","37","1","549"
"4","4","retrieval","new_objects","250","BunsenBurner.jpg","37","1","682"
"4","4","retrieval","old_objects","251","Comb.jpg","36","1","665"
"4","4","retrieval","new_objects","252","Kettle.jpg","36","0","626"
"4","4","retrieval","old_objects","253","Pen_Ballpoint.jpg","36","1","642"
"4","4","retrieval","new_objects","254","Tortilla.jpg","37","1","891"
"4","4","retrieval","new_objects","255","Machine_Arm.jpg","37","1","664"
"4","4","retrieval","new_objects","256","Tweezers.jpg","37","1","672"
"4","4","retrieval","new_objects","257","Thermos_MetalSleek.jpg","37","1","864"
"4","4","retrieval","old_objects","258","Seashell_RoseMurex.jpg","36","1","655"
"4","4","retrieval","old_objects","259","Flamingo_Real.jpg","37","0","912"
"4","4","retrieval","old_objects","260","DustPan.jpg","36","1","686"
"4","4","retrieval","old_objects","261","Toy_RaceTrack.jpg","36","1","822"
"4","4","retrieval","new_objects","262","Shrimp.jpg","36","0","615"
"4","4","retrieval","old_objects","263","Candelabra.jpg","36","1","658"
"4","4","retrieval","new_objects","264","Bag_Computer.jpg","36","0","666"
"4","4","retrieval","old_objects","265","Box_JeweleryWooden.jpg","36","1","634"
"4","4","retrieval","new_objects","266","RickShaw.jpg","37","1","619"
"4","4","retrieval","new_objects","267","ProcessorFood_Old.jpg","37","1","757"
"4","4","retrieval","old_objects","268","Tap.jpg","36","1","738"
"4","4","retrieval","new_objects","269","Chainsaw.jpg","36","0","903"
"4","4","retrieval","new_objects","270","Basket_Straw.jpg","36","0","740"
"4","4","retrieval","old_objects","271","DogToy.jpg","36","1","753"
"4","4","retrieval","old_objects","272","Candy_Heart.jpg","36","1","878"
"4","4","retrieval","old_objects","273","SmokeDetector.jpg","36","1","693"
"4","4","retrieval","new_objects","274","Can_Oblong.jpg","37","1","605"
"4","4","retrieval","new_objects","275","CDstack.jpg","37","1","575"
"4","4","retrieval","new_objects","276","Ostrich.jpg","37","1","619"
"4","4","retrieval","new_objects","277","TimerKitchen.jpg","37","1","916"
"4","4","retrieval","old_objects","278","Toolbox_RedOpen.jpg","37","0","562"
"4","4","retrieval","new_objects","279","Castle_Sand.jpg","37","1","615"
"4","4","retrieval","new_objects","280","Fish_Rockbass.jpg","37","1","721"
"4","4","retrieval","old_objects","281","LeafBlower.jpg","36","1","606"
"4","4","retrieval","new_objects","282","Hazelnut.jpg","37","1","601"
"4","4","retrieval","new_objects","283","Stapler_Gun.jpg","37","1","668"
"4","4","retrieval","old_objects","284","Mallet.jpg","37","0","604"
"4","4","retrieval","old_objects","285","Toy_WoodenPlainSingle.jpg","36","1","526"
"4","4","retrieval","new_objects","286","Iguana.jpg","37","1","644"
"4","4","retrieval","new_objects","287","Tray_Wooden.jpg","36","0","694"
"4","4","retrieval","new_objects","288","Aquarium.jpg","37","1","652"
"4","4","retrieval","old_objects","289","HairScrunchie.jpg","36","1","837"
"4","4","retrieval","new_objects","290","Thermostat_Digital.jpg","37","1","669"
"4","4","retrieval","new_objects","291","Mirror_Makeup.jpg","37","1","661"
"4","4","retrieval","old_objects","292","Cane_Wooden.jpg","36","1","637"
"4","4","retrieval","new_objects","293","Jar_Money.jpg","37","1","903"
"4","4","retrieval","new_objects","294","Tape_Washi.jpg","37","1","588"
"4","4","retrieval","old_objects","295","House_CeramicGingerbread.jpg","36","1","680"
"4","4","retrieval","old_objects","296","Van.jpg","36","1","975"
"4","4","retrieval","new_objects","297","Pricegun.jpg","36","0","1018"
"4","4","retrieval","old_objects","298","Gun_Bazooka.jpg","36","1","604"
"4","4","retrieval","old_objects","299","Colosseum.jpg","36","1","663"
"4","4","retrieval","old_objects","300","PaperTowel_Kitchen.jpg","37","0","999"
"4","4","retrieval","old_objects","301","SpaceRover.jpg","37","0","642"
"4","4","retrieval","new_objects","302","TigerWhite.jpg","37","1","563"
"4","4","retrieval","old_objects","303","SatelliteDish.jpg","37","0","616"
"4","4","retrieval","old_objects","304","Tickets_PrintWords.jpg","36","1","497"
"4","4","retrieval","old_objects","306","Toy_ElephantPlastic.jpg","36","1","735"
"4","4","retrieval","new_objects","307","Ladder.jpg","37","1","893"
"4","4","retrieval","new_objects","308","Bowl_Wooden.jpg","36","0","738"
"4","4","retrieval","old_objects","309","SofaAntique.jpg","36","1","592"
"4","4","retrieval","new_objects","310","Alfalfa.jpg","37","1","530"
"4","4","retrieval","old_objects","311","Ball_Baseball.jpg","36","1","576"
"4","4","retrieval","old_objects","312","PencilCase.jpg","36","1","1132"
"4","4","retrieval","new_objects","313","Oneholepunch.jpg","37","1","760"
"4","4","retrieval","old_objects","314","Book_Leather.jpg","36","1","564"
"4","4","retrieval","old_objects","315","SaladCaesar.jpg","36","1","713"
"4","4","retrieval","old_objects","316","IceCrusher.jpg","37","0","863"
"4","4","retrieval","new_objects","317","Toy_DinosaurBrontosaurus.jpg","37","1","676"
"4","4","retrieval","new_objects","318","Scarecrow.jpg","36","0","774"
"4","4","retrieval","new_objects","319","Basket_Firewood.jpg","37","1","1209"
"4","4","retrieval","new_objects","320","Cantaloupe.jpg","37","1","546"
"4","4","retrieval","old_objects","321","Shirt_Tshirt.jpg","36","1","543"
"4","4","retrieval","new_objects","322","Altar.jpg","37","1","700"
"4","4","retrieval","old_objects","323","FileFolder.jpg","36","1","675"
"4","4","retrieval","new_objects","324","Freezer.jpg","36","0","754"
"4","4","retrieval","new_objects","325","MalletJudge.jpg","36","0","686"
"4","4","retrieval","old_objects","326","Sign_Taxi.jpg","37","0","542"
"4","4","retrieval","new_objects","327","Sieve_SideView.jpg","37","1","1003"
"4","4","retrieval","old_objects","328","ServiceBell.jpg","36","1","952"
"4","4","retrieval","new_objects","329","Pumpkin.jpg","37","1","665"
"4","4","retrieval","old_objects","330","Tickets_Blank.jpg","36","1","716"
"4","4","retrieval","old_objects","331","Card_QueenSpade.jpg","36","1","855"
"4","4","retrieval","new_objects","332","StringBean.jpg","37","1","591"
"4","4","retrieval","new_objects","333","Drink_Green.jpg","37","1","922"
"4","4","retrieval","new_objects","334","Jacket_Suit.jpg","37","1","688"
"4","4","retrieval","new_objects","335","DoorBolt.jpg","36","0","686"
"4","4","retrieval","new_objects","336","Bed_ChildBirch.jpg","37","1","853"
"4","4","retrieval","new_objects","337","RollerBlade.jpg","37","1","574"
"4","4","retrieval","old_objects","338","Loveseat.jpg","36","1","554"
"4","4","retrieval","new_objects","339","Pipe.jpg","37","1","654"
"4","4","retrieval","new_objects","340","Potato.jpg","37","1","590"
"4","4","retrieval","old_objects","341","Magnet_Three.jpg","36","1","721"
"4","4","retrieval","old_objects","342","Hubcap.jpg","37","0","823"
"4","4","retrieval","new_objects","343","MortarPestle_BlackStone.jpg","37","1","624"
"4","4","retrieval","new_objects","344","Cheese_Platter.jpg","37","1","802"
"4","4","retrieval","old_objects","345","Stove_Portable.jpg","37","0","661"
"4","4","retrieval","old_objects","346","Whip.jpg","36","1","765"
"4","4","retrieval","new_objects","347","Knee.jpg","37","1","873"
"4","4","retrieval","new_objects","348","Turtle.jpg","37","1","856"
"4","4","retrieval","old_objects","349","BinRecycling.jpg","36","1","769"
"4","4","retrieval","new_objects","350","Jar_Cotton.jpg","37","1","725"
"4","4","retrieval","old_objects","351","Leaf_Yellow.jpg","36","1","746"
"4","4","retrieval","old_objects","352","Toy_Moose.jpg","36","1","743"
"4","4","retrieval","new_objects","353","Switch_Power.jpg","37","1","564"
"4","4","retrieval","old_objects","354","Toy_BearBluePlushie.jpg","37","0","720"
"4","4","retrieval","old_objects","355","Chest.jpg","36","1","966"
"4","4","demographics_block","gender","1","Chest.jpg","female","1","10220"
"4","4","demographics_block","age","1","Chest.jpg","27","1","10220"
"4","4","demographics_block","education","1","Chest.jpg","12","1","10220"
"4","4","demographics_block","left_right_handed","2","Chest.jpg","Right","1","5258"
"4","4","demographics_block","raceoption1","2","Chest.jpg","0","1","5258"
"4","4","demographics_block","raceoption2","2","Chest.jpg","","1","5258"
"4","4","demographics_block","raceoption3","2","Chest.jpg","","1","5258"
"4","4","demographics_block","raceoption4","2","Chest.jpg","","1","5258"
"4","4","demographics_block","raceoption5","2","Chest.jpg","","1","5258"
"4","4","demographics_block","raceoption6","2","Chest.jpg","","1","5258"
"4","4","demographics_block","raceoption7","2","Chest.jpg","","1","5258"
"4","4","demographics_block","raceoption8","2","Chest.jpg","","1","5258"
"4","4","demographics_block","raceoption9","2","Chest.jpg","","1","5258"
"4","4","demographics_block","raceother","2","Chest.jpg","","1","5258"
"4","4","demographics_block","raceother","2","Chest.jpg","","1","5258"
"4","4","demographics_block","english_language","2","Chest.jpg","Yes","1","5258"
"4","4","demographics_block","english_languageother","2","Chest.jpg","","1","5258"
"4","4","demographics_block","eyesight","3","Chest.jpg","Yes","1","7207"
"4","4","demographics_block","colorblind","3","Chest.jpg","No","1","7207"
"4","4","worker_id_block","worker_id_textbox","1","Chest.jpg","A3866WOJYJGPA3","1","17127"
"2","2","encoding","encoding","1","BinRecycling.jpg","2","0","1756"
"2","2","encoding","encoding","2","Shirt_Tshirt.jpg","1","0","1284"
"2","2","encoding","encoding","3","Cow.jpg","1","0","1753"
"2","2","encoding","encoding","4","Staples.jpg","1","0","1406"
"2","2","encoding","encoding","5","Cable_JumpStart.jpg","2","0","1749"
"2","2","encoding","encoding","6","Cup_Bathroom.jpg","1","0","1359"
"2","2","encoding","encoding","7","IceCrusher.jpg","7","0","1959"
"2","2","encoding","encoding","8","Candy_Heart.jpg","7","0","1568"
"2","2","encoding","encoding","9","Flamingo_Real.jpg","7","0","1432"
"2","2","encoding","encoding","10","Watch.jpg","4","0","1879"
"2","2","encoding","encoding","11","Knife_Camping.jpg","4","0","1377"
"2","2","encoding","encoding","12","StickyTack.jpg","4","0","1918"
"2","2","encoding","encoding","13","SpaceRover.jpg","7","0","1548"
"2","2","encoding","encoding","14","Cheesegrater_Box.jpg","1","0","1985"
"2","2","encoding","encoding","15","Box_WoodenOpen.jpg","5","0","2086"
"2","2","encoding","encoding","16","Envelope_Manila.jpg","7","0","1400"
"2","2","encoding","encoding","17","Shoe_Sneaker.jpg","1","0","2669"
"2","2","encoding","encoding","18","Magnet_Three.jpg","4","0","2752"
"2","2","encoding","encoding","19","PaperTowel_Kitchen.jpg","1","0","2074"
"2","2","encoding","encoding","20","Car_Totalled.jpg","7","0","1795"
"2","2","encoding","encoding","21","Cord_Ethernet.jpg","1","0","2050"
"2","2","encoding","encoding","22","CoffeeGrinder.jpg","7","0","2076"
"2","2","encoding","encoding","23","Garbage_GreenBin.jpg","1","0","1519"
"2","2","encoding","encoding","24","Seashell_RoseMurex.jpg","7","0","2099"
"2","2","encoding","encoding","25","FireExtinguisher.jpg","7","0","1954"
"2","2","encoding","encoding","26","Tap.jpg","0","0","3000"
"2","2","encoding","encoding","27","Skirt_Stripes.jpg","7","0","1646"
"2","2","encoding","encoding","28","Ball_Baseball.jpg","4","0","2236"
"2","2","encoding","encoding","29","Shovel_Sandbox.jpg","1","0","1884"
"2","2","encoding","encoding","30","Hat_Colonial.jpg","7","0","2133"
"2","2","encoding","encoding","31","Tree_ChristmasMini.jpg","7","0","1486"
"2","2","encoding","encoding","32","PencilCase.jpg","7","0","1222"
"2","2","encoding","encoding","33","MannequinBust.jpg","7","0","1104"
"2","2","encoding","encoding","34","Toolbox_RedOpen.jpg","7","0","2097"
"2","2","encoding","encoding","35","Helmet_Knight.jpg","7","0","1299"
"2","2","encoding","encoding","36","FileFolder.jpg","1","0","1613"
"2","2","encoding","encoding","37","BikiniTop.jpg","1","0","1883"
"2","2","encoding","encoding","38","MemoPaperSpike.jpg","1","0","1757"
"2","2","encoding","encoding","39","Card_QueenSpade.jpg","7","0","1839"
"2","2","encoding","encoding","40","Colosseum.jpg","7","0","1088"
"2","2","encoding","encoding","41","Pickaxe.jpg","4","0","1923"
"2","2","encoding","encoding","42","Necklace_Pearl.jpg","7","0","1883"
"2","2","encoding","encoding","43","Teabag.jpg","7","0","1438"
"2","2","encoding","encoding","44","Microwave.jpg","1","0","2584"
"2","2","encoding","encoding","45","Drum_Set.jpg","7","0","2937"
"2","2","encoding","encoding","46","PhoneJack.jpg","1","0","2689"
"2","2","encoding","encoding","47","SatelliteDish.jpg","1","0","1286"
"2","2","encoding","encoding","48","Bird_CanadianGoose.jpg","1","0","936"
"2","2","encoding","encoding","49","Gum_Pack.jpg","0","0","3000"
"2","2","encoding","encoding","50","CarSeat.jpg","4","0","2253"
"2","2","encoding","encoding","51","Toy_WoodenPlainSingle.jpg","1","0","2552"
"2","2","encoding","encoding","52","Branch.jpg","7","0","2201"
"2","2","encoding","encoding","53","Toy_BearBluePlushie.jpg","0","0","3000"
"2","2","encoding","encoding","54","FlipFlop_PairBlue.jpg","7","0","1522"
"2","2","encoding","encoding","55","Whip.jpg","7","0","1847"
"2","2","encoding","encoding","56","Shovel_Garden.jpg","4","0","1744"
"2","2","encoding","encoding","57","Clam.jpg","4","0","1629"
"2","2","encoding","encoding","58","Mat_Door.jpg","1","0","1758"
"2","2","encoding","encoding","59","MeasuringTape.jpg","1","0","1589"
"2","2","encoding","encoding","60","Accordion.jpg","1","0","2093"
"2","2","encoding","encoding","62","Comb.jpg","1","0","1759"
"2","2","encoding","encoding","63","Clock_Wall.jpg","4","0","1746"
"2","2","encoding","encoding","64","ToothbrushHolder.jpg","1","0","2128"
"2","2","encoding","encoding","65","PuppetTheatre_WhiteGold.jpg","1","0","1833"
"2","2","encoding","encoding","66","Glasses_Sun.jpg","1","0","1030"
"2","2","encoding","encoding","67","Clip_Binder.jpg","1","0","1389"
"2","2","encoding","encoding","68","House_Wooden.jpg","1","0","1492"
"2","2","encoding","encoding","69","Colander.jpg","1","0","1004"
"2","2","encoding","encoding","70","Gametable_AirHockey.jpg","7","0","1745"
"2","2","encoding","encoding","71","Mallet.jpg","1","0","1919"
"2","2","encoding","encoding","72","Hook_Double.jpg","7","0","1749"
"2","2","encoding","encoding","73","Spider.jpg","7","0","1491"
"2","2","encoding","encoding","74","ScrewDriver.jpg","1","0","1795"
"2","2","encoding","encoding","75","Napkin_Holder.jpg","1","0","1311"
"2","2","encoding","encoding","76","Toy_DollHomeMade.jpg","1","0","1840"
"2","2","encoding","encoding","77","Flower_Tulip.jpg","1","0","1328"
"2","2","encoding","encoding","78","Heater_ElectricPortable.jpg","4","0","2219"
"2","2","encoding","encoding","79","Gun_Bazooka.jpg","1","0","1891"
"2","2","encoding","encoding","80","Keyhole.jpg","7","0","2067"
"2","2","encoding","encoding","81","Airplane_Small.jpg","1","0","1638"
"2","2","encoding","encoding","82","Candelabra.jpg","1","0","1568"
"2","2","encoding","encoding","83","Mask_Ski.jpg","7","0","2138"
"2","2","encoding","encoding","84","SofaAntique.jpg","4","0","2095"
"2","2","encoding","encoding","85","Canister_Tea.jpg","4","0","1542"
"2","2","encoding","encoding","86","DogToy.jpg","3","0","2051"
"2","2","encoding","encoding","87","Hook_Fishing.jpg","7","0","1305"
"2","2","encoding","encoding","88","Box_Package.jpg","7","0","1450"
"2","2","encoding","encoding","89","Stove_WithOven.jpg","7","0","1291"
"2","2","encoding","encoding","90","Briefcase_Leather.jpg","1","0","2070"
"2","2","encoding","encoding","91","Loveseat.jpg","1","0","1175"
"2","2","encoding","encoding","92","Brush_Makeup.jpg","1","0","1348"
"2","2","encoding","encoding","93","Table_Poker.jpg","7","0","1772"
"2","2","encoding","encoding","94","Exercise_Stepper.jpg","7","0","1775"
"2","2","encoding","encoding","95","SpinalCord.jpg","7","0","1865"
"2","2","encoding","encoding","96","Coin.jpg","1","0","1710"
"2","2","encoding","encoding","97","Armchair.jpg","1","0","1325"
"2","2","encoding","encoding","98","Candle_Blue.jpg","1","0","1068"
"2","2","encoding","encoding","99","PictureFrame.jpg","1","0","2118"
"2","2","encoding","encoding","100","Hubcap.jpg","1","0","2740"
"2","2","encoding","encoding","101","Toy_Alien.jpg","7","0","1556"
"2","2","encoding","encoding","102","Candy_GummyBear.jpg","7","0","1206"
"2","2","encoding","encoding","103","Toy_Shapesorter.jpg","1","0","1823"
"2","2","encoding","encoding","104","Chest.jpg","1","0","1674"
"2","2","encoding","encoding","105","Van.jpg","1","0","1625"
"2","2","encoding","encoding","106","HandMixer.jpg","1","0","1237"
"2","2","encoding","encoding","107","Mask_VenetianCat.jpg","1","0","1121"
"2","2","encoding","encoding","108","Ball_Basketball.jpg","1","0","996"
"2","2","encoding","encoding","109","Pen_Ballpoint.jpg","4","0","2460"
"2","2","encoding","encoding","110","Scoop_Flour.jpg","1","0","2180"
"2","2","encoding","encoding","111","Toy_RaceTrack.jpg","4","0","1700"
"2","2","encoding","encoding","112","Book_Leather.jpg","7","0","1858"
"2","2","encoding","encoding","113","Speaker_Single.jpg","7","0","1996"
"2","2","encoding","encoding","114","Bowl_Fruits.jpg","7","0","1169"
"2","2","encoding","encoding","115","Snorkle.jpg","7","0","1188"
"2","2","encoding","encoding","116","DrillBit.jpg","1","0","2319"
"2","2","encoding","encoding","117","Garbage_Can.jpg","1","0","1172"
"2","2","encoding","encoding","118","Stone_AncientWriting.jpg","1","0","1523"
"2","2","encoding","encoding","119","Triangle.jpg","1","0","1104"
"2","2","encoding","encoding","120","Box_JeweleryWooden.jpg","1","0","1313"
"2","2","encoding","encoding","121","Staircase_Curving.jpg","1","0","2053"
"2","2","encoding","encoding","123","Piano_Upright.jpg","4","0","2758"
"2","2","encoding","encoding","124","Toy_Moose.jpg","0","0","3000"
"2","2","encoding","encoding","125","PillBottle_Prescription.jpg","7","0","1653"
"2","2","encoding","encoding","126","Lens_Camera.jpg","7","0","925"
"2","2","encoding","encoding","127","Tickets_Blank.jpg","1","0","1582"
"2","2","encoding","encoding","128","Mixer_Hand.jpg","1","0","957"
"2","2","encoding","encoding","129","Truck_Tanker.jpg","7","0","2019"
"2","2","encoding","encoding","130","DustPan.jpg","1","0","1372"
"2","2","encoding","encoding","131","Sign_Airport.jpg","7","0","1867"
"2","2","encoding","encoding","132","Bottle_Beer.jpg","7","0","1084"
"2","2","encoding","encoding","133","PumiceStone.jpg","1","0","1729"
"2","2","encoding","encoding","134","Camel_Bactrian.jpg","1","0","981"
"2","2","encoding","encoding","135","Pasta_Macaroni.jpg","1","0","1123"
"2","2","encoding","encoding","136","ServiceBell.jpg","1","0","1240"
"2","2","encoding","encoding","137","WaterFountain.jpg","7","0","2402"
"2","2","encoding","encoding","138","Box_Chocolate.jpg","1","0","2022"
"2","2","encoding","encoding","139","Tractor_Orange.jpg","0","0","3000"
"2","2","encoding","encoding","140","Cane_Wooden.jpg","7","0","1661"
"2","2","encoding","encoding","141","Leaf_Yellow.jpg","1","0","1623"
"2","2","encoding","encoding","142","SaladCaesar.jpg","3","0","1846"
"2","2","encoding","encoding","143","Leg.jpg","0","0","3000"
"2","2","encoding","encoding","144","ClothesDryingRack.jpg","1","0","2789"
"2","2","encoding","encoding","145","Bench_Wooden.jpg","3","0","1661"
"2","2","encoding","encoding","146","Cologne.jpg","2","0","1850"
"2","2","encoding","encoding","147","Cabinet_Office.jpg","1","0","1727"
"2","2","encoding","encoding","148","Table_Magazine.jpg","1","0","1587"
"2","2","encoding","encoding","149","House_CeramicGingerbread.jpg","1","0","1666"
"2","2","encoding","encoding","150","Hat_Party.jpg","4","0","1869"
"2","2","encoding","encoding","151","Stove_Portable.jpg","4","0","1744"
"2","2","encoding","encoding","152","Sign_Taxi.jpg","4","0","2260"
"2","2","encoding","encoding","153","Steamer.jpg","2","0","1924"
"2","2","encoding","encoding","154","Sock_Ankle.jpg","2","0","2024"
"2","2","encoding","encoding","155","Toy_ElephantPlastic.jpg","2","0","1263"
"2","2","encoding","encoding","156","Chair_Barber.jpg","7","0","1573"
"2","2","encoding","encoding","157","Lipstick.jpg","1","0","2031"
"2","2","encoding","encoding","158","Bag_Satchel.jpg","1","0","1347"
"2","2","encoding","encoding","159","FlipFlop_SingleRed.jpg","7","0","1511"
"2","2","encoding","encoding","160","LeafBlower.jpg","7","0","1386"
"2","2","encoding","encoding","161","Seashell_BayScallop.jpg","7","0","1129"
"2","2","encoding","encoding","162","Can_Milk.jpg","7","0","1493"
"2","2","encoding","encoding","163","DJMixer.jpg","7","0","1550"
"2","2","encoding","encoding","164","Milkshake_Chocolate.jpg","7","0","1217"
"2","2","encoding","encoding","165","Ruler_Metal.jpg","6","0","1516"
"2","2","encoding","encoding","166","Jug_Milk.jpg","1","0","1641"
"2","2","encoding","encoding","167","Lock_Combination.jpg","1","0","1494"
"2","2","encoding","encoding","168","CoffeeLid.jpg","1","0","1848"
"2","2","encoding","encoding","169","Pig.jpg","6","0","1674"
"2","2","encoding","encoding","170","Gorilla.jpg","4","0","2354"
"2","2","encoding","encoding","171","Kangaroo_WithJoey.jpg","4","0","1476"
"2","2","encoding","encoding","172","Tickets_PrintWords.jpg","1","0","1663"
"2","2","encoding","encoding","173","Almond.jpg","1","0","1381"
"2","2","encoding","encoding","174","Jar_Empty.jpg","1","0","1121"
"2","2","encoding","encoding","175","SmokeDetector.jpg","7","0","2590"
"2","2","encoding","encoding","176","Chair_Airplane.jpg","7","0","1843"
"2","2","encoding","encoding","177","HairScrunchie.jpg","1","0","1925"
"2","2","retrieval","old_objects","1","Gametable_AirHockey.jpg","36","1","1160"
"2","2","retrieval","old_objects","2","HairScrunchie.jpg","36","1","782"
"2","2","retrieval","new_objects","3","Lips_Wax.jpg","37","1","652"
"2","2","retrieval","old_objects","4","Shirt_Tshirt.jpg","36","1","599"
"2","2","retrieval","new_objects","5","Bread_Pita.jpg","36","0","916"
"2","2","retrieval","old_objects","6","Mat_Door.jpg","36","1","644"
"2","2","retrieval","old_objects","7","Candelabra.jpg","36","1","1255"
"2","2","retrieval","new_objects","8","Canister_Oil.jpg","37","1","634"
"2","2","retrieval","new_objects","9","Shrimp.jpg","37","1","805"
"2","2","retrieval","new_objects","10","Purse.jpg","37","1","642"
"2","2","retrieval","old_objects","11","SmokeDetector.jpg","36","1","726"
"2","2","retrieval","old_objects","12","Canister_Tea.jpg","36","1","566"
"2","2","retrieval","old_objects","13","Napkin_Holder.jpg","36","1","628"
"2","2","retrieval","old_objects","14","Book_Leather.jpg","36","1","608"
"2","2","retrieval","new_objects","15","Toy_Turtle.jpg","37","1","621"
"2","2","retrieval","new_objects","16","Tomato.jpg","37","1","609"
"2","2","retrieval","new_objects","17","StringBean.jpg","37","1","510"
"2","2","retrieval","new_objects","18","Battery_Car.jpg","36","0","735"
"2","2","retrieval","old_objects","19","Briefcase_Leather.jpg","36","1","670"
"2","2","retrieval","new_objects","20","Trash_Medical.jpg","37","1","889"
"2","2","retrieval","new_objects","21","Zucchini.jpg","37","1","794"
"2","2","retrieval","new_objects","22","Olives.jpg","37","1","631"
"2","2","retrieval","old_objects","23","Helmet_Knight.jpg","36","1","851"
"2","2","retrieval","old_objects","24","FileFolder.jpg","36","1","661"
"2","2","retrieval","new_objects","25","EyeExamDevice.jpg","37","1","648"
"2","2","retrieval","new_objects","26","Mug_Beer.jpg","37","1","683"
"2","2","retrieval","new_objects","27","GranolaBar.jpg","37","1","604"
"2","2","retrieval","old_objects","28","Tree_ChristmasMini.jpg","36","1","729"
"2","2","retrieval","new_objects","29","Fence_Wooden.jpg","37","1","689"
"2","2","retrieval","new_objects","30","Exercise_HandTrainer.jpg","37","1","698"
"2","2","retrieval","old_objects","31","Bird_CanadianGoose.jpg","36","1","667"
"2","2","retrieval","old_objects","32","Seashell_BayScallop.jpg","36","1","670"
"2","2","retrieval","new_objects","33","Flower_Daisy.jpg","37","1","616"
"2","2","retrieval","old_objects","34","Table_Magazine.jpg","36","1","716"
"2","2","retrieval","old_objects","35","PhoneJack.jpg","36","1","725"
"2","2","retrieval","old_objects","36","Chair_Barber.jpg","36","1","653"
"2","2","retrieval","old_objects","37","Airplane_Small.jpg","37","0","880"
"2","2","retrieval","new_objects","38","Statue_Cat.jpg","36","0","1113"
"2","2","retrieval","new_objects","39","Escalator.jpg","37","1","785"
"2","2","retrieval","old_objects","40","Jar_Empty.jpg","36","1","983"
"2","2","retrieval","old_objects","41","Stove_WithOven.jpg","36","1","764"
"2","2","retrieval","new_objects","42","WorldMap.jpg","37","1","634"
"2","2","retrieval","old_objects","43","Lipstick.jpg","36","1","766"
"2","2","retrieval","new_objects","44","Vest.jpg","37","1","780"
"2","2","retrieval","old_objects","45","Pig.jpg","36","1","673"
"2","2","retrieval","new_objects","46","Radio_Antique.jpg","37","1","748"
"2","2","retrieval","old_objects","47","Jug_Milk.jpg","36","1","683"
"2","2","retrieval","new_objects","48","Drink_Green.jpg","37","1","636"
"2","2","retrieval","new_objects","49","Mirror_Makeup.jpg","37","1","648"
"2","2","retrieval","new_objects","50","TimerKitchen.jpg","37","1","619"
"2","2","retrieval","new_objects","51","Can_Oblong.jpg","37","1","576"
"2","2","retrieval","old_objects","52","Keyhole.jpg","36","1","702"
"2","2","retrieval","new_objects","53","AmpMeter.jpg","37","1","663"
"2","2","retrieval","new_objects","54","Fruit_Orange.jpg","37","1","625"
"2","2","retrieval","old_objects","55","Skirt_Stripes.jpg","36","1","662"
"2","2","retrieval","new_objects","56","Fish_Rockbass.jpg","37","1","632"
"2","2","retrieval","old_objects","57","Tractor_Orange.jpg","36","1","659"
"2","2","retrieval","new_objects","58","Knife_Butter.jpg","37","1","686"
"2","2","retrieval","new_objects","59","Ladder.jpg","37","1","592"
"2","2","retrieval","new_objects","60","NeedlesAcupuncture.jpg","37","1","606"
"2","2","retrieval","old_objects","62","Glasses_Sun.jpg","37","0","1321"
"2","2","retrieval","old_objects","63","Seashell_RoseMurex.jpg","36","1","664"
"2","2","retrieval","new_objects","64","PlantPotted.jpg","37","1","602"
"2","2","retrieval","old_objects","65","Toy_Shapesorter.jpg","36","1","728"
"2","2","retrieval","new_objects","66","Suitcase.jpg","37","1","703"
"2","2","retrieval","old_objects","67","Lens_Camera.jpg","36","1","736"
"2","2","retrieval","old_objects","68","Flamingo_Real.jpg","36","1","728"
"2","2","retrieval","new_objects","69","Amp.jpg","37","1","703"
"2","2","retrieval","new_objects","70","Garlic_Whole.jpg","37","1","648"
"2","2","retrieval","old_objects","71","Exercise_Stepper.jpg","36","1","635"
"2","2","retrieval","new_objects","72","JoustingSpear.jpg","37","1","687"
"2","2","retrieval","new_objects","73","Basket_Straw.jpg","37","1","552"
"2","2","retrieval","new_objects","74","Airplane_Fighter.jpg","37","1","664"
"2","2","retrieval","old_objects","75","PaperTowel_Kitchen.jpg","36","1","650"
"2","2","retrieval","new_objects","76","Nightstand.jpg","37","1","653"
"2","2","retrieval","new_objects","77","RecorderCassette.jpg","37","1","648"
"2","2","retrieval","new_objects","78","Glass_Wine.jpg","37","1","667"
"2","2","retrieval","old_objects","79","SpaceRover.jpg","36","1","685"
"2","2","retrieval","new_objects","80","Toy_DonkeyFur.jpg","37","1","583"
"2","2","retrieval","old_objects","81","Hat_Party.jpg","36","1","628"
"2","2","retrieval","old_objects","82","Ruler_Metal.jpg","36","1","688"
"2","2","retrieval","old_objects","83","Speaker_Single.jpg","36","1","730"
"2","2","retrieval","new_objects","84","Basket_Firewood.jpg","37","1","706"
"2","2","retrieval","old_objects","85","ServiceBell.jpg","36","1","690"
"2","2","retrieval","new_objects","86","Tray_Wooden.jpg","37","1","732"
"2","2","retrieval","new_objects","87","SoapDish.jpg","37","1","972"
"2","2","retrieval","new_objects","88","TigerWhite.jpg","37","1","545"
"2","2","retrieval","new_objects","89","Sign_OneWay.jpg","37","1","624"
"2","2","retrieval","old_objects","90","DJMixer.jpg","37","0","733"
"2","2","retrieval","new_objects","91","Slippers.jpg","37","1","780"
"2","2","retrieval","old_objects","92","Microwave.jpg","36","1","690"
"2","2","retrieval","new_objects","93","PotatoMasher_Zigzag.jpg","37","1","771"
"2","2","retrieval","new_objects","94","SledgeHammer.jpg","37","1","970"
"2","2","retrieval","old_objects","95","Card_QueenSpade.jpg","36","1","648"
"2","2","retrieval","new_objects","96","Asparagus.jpg","37","1","611"
"2","2","retrieval","old_objects","97","Toy_RaceTrack.jpg","36","1","711"
"2","2","retrieval","old_objects","98","Ball_Basketball.jpg","36","1","663"
"2","2","retrieval","new_objects","99","Radio_Modern.jpg","37","1","610"
"2","2","retrieval","new_objects","100","Brush_Light.jpg","37","1","606"
"2","2","retrieval","old_objects","101","Loveseat.jpg","36","1","611"
"2","2","retrieval","new_objects","102","Stool_Camping.jpg","37","1","679"
"2","2","retrieval","old_objects","103","Gum_Pack.jpg","36","1","713"
"2","2","retrieval","old_objects","104","CoffeeGrinder.jpg","36","1","649"
"2","2","retrieval","old_objects","105","Pickaxe.jpg","36","1","740"
"2","2","retrieval","new_objects","106","CoffeeBeans.jpg","37","1","756"
"2","2","retrieval","new_objects","107","BunsenBurner.jpg","37","1","835"
"2","2","retrieval","old_objects","108","Cable_JumpStart.jpg","36","1","678"
"2","2","retrieval","new_objects","109","Pumpkin.jpg","37","1","784"
