"group","subject","blockcode","trialcode","trialnum","values.stimulus","response","correct","latency"
"3","3","encoding","encoding","1","Cabinet_Display.jpg","2","0","1892"
"3","3","encoding","encoding","2","Pouch_PotPourri.jpg","1","0","2793"
"3","3","encoding","encoding","3","Decoration_ChristmasWhite.jpg","1","0","2088"
"3","3","encoding","encoding","4","Fan_Straw.jpg","3","0","2346"
"3","3","encoding","encoding","5","Radish.jpg","1","0","1423"
"3","3","encoding","encoding","6","Puzzle_Animal.jpg","2","0","2482"
"3","3","encoding","encoding","7","Owl.jpg","4","0","1749"
"3","3","encoding","encoding","8","Wallet_ClosedBrown.jpg","1","0","1660"
"3","3","encoding","encoding","9","Cage_Bird.jpg","2","0","1738"
"3","3","encoding","encoding","10","Helmet_Motorcycle.jpg","1","0","1429"
"3","3","encoding","encoding","11","CameoPortrait.jpg","5","0","2388"
"3","3","encoding","encoding","12","Kneepad.jpg","1","0","2387"
"3","3","encoding","encoding","13","Bells_Christmas.jpg","1","0","1482"
"3","3","encoding","encoding","14","Blanket.jpg","2","0","1913"
"3","3","encoding","encoding","15","Shoes_Snowboarding.jpg","1","0","1838"
"3","3","encoding","encoding","16","Candy_Toffee.jpg","1","0","1601"
"3","3","encoding","encoding","17","InflatableSleepingBag.jpg","1","0","1431"
"3","3","encoding","encoding","18","Balalaika.jpg","2","0","2247"
"3","3","encoding","encoding","19","DrinkShaker.jpg","0","0","3000"
"3","3","encoding","encoding","20","Makeup_Eyeshadow.jpg","3","0","2939"
"3","3","encoding","encoding","21","Chair_BeanBag.jpg","2","0","2081"
"3","3","encoding","encoding","22","Steeple.jpg","2","0","1956"
"3","3","encoding","encoding","23","Speaker_OnStand.jpg","1","0","1944"
"3","3","encoding","encoding","24","Card_TwoSpade.jpg","1","0","1704"
"3","3","encoding","encoding","25","Napkin_Single.jpg","1","0","1478"
"3","3","encoding","encoding","26","Spoon_Sugar.jpg","2","0","1739"
"3","3","encoding","encoding","27","Frame_Oval.jpg","4","0","2182"
"3","3","encoding","encoding","28","Dice.jpg","1","0","1476"
"3","3","encoding","encoding","29","MovieSlate.jpg","4","0","2053"
"3","3","encoding","encoding","30","Ball_Squashball.jpg","1","0","2812"
"3","3","encoding","encoding","31","Tag_Price.jpg","1","0","1781"
"3","3","encoding","encoding","32","Booties_Blue.jpg","1","0","1631"
"3","3","encoding","encoding","33","PillBottle_Spilled.jpg","2","0","2232"
"3","3","encoding","encoding","34","Flower_Basket.jpg","2","0","1986"
"3","3","encoding","encoding","35","Crib_Basket.jpg","1","0","1590"
"3","3","encoding","encoding","36","Mat_Bamboo.jpg","1","0","1649"
"3","3","encoding","encoding","37","RollerCoaster.jpg","4","0","2496"
"3","3","encoding","encoding","38","Weathervane.jpg","1","0","2807"
"3","3","encoding","encoding","39","Tube_Paint.jpg","1","0","1588"
"3","3","encoding","encoding","40","NailClipper.jpg","1","0","1412"
"3","3","encoding","encoding","41","Headset.jpg","1","0","1636"
"3","3","encoding","encoding","42","Lacrosse_Stick.jpg","1","0","1262"
"3","3","encoding","encoding","43","Seeder.jpg","1","0","1233"
"3","3","encoding","encoding","44","ShoeLace_Flat.jpg","1","0","1308"
"3","3","encoding","encoding","45","RamAnimal.jpg","3","0","1644"
"3","3","encoding","encoding","46","GogglesSwim.jpg","1","0","1836"
"3","3","encoding","encoding","47","White_Screen.jpg","1","0","2000"
"3","3","encoding","encoding","48","ReindeerHeadband.jpg","3","0","1912"
"3","3","encoding","encoding","49","LampPost_ThreeBulbs.jpg","2","0","1695"
"3","3","encoding","encoding","50","Flower_Rose.jpg","2","0","1705"
"3","3","encoding","encoding","51","Dolphine.jpg","2","0","1731"
"3","3","encoding","encoding","52","DogTreat.jpg","1","0","1559"
"3","3","encoding","encoding","53","Bird_Budgie.jpg","4","0","2018"
"3","3","encoding","encoding","54","Pepper_Green.jpg","1","0","1181"
"3","3","encoding","encoding","55","Celery.jpg","1","0","1554"
"3","3","encoding","encoding","56","RecorderInstrument.jpg","3","0","1511"
"3","3","encoding","encoding","57","Banana.jpg","2","0","1934"
"3","3","encoding","encoding","58","ChessPiece_Bishop.jpg","1","0","1504"
"3","3","encoding","encoding","59","Steamroller.jpg","1","0","1950"
"3","3","encoding","encoding","60","Pencil.jpg","1","0","1353"
"3","3","encoding","encoding","62","BoogieBoard.jpg","1","0","1977"
"3","3","encoding","encoding","63","CompassCardinal.jpg","2","0","1565"
"3","3","encoding","encoding","64","Toy_Dog.jpg","3","0","2556"
"3","3","encoding","encoding","65","Grenade.jpg","6","0","2270"
"3","3","encoding","encoding","66","Keychain_Leather.jpg","1","0","1580"
"3","3","encoding","encoding","67","Door_Blue.jpg","6","0","2638"
"3","3","encoding","encoding","68","Stroboscope.jpg","1","0","1789"
"3","3","encoding","encoding","69","Shed.jpg","1","0","1647"
"3","3","encoding","encoding","70","Paddle_Ball.jpg","1","0","1210"
"3","3","encoding","encoding","71","Tape_Dispenser.jpg","1","0","1906"
"3","3","encoding","encoding","72","Wreath.jpg","1","0","1564"
"3","3","encoding","encoding","73","Helmet_Soldier.jpg","2","0","1435"
"3","3","encoding","encoding","74","Bottle_CosmeticSpray.jpg","1","0","1202"
"3","3","encoding","encoding","75","AlarmSystem.jpg","1","0","1369"
"3","3","encoding","encoding","76","Scooter.jpg","1","0","1011"
"3","3","encoding","encoding","77","SkullDeer.jpg","4","0","1525"
"3","3","encoding","encoding","78","SiloGrain.jpg","2","0","1378"
"3","3","encoding","encoding","79","Box_WoodCrate.jpg","1","0","1292"
"3","3","encoding","encoding","80","FloppyDisk.jpg","1","0","1309"
"3","3","encoding","encoding","81","FlashlightHeadBand.jpg","1","0","890"
"3","3","encoding","encoding","82","TelephoneJack.jpg","1","0","808"
"3","3","encoding","encoding","83","Stroller.jpg","1","0","847"
"3","3","encoding","encoding","84","BicycleGear.jpg","1","0","1141"
"3","3","encoding","encoding","85","Machine_EKG.jpg","1","0","912"
"3","3","encoding","encoding","86","Tire_Hollow.jpg","2","0","2009"
"3","3","encoding","encoding","87","SetSquare.jpg","1","0","977"
"3","3","encoding","encoding","88","Dynamite.jpg","5","0","2848"
"3","3","encoding","encoding","89","Toy_Slinky.jpg","4","0","2301"
"3","3","encoding","encoding","90","Spraybottle.jpg","1","0","1809"
"3","3","encoding","encoding","91","Box_Apples.jpg","0","0","3000"
"3","3","encoding","encoding","92","DarthVader.jpg","2","0","2315"
"3","3","encoding","encoding","93","Dog_Bulldog.jpg","5","0","1452"
"3","3","encoding","encoding","94","Tofu.jpg","1","0","1177"
"3","3","encoding","encoding","95","Toy_Car.jpg","1","0","1003"
"3","3","encoding","encoding","96","Comb_1.jpg","1","0","992"
"3","3","encoding","encoding","97","Qtip_Multiple.jpg","1","0","916"
"3","3","encoding","encoding","98","Gun_Revolver.jpg","6","0","1943"
"3","3","encoding","encoding","99","Nail.jpg","1","0","2436"
"3","3","encoding","encoding","100","Pickle.jpg","2","0","2390"
"3","3","encoding","encoding","101","Spoons_Musical.jpg","1","0","2298"
"3","3","encoding","encoding","102","Fish_Swordfish.jpg","3","0","2350"
"3","3","encoding","encoding","103","Umbrella_Retractable.jpg","1","0","1749"
"3","3","encoding","encoding","104","Nametag.jpg","1","0","1669"
"3","3","encoding","encoding","105","Buffalo.jpg","3","0","1766"
"3","3","encoding","encoding","106","Noisemaker.jpg","1","0","2416"
"3","3","encoding","encoding","107","Bag_Grains.jpg","1","0","1490"
"3","3","encoding","encoding","108","Sandcastle.jpg","2","0","1928"
"3","3","encoding","encoding","109","Shoe_Pink.jpg","4","0","1875"
"3","3","encoding","encoding","110","Toy_Lizard.jpg","2","0","1722"
"3","3","encoding","encoding","111","Stapler_Regular.jpg","1","0","1303"
"3","3","encoding","encoding","112","Pancakes.jpg","2","0","1281"
"3","3","encoding","encoding","113","WaterCooler.jpg","1","0","1637"
"3","3","encoding","encoding","114","Television.jpg","2","0","1731"
"3","3","encoding","encoding","115","SelfieStick.jpg","3","0","2077"
"3","3","encoding","encoding","116","MeterElectric.jpg","1","0","1336"
"3","3","encoding","encoding","117","Compact_Mirror.jpg","1","0","1125"
"3","3","encoding","encoding","118","Fossil.jpg","5","0","1531"
"3","3","encoding","encoding","119","Bucket_Champagne.jpg","4","0","1710"
"3","3","encoding","encoding","120","Clip_Paper.jpg","1","0","2253"
"3","3","encoding","encoding","121","Pot_Crock.jpg","2","0","1408"
"3","3","encoding","encoding","123","Toilet.jpg","4","0","2191"
"3","3","encoding","encoding","124","Igloo.jpg","1","0","1195"
"3","3","encoding","encoding","125","Teapot.jpg","2","0","1131"
"3","3","encoding","encoding","126","Box_Jewellery.jpg","6","0","1544"
"3","3","encoding","encoding","127","Bird_Tern.jpg","4","0","1966"
"3","3","encoding","encoding","128","Computer_ExpansionCard.jpg","1","0","1295"
"3","3","encoding","encoding","129","Box_WoodenClosed.jpg","2","0","1160"
"3","3","encoding","encoding","130","HandRake.jpg","1","0","1184"
"3","3","encoding","encoding","131","DoorHandle.jpg","1","0","1236"
"3","3","encoding","encoding","132","Wire_Soldering.jpg","1","0","1014"
"3","3","encoding","encoding","133","Toy_Rooster.jpg","2","0","1403"
"3","3","encoding","encoding","134","Sand.jpg","1","0","2164"
"3","3","encoding","encoding","135","Beater_Electric.jpg","2","0","1617"
"3","3","encoding","encoding","136","Wheelbarrow_Green.jpg","1","0","1098"
"3","3","encoding","encoding","137","Airplane_Commercial.jpg","3","0","1655"
"3","3","encoding","encoding","138","Car_Buggy.jpg","1","0","984"
"3","3","encoding","encoding","139","Container_Tupperware.jpg","1","0","1362"
"3","3","encoding","encoding","140","Chair_MedicalToilet.jpg","2","0","1967"
"3","3","encoding","encoding","141","PassionFruit.jpg","2","0","2143"
"3","3","encoding","encoding","142","Flute_Wooden.jpg","2","0","2076"
"3","3","encoding","encoding","143","JumpingJack.jpg","1","0","1563"
"3","3","encoding","encoding","144","Flower_Orchid.jpg","7","0","2015"
"3","3","encoding","encoding","145","IceCreamCone.jpg","4","0","1313"
"3","3","encoding","encoding","146","Cracker_Saltine.jpg","5","0","1626"
"3","3","encoding","encoding","147","Canteen.jpg","1","0","2287"
"3","3","encoding","encoding","148","FuseBox.jpg","1","0","876"
"3","3","encoding","encoding","149","Lock_Door.jpg","1","0","693"
"3","3","encoding","encoding","150","Origami_Ox.jpg","3","0","1599"
"3","3","encoding","encoding","151","Boat_Colourful.jpg","5","0","1672"
"3","3","encoding","encoding","152","Cord_usb.jpg","1","0","1285"
"3","3","encoding","encoding","153","Mirror_Dental.jpg","1","0","1603"
"3","3","encoding","encoding","154","Bamboo.jpg","2","0","1301"
"3","3","encoding","encoding","155","Toy_HockeyStick.jpg","1","0","1699"
"3","3","encoding","encoding","156","Ball_Disco.jpg","3","0","2062"
"3","3","encoding","encoding","157","ElectricSwitchboard.jpg","1","0","1270"
"3","3","encoding","encoding","158","Distaff.jpg","2","0","1932"
"3","3","encoding","encoding","159","Puzzle_Piece.jpg","1","0","1469"
"3","3","encoding","encoding","160","CheeseSlicer.jpg","1","0","1482"
"3","3","encoding","encoding","161","ShoulderPads.jpg","1","0","1130"
"3","3","encoding","encoding","162","Toy_BearBlackPlastic.jpg","1","0","799"
"3","3","encoding","encoding","163","Birdhouse.jpg","2","0","2239"
"3","3","encoding","encoding","164","Boombox.jpg","2","0","1792"
"3","3","encoding","encoding","165","Boat_Ferry.jpg","3","0","2009"
"3","3","encoding","encoding","166","LetterMail.jpg","2","0","1265"
"3","3","encoding","encoding","167","Hourglass.jpg","3","0","2287"
"3","3","encoding","encoding","168","Otoscope.jpg","1","0","1239"
"3","3","encoding","encoding","169","Clarinet.jpg","2","0","1653"
"3","3","encoding","encoding","170","NewspaperStack.jpg","1","0","1481"
"3","3","encoding","encoding","171","Chopsticks.jpg","2","0","1642"
"3","3","encoding","encoding","172","PaintCan.jpg","1","0","1090"
"3","3","encoding","encoding","173","Lighter_Black.jpg","5","0","1730"
"3","3","encoding","encoding","174","Camera_Digital.jpg","2","0","1514"
"3","3","encoding","encoding","175","Ball_Golf.jpg","1","0","1395"
"3","3","encoding","encoding","176","Earth_Planet.jpg","7","0","1765"
"3","3","encoding","encoding","177","Ring_Plain.jpg","3","0","2467"
"3","3","retrieval","new_objects","1","Shoes_DutchClogs.jpg","37","1","812"
"3","3","retrieval","old_objects","2","FloppyDisk.jpg","36","1","750"
"3","3","retrieval","old_objects","3","Banana.jpg","36","1","638"
"3","3","retrieval","new_objects","4","PaperShredder.jpg","37","1","761"
"3","3","retrieval","old_objects","5","ShoeLace_Flat.jpg","36","1","810"
"3","3","retrieval","new_objects","6","BicycleHandleGrip.jpg","37","1","727"
"3","3","retrieval","new_objects","7","Shark_Hammerhead.jpg","37","1","644"
"3","3","retrieval","new_objects","8","Tag_Identifier.jpg","37","1","885"
"3","3","retrieval","new_objects","9","KeyHook_Empty.jpg","37","1","618"
"3","3","retrieval","new_objects","10","TrapAnimal.jpg","37","1","629"
"3","3","retrieval","old_objects","11","Bucket_Champagne.jpg","36","1","666"
"3","3","retrieval","new_objects","12","Helmet_Construction.jpg","37","1","587"
"3","3","retrieval","new_objects","13","Chime.jpg","37","1","552"
"3","3","retrieval","old_objects","14","MeterElectric.jpg","36","1","656"
"3","3","retrieval","new_objects","15","PatioHeater.jpg","37","1","927"
"3","3","retrieval","old_objects","16","Puzzle_Piece.jpg","36","1","623"
"3","3","retrieval","new_objects","17","Hat_Beret.jpg","37","1","600"
"3","3","retrieval","new_objects","18","CoinRolls.jpg","37","1","552"
"3","3","retrieval","new_objects","19","HumanSkull.jpg","37","1","559"
"3","3","retrieval","new_objects","20","Boxcutter.jpg","37","1","700"
"3","3","retrieval","old_objects","21","Compact_Mirror.jpg","36","1","604"
"3","3","retrieval","old_objects","22","Bag_Grains.jpg","36","1","821"
"3","3","retrieval","old_objects","23","Toy_Dog.jpg","36","1","759"
"3","3","retrieval","new_objects","24","HotWaterBottle.jpg","37","1","508"
"3","3","retrieval","new_objects","25","BabyMonitor.jpg","37","1","581"
"3","3","retrieval","new_objects","26","Decoration_ChristmasRed.jpg","37","1","791"
"3","3","retrieval","new_objects","27","ComputerKeyboard.jpg","37","1","827"
"3","3","retrieval","old_objects","28","Box_WoodenClosed.jpg","36","1","569"
"3","3","retrieval","new_objects","29","CrepeMaker.jpg","37","1","799"
"3","3","retrieval","old_objects","30","Flower_Orchid.jpg","36","1","733"
"3","3","retrieval","new_objects","31","Dresser_1.jpg","37","1","615"
"3","3","retrieval","old_objects","32","Headset.jpg","36","1","759"
"3","3","retrieval","new_objects","33","Truck_Dump.jpg","37","1","553"
"3","3","retrieval","new_objects","34","Guitarcase.jpg","37","1","704"
"3","3","retrieval","old_objects","35","Boat_Ferry.jpg","36","1","689"
"3","3","retrieval","new_objects","36","Bathtub.jpg","37","1","752"
"3","3","retrieval","new_objects","37","Fruit_Cactus.jpg","37","1","545"
"3","3","retrieval","new_objects","38","Umbrella_Classic.jpg","37","1","595"
"3","3","retrieval","new_objects","39","Seahorse.jpg","37","1","940"
"3","3","retrieval","old_objects","40","DrinkShaker.jpg","36","1","695"
"3","3","retrieval","new_objects","41","BusStop.jpg","37","1","648"
"3","3","retrieval","new_objects","42","Trowel.jpg","37","1","883"
"3","3","retrieval","old_objects","43","Blanket.jpg","36","1","737"
"3","3","retrieval","old_objects","44","Makeup_Eyeshadow.jpg","36","1","638"
"3","3","retrieval","new_objects","45","Locomotive.jpg","37","1","573"
"3","3","retrieval","old_objects","46","Shed.jpg","36","1","660"
"3","3","retrieval","old_objects","47","Television.jpg","36","1","638"
"3","3","retrieval","old_objects","48","Stroboscope.jpg","36","1","788"
"3","3","retrieval","old_objects","49","Napkin_Single.jpg","36","1","999"
"3","3","retrieval","old_objects","50","Ball_Squashball.jpg","36","1","636"
"3","3","retrieval","old_objects","51","Wire_Soldering.jpg","36","1","652"
"3","3","retrieval","new_objects","52","Shoes_Sneakers.jpg","37","1","665"
"3","3","retrieval","old_objects","53","Ball_Golf.jpg","36","1","536"
"3","3","retrieval","new_objects","54","ColumnMarble.jpg","37","1","702"
"3","3","retrieval","old_objects","55","Tire_Hollow.jpg","36","1","641"
"3","3","retrieval","old_objects","56","Chair_MedicalToilet.jpg","36","1","547"
"3","3","retrieval","old_objects","57","Nametag.jpg","36","1","910"
"3","3","retrieval","new_objects","58","DormerWindow.jpg","37","1","817"
"3","3","retrieval","old_objects","59","CameoPortrait.jpg","36","1","666"
"3","3","retrieval","old_objects","60","TelephoneJack.jpg","37","0","761"
"3","3","retrieval","new_objects","62","Can_OilSpout.jpg","37","1","781"
"3","3","retrieval","new_objects","63","BrainSagittal.jpg","37","1","575"
"3","3","retrieval","old_objects","64","Decoration_ChristmasWhite.jpg","36","1","682"
"3","3","retrieval","new_objects","65","Blueprints.jpg","37","1","666"
"3","3","retrieval","old_objects","66","NewspaperStack.jpg","36","1","620"
"3","3","retrieval","new_objects","67","AmberWithMosquito.jpg","37","1","896"
"3","3","retrieval","new_objects","68","Drum_Cymbal.jpg","37","1","630"
"3","3","retrieval","old_objects","69","Boombox.jpg","36","1","661"
"3","3","retrieval","old_objects","70","Clip_Paper.jpg","36","1","603"
"3","3","retrieval","old_objects","71","Clarinet.jpg","36","1","670"
"3","3","retrieval","old_objects","72","Tube_Paint.jpg","36","1","613"
"3","3","retrieval","new_objects","73","Stool_Metal.jpg","37","1","687"
"3","3","retrieval","old_objects","74","Candy_Toffee.jpg","36","1","870"
"3","3","retrieval","old_objects","75","Weathervane.jpg","36","1","605"
"3","3","retrieval","old_objects","76","Door_Blue.jpg","36","1","637"
"3","3","retrieval","new_objects","77","Funnel.jpg","37","1","700"
"3","3","retrieval","old_objects","78","Bird_Tern.jpg","36","1","611"
"3","3","retrieval","old_objects","79","Pancakes.jpg","36","1","487"
"3","3","retrieval","new_objects","80","Wheel_Steering.jpg","37","1","582"
"3","3","retrieval","old_objects","81","PassionFruit.jpg","36","1","594"
"3","3","retrieval","new_objects","82","RibbonString.jpg","37","1","781"
"3","3","retrieval","new_objects","83","TartStrawberry.jpg","37","1","590"
"3","3","retrieval","old_objects","84","DogTreat.jpg","36","1","755"
"3","3","retrieval","new_objects","85","Hand.jpg","37","1","516"
"3","3","retrieval","old_objects","86","FuseBox.jpg","36","1","613"
"3","3","retrieval","new_objects","87","ScaleWeighing.jpg","37","1","488"
"3","3","retrieval","new_objects","88","Bell_Hand.jpg","37","1","551"
"3","3","retrieval","new_objects","89","Goose_Canadian.jpg","37","1","765"
"3","3","retrieval","new_objects","90","PokerChips.jpg","36","0","1018"
"3","3","retrieval","old_objects","91","Toilet.jpg","36","1","579"
"3","3","retrieval","old_objects","92","Container_Tupperware.jpg","36","1","603"
"3","3","retrieval","old_objects","93","Speaker_OnStand.jpg","36","1","623"
"3","3","retrieval","new_objects","94","Sled.jpg","37","1","598"
"3","3","retrieval","new_objects","95","Toy_Chameleon.jpg","37","1","526"
"3","3","retrieval","old_objects","96","Pencil.jpg","37","0","815"
"3","3","retrieval","old_objects","97","Gun_Revolver.jpg","36","1","645"
"3","3","retrieval","new_objects","98","Can_Gas.jpg","37","1","616"
"3","3","retrieval","old_objects","99","FlashlightHeadBand.jpg","36","1","595"
"3","3","retrieval","old_objects","100","CompassCardinal.jpg","36","1","560"
"3","3","retrieval","new_objects","101","PeasSplit.jpg","36","0","702"
"3","3","retrieval","old_objects","102","Bamboo.jpg","36","1","1096"
"3","3","retrieval","new_objects","103","Humidifier.jpg","37","1","610"
"3","3","retrieval","old_objects","104","SetSquare.jpg","36","1","683"
"3","3","retrieval","old_objects","105","SelfieStick.jpg","36","1","671"
"3","3","retrieval","new_objects","106","Photocopier.jpg","37","1","594"
"3","3","retrieval","old_objects","107","BoogieBoard.jpg","37","0","551"
"3","3","retrieval","new_objects","108","Nuts_Walnut.jpg","37","1","564"
"3","3","retrieval","old_objects","109","Distaff.jpg","36","1","771"
"3","3","retrieval","new_objects","110","Bird_Peacock.jpg","37","1","872"
"3","3","retrieval","new_objects","111","LitterScoop.jpg","36","0","763"
"3","3","retrieval","new_objects","112","Chair_Car.jpg","37","1","937"
"3","3","retrieval","old_objects","113","Steamroller.jpg","36","1","913"
"3","3","retrieval","new_objects","114","Cast.jpg","37","1","718"
"3","3","retrieval","new_objects","115","MassageRoller.jpg","37","1","804"
"3","3","retrieval","new_objects","116","RibbonSpool.jpg","37","1","932"
"3","3","retrieval","new_objects","117","Sign_Construction.jpg","37","1","604"
"3","3","retrieval","new_objects","118","Jar_Cookie.jpg","37","1","538"
"3","3","retrieval","new_objects","119","Corkboard.jpg","37","1","592"
"3","3","retrieval","new_objects","120","Calculator.jpg","37","1","609"
"3","3","retrieval","new_objects","121","Bird_Pelican.jpg","37","1","599"
"3","3","retrieval","old_objects","123","Stapler_Regular.jpg","36","1","1008"
"3","3","retrieval","new_objects","124","Microphone.jpg","37","1","741"
"3","3","retrieval","old_objects","125","White_Screen.jpg","37","0","1512"
"3","3","retrieval","new_objects","126","MetalChain.jpg","37","1","886"
"3","3","retrieval","old_objects","127","Toy_Rooster.jpg","36","1","621"
"3","3","retrieval","old_objects","128","Computer_ExpansionCard.jpg","36","1","635"
"3","3","retrieval","old_objects","129","Buffalo.jpg","36","1","577"
"3","3","retrieval","old_objects","130","Dog_Bulldog.jpg","36","1","537"
"3","3","retrieval","new_objects","131","Centrifuge.jpg","37","1","814"
"3","3","retrieval","new_objects","132","Taco.jpg","37","1","647"
"3","3","retrieval","new_objects","133","ChocolateBar_Unwrapped.jpg","37","1","913"
"3","3","retrieval","old_objects","134","LampPost_ThreeBulbs.jpg","36","1","780"
"3","3","retrieval","new_objects","135","Toy_Zebra.jpg","37","1","669"
"3","3","retrieval","old_objects","136","ReindeerHeadband.jpg","36","1","655"
"3","3","retrieval","new_objects","137","RugRoled.jpg","37","1","604"
"3","3","retrieval","new_objects","138","RemoteControl.jpg","37","1","662"
"3","3","retrieval","old_objects","139","MovieSlate.jpg","36","1","682"
"3","3","retrieval","new_objects","140","Phone_Wireless.jpg","37","1","608"
"3","3","retrieval","new_objects","141","Nyala.jpg","37","1","726"
"3","3","retrieval","old_objects","142","Toy_Lizard.jpg","36","1","638"
"3","3","retrieval","new_objects","143","Joystick.jpg","37","1","866"
"3","3","retrieval","old_objects","144","Steeple.jpg","36","1","599"
"3","3","retrieval","old_objects","145","Cord_usb.jpg","36","1","710"
"3","3","retrieval","new_objects","146","Toy_Lighthouse.jpg","37","1","588"
"3","3","retrieval","old_objects","147","Frame_Oval.jpg","36","1","784"
"3","3","retrieval","new_objects","148","Knife_Hunting.jpg","37","1","615"
"3","3","retrieval","old_objects","149","Celery.jpg","36","1","628"
"3","3","retrieval","new_objects","150","Barometer_Wood.jpg","37","1","994"
"3","3","retrieval","old_objects","151","InflatableSleepingBag.jpg","36","1","650"
"3","3","retrieval","old_objects","152","PillBottle_Spilled.jpg","36","1","642"
"3","3","retrieval","old_objects","153","Shoes_Snowboarding.jpg","36","1","674"
"3","3","retrieval","old_objects","154","Pepper_Green.jpg","36","1","528"
"3","3","retrieval","new_objects","155","Table_Picnic.jpg","37","1","601"
"3","3","retrieval","new_objects","156","HumanSkeleton.jpg","37","1","672"
"3","3","retrieval","new_objects","157","Shoe_WomenHeals.jpg","37","1","628"
"3","3","retrieval","new_objects","158","Toy_Truck.jpg","37","1","760"
"3","3","retrieval","old_objects","159","AlarmSystem.jpg","36","1","751"
"3","3","retrieval","old_objects","160","Machine_EKG.jpg","36","1","648"
"3","3","retrieval","old_objects","161","Card_TwoSpade.jpg","36","1","809"
"3","3","retrieval","old_objects","162","RamAnimal.jpg","36","1","828"
"3","3","retrieval","new_objects","163","Chest_Toys.jpg","37","1","566"
"3","3","retrieval","new_objects","164","Brush_BathBack.jpg","37","1","582"
"3","3","retrieval","old_objects","165","Paddle_Ball.jpg","36","1","592"
"3","3","retrieval","old_objects","166","Booties_Blue.jpg","36","1","649"
"3","3","retrieval","new_objects","167","Toast.jpg","37","1","729"
"3","3","retrieval","old_objects","168","Dynamite.jpg","36","1","820"
"3","3","retrieval","new_objects","169","Level.jpg","37","1","761"
"3","3","retrieval","old_objects","170","Origami_Ox.jpg","36","1","705"
"3","3","retrieval","old_objects","171","Crib_Basket.jpg","37","0","919"
"3","3","retrieval","old_objects","172","ShoulderPads.jpg","36","1","799"
"3","3","retrieval","old_objects","173","IceCreamCone.jpg","36","1","593"
"3","3","retrieval","new_objects","174","Car_Ferrari.jpg","37","1","786"
"3","3","retrieval","new_objects","175","Toy_SeeSaw.jpg","37","1","703"
"3","3","retrieval","old_objects","176","RollerCoaster.jpg","36","1","717"
"3","3","retrieval","new_objects","177","Stool_Wood.jpg","37","1","654"
"3","3","retrieval","old_objects","178","Bells_Christmas.jpg","36","1","651"
"3","3","retrieval","new_objects","179","Thimble.jpg","37","1","878"
"3","3","retrieval","new_objects","180","CookieCutter_Bell.jpg","37","1","644"
"3","3","retrieval","old_objects","181","Otoscope.jpg","36","1","612"
"3","3","retrieval","old_objects","182","Helmet_Motorcycle.jpg","36","1","670"
"3","3","retrieval","old_objects","184","Chopsticks.jpg","36","1","708"
"3","3","retrieval","old_objects","185","Puzzle_Animal.jpg","36","1","582"
"3","3","retrieval","old_objects","186","Pouch_PotPourri.jpg","36","1","631"
"3","3","retrieval","old_objects","187","Pickle.jpg","36","1","597"
"3","3","retrieval","old_objects","188","Chair_BeanBag.jpg","36","1","648"
"3","3","retrieval","new_objects","189","Ring_Diamond.jpg","37","1","828"
"3","3","retrieval","old_objects","190","Dice.jpg","36","1","844"
"3","3","retrieval","old_objects","191","Seeder.jpg","37","0","883"
"3","3","retrieval","new_objects","192","Arm.jpg","37","1","535"
"3","3","retrieval","old_objects","193","JumpingJack.jpg","36","1","1002"
"3","3","retrieval","old_objects","194","Earth_Planet.jpg","36","1","568"
"3","3","retrieval","new_objects","195","Can_GasSpout.jpg","36","0","799"
"3","3","retrieval","old_objects","196","Toy_BearBlackPlastic.jpg","37","0","1034"
"3","3","retrieval","new_objects","197","Broom_Long.jpg","37","1","1287"
"3","3","retrieval","new_objects","198","Cable_AudioSplitter.jpg","37","1","696"
"3","3","retrieval","new_objects","199","Puffin.jpg","37","1","623"
"3","3","retrieval","new_objects","200","MortarPestle_WhiteMarble.jpg","37","1","590"
"3","3","retrieval","old_objects","201","Dolphine.jpg","36","1","646"
"3","3","retrieval","new_objects","202","Glove_Baseball.jpg","37","1","697"
"3","3","retrieval","old_objects","203","HandRake.jpg","36","1","714"
"3","3","retrieval","old_objects","204","Boat_Colourful.jpg","36","1","661"
"3","3","retrieval","new_objects","205","CarSuspension.jpg","36","0","753"
"3","3","retrieval","new_objects","206","Spatula.jpg","36","0","651"
"3","3","retrieval","old_objects","207","ElectricSwitchboard.jpg","36","1","1070"
"3","3","retrieval","old_objects","208","PaintCan.jpg","36","1","651"
"3","3","retrieval","old_objects","209","Flower_Basket.jpg","36","1","527"
"3","3","retrieval","old_objects","210","Wheelbarrow_Green.jpg","36","1","646"
"3","3","retrieval","new_objects","211","Ball_Bowling.jpg","37","1","716"
"3","3","retrieval","old_objects","212","Cabinet_Display.jpg","36","1","612"
"3","3","retrieval","old_objects","213","Lighter_Black.jpg","36","1","679"
"3","3","retrieval","old_objects","214","Tag_Price.jpg","36","1","725"
"3","3","retrieval","old_objects","215","Grenade.jpg","36","1","1497"
"3","3","retrieval","new_objects","216","VacuumHandheld.jpg","37","1","715"
"3","3","retrieval","old_objects","217","Airplane_Commercial.jpg","36","1","664"
"3","3","retrieval","old_objects","218","Owl.jpg","36","1","561"
"3","3","retrieval","new_objects","219","Qtip_Single.jpg","36","0","578"
"3","3","retrieval","old_objects","220","Spoon_Sugar.jpg","36","1","896"
"3","3","retrieval","new_objects","221","DoubleBass.jpg","37","1","1695"
"3","3","retrieval","new_objects","222","Card_Deck.jpg","37","1","871"
"3","3","retrieval","old_objects","223","Balalaika.jpg","36","1","869"
"3","3","retrieval","old_objects","224","Igloo.jpg","36","1","936"
"3","3","retrieval","old_objects","225","Kneepad.jpg","36","1","676"
"3","3","retrieval","new_objects","226","Spoon_Wooden.jpg","37","1","808"
"3","3","retrieval","old_objects","227","Beater_Electric.jpg","36","1","578"
"3","3","retrieval","new_objects","228","Glasses_Reading.jpg","37","1","598"
"3","3","retrieval","new_objects","229","Hat_Visor.jpg","37","1","839"
"3","3","retrieval","new_objects","230","Sign_SpeedLimit25.jpg","37","1","577"
"3","3","retrieval","new_objects","231","HedgeShears.jpg","37","1","589"
"3","3","retrieval","old_objects","232","Nail.jpg","36","1","574"
"3","3","retrieval","old_objects","233","Noisemaker.jpg","36","1","631"
"3","3","retrieval","old_objects","234","Flute_Wooden.jpg","36","1","624"
"3","3","retrieval","old_objects","235","Ring_Plain.jpg","36","1","506"
"3","3","retrieval","old_objects","236","Cage_Bird.jpg","36","1","527"
"3","3","retrieval","new_objects","237","Cake_Cheese.jpg","37","1","701"
"3","3","retrieval","new_objects","238","Bottle_Liquor.jpg","37","1","557"
"3","3","retrieval","old_objects","239","Tofu.jpg","36","1","559"
"3","3","retrieval","new_objects","240","Cart_Groceries.jpg","37","1","548"
"3","3","retrieval","old_objects","241","Teapot.jpg","36","1","623"
"3","3","retrieval","new_objects","242","Flask_Metal.jpg","37","1","736"
"3","3","retrieval","old_objects","243","Mirror_Dental.jpg","36","1","853"
"3","3","retrieval","new_objects","245","Hanger.jpg","37","1","728"
"3","3","retrieval","new_objects","246","Hookah.jpg","37","1","588"
"3","3","retrieval","new_objects","247","Bag_String.jpg","37","1","653"
"3","3","retrieval","new_objects","248","DrinkingFountain.jpg","37","1","642"
"3","3","retrieval","new_objects","249","DogHouse.jpg","37","1","547"
"3","3","retrieval","new_objects","250","Figurine_Ballerina.jpg","37","1","536"
"3","3","retrieval","new_objects","251","Grill_Gas.jpg","37","1","480"
"3","3","retrieval","old_objects","252","LetterMail.jpg","36","1","703"
"3","3","retrieval","new_objects","253","Telephone_Booth.jpg","37","1","547"
"3","3","retrieval","new_objects","254","Spoons_MeasuringDetached.jpg","37","1","514"
"3","3","retrieval","old_objects","255","Stroller.jpg","37","0","435"
"3","3","retrieval","new_objects","256","Windmill_Building.jpg","37","1","503"
"3","3","retrieval","old_objects","257","Radish.jpg","36","1","690"
"3","3","retrieval","new_objects","258","MagazineRoll.jpg","37","1","753"
"3","3","retrieval","new_objects","259","FoodMill.jpg","37","1","620"
"3","3","retrieval","new_objects","260","Brush_Nail.jpg","37","1","498"
"3","3","retrieval","old_objects","261","Keychain_Leather.jpg","37","0","563"
"3","3","retrieval","old_objects","262","Wreath.jpg","36","1","675"
"3","3","retrieval","new_objects","263","FileDivider.jpg","37","1","579"
"3","3","retrieval","old_objects","264","Cracker_Saltine.jpg","36","1","598"
"3","3","retrieval","new_objects","265","Basket_Plastic.jpg","37","1","561"
"3","3","retrieval","old_objects","266","Box_Jewellery.jpg","36","1","584"
"3","3","retrieval","new_objects","267","SewingPin_Single.jpg","37","1","1064"
"3","3","retrieval","new_objects","268","Boardgame_ChineseCheckers.jpg","37","1","569"
"3","3","retrieval","new_objects","269","Dog_CockerSpaniel.jpg","37","1","603"
"3","3","retrieval","old_objects","270","Box_WoodCrate.jpg","37","0","664"
"3","3","retrieval","new_objects","271","Ladybug.jpg","37","1","650"
"3","3","retrieval","old_objects","272","Sandcastle.jpg","36","1","695"
"3","3","retrieval","new_objects","273","Truck_Pickup.jpg","37","1","664"
"3","3","retrieval","new_objects","274","Tie.jpg","37","1","663"
"3","3","retrieval","new_objects","275","Lemon.jpg","37","1","715"
"3","3","retrieval","new_objects","276","Generator.jpg","37","1","522"
"3","3","retrieval","new_objects","277","Helmet_Football.jpg","37","1","565"
"3","3","retrieval","old_objects","278","Lacrosse_Stick.jpg","37","0","523"
"3","3","retrieval","old_objects","279","Qtip_Multiple.jpg","37","0","704"
"3","3","retrieval","old_objects","280","NailClipper.jpg","37","0","1121"
"3","3","retrieval","old_objects","281","WaterCooler.jpg","37","0","706"
"3","3","retrieval","old_objects","282","DarthVader.jpg","36","1","548"
"3","3","retrieval","old_objects","283","Fossil.jpg","36","1","600"
"3","3","retrieval","new_objects","284","LampPost_OneBulb.jpg","36","0","625"
"3","3","retrieval","old_objects","285","Umbrella_Retractable.jpg","36","1","848"
"3","3","retrieval","new_objects","286","Toy_Bat.jpg","36","0","648"
"3","3","retrieval","old_objects","287","Tape_Dispenser.jpg","37","0","604"
"3","3","retrieval","old_objects","288","Box_Apples.jpg","36","1","816"
"3","3","retrieval","new_objects","289","Blackboard.jpg","37","1","1205"
"3","3","retrieval","old_objects","290","Bird_Budgie.jpg","36","1","1061"
"3","3","retrieval","new_objects","291","Scalpel.jpg","37","1","673"
"3","3","retrieval","new_objects","292","Mask_Gas.jpg","37","1","746"
"3","3","retrieval","new_objects","293","MechanicalSpring.jpg","36","0","806"
"3","3","retrieval","old_objects","294","Helmet_Soldier.jpg","36","1","640"
"3","3","retrieval","old_objects","295","GogglesSwim.jpg","36","1","666"
"3","3","retrieval","new_objects","296","BakingDish.jpg","37","1","550"
"3","3","retrieval","new_objects","297","Coconut.jpg","37","1","714"
"3","3","retrieval","new_objects","298","Syrup_Maple.jpg","37","1","636"
"3","3","retrieval","old_objects","299","ChessPiece_Bishop.jpg","36","1","614"
"3","3","retrieval","new_objects","300","Boat_Trailer.jpg","37","1","549"
"3","3","retrieval","new_objects","301","IceScraper.jpg","37","1","607"
"3","3","retrieval","old_objects","302","RecorderInstrument.jpg","36","1","657"
"3","3","retrieval","new_objects","303","Mask_VenetianLongNose.jpg","37","1","664"
"3","3","retrieval","old_objects","304","Fish_Swordfish.jpg","36","1","724"
"3","3","retrieval","old_objects","306","Spoons_Musical.jpg","36","1","728"
"3","3","retrieval","new_objects","307","CashRegister_Modern.jpg","37","1","681"
"3","3","retrieval","new_objects","308","Tiara.jpg","37","1","682"
"3","3","retrieval","old_objects","309","Bottle_CosmeticSpray.jpg","36","1","823"
"3","3","retrieval","old_objects","310","Car_Buggy.jpg","36","1","817"
"3","3","retrieval","old_objects","311","Comb_1.jpg","36","1","904"
"3","3","retrieval","new_objects","312","Shampoo.jpg","37","1","603"
"3","3","retrieval","old_objects","313","Toy_HockeyStick.jpg","36","1","625"
"3","3","retrieval","old_objects","314","Birdhouse.jpg","36","1","601"
"3","3","retrieval","old_objects","315","CheeseSlicer.jpg","36","1","644"
"3","3","retrieval","old_objects","316","Sand.jpg","36","1","675"
"3","3","retrieval","new_objects","317","Mattress.jpg","37","1","734"
"3","3","retrieval","old_objects","318","Flower_Rose.jpg","36","1","749"
"3","3","retrieval","new_objects","319","Catheter.jpg","37","1","620"
"3","3","retrieval","old_objects","320","Scooter.jpg","36","1","683"
"3","3","retrieval","old_objects","321","Fan_Straw.jpg","36","1","609"
"3","3","retrieval","old_objects","322","Camera_Digital.jpg","36","1","677"
"3","3","retrieval","old_objects","323","DoorHandle.jpg","36","1","809"
"3","3","retrieval","old_objects","324","Ball_Disco.jpg","36","1","601"
"3","3","retrieval","old_objects","325","Spraybottle.jpg","37","0","577"
"3","3","retrieval","old_objects","326","Mat_Bamboo.jpg","36","1","998"
"3","3","retrieval","new_objects","327","Bat_Baseball.jpg","36","0","695"
"3","3","retrieval","old_objects","328","Shoe_Pink.jpg","36","1","582"
"3","3","retrieval","new_objects","329","Hangar.jpg","37","1","727"
"3","3","retrieval","old_objects","330","SiloGrain.jpg","36","1","591"
"3","3","retrieval","old_objects","331","Wallet_ClosedBrown.jpg","36","1","643"
"3","3","retrieval","new_objects","332","SaxophoneSoprano.jpg","37","1","617"
"3","3","retrieval","new_objects","333","Projector_Film.jpg","37","1","737"
"3","3","retrieval","new_objects","334","Bench_Concrete.jpg","37","1","767"
"3","3","retrieval","old_objects","335","Lock_Door.jpg","37","0","672"
"3","3","retrieval","new_objects","336","Chair_Bamboo.jpg","37","1","664"
"3","3","retrieval","new_objects","337","Helicopter.jpg","36","0","913"
"3","3","retrieval","new_objects","338","JuiceBox.jpg","37","1","661"
"3","3","retrieval","old_objects","339","BicycleGear.jpg","36","1","646"
"3","3","retrieval","old_objects","340","Hourglass.jpg","36","1","629"
"3","3","retrieval","new_objects","341","Brace_Neck.jpg","37","1","654"
"3","3","retrieval","new_objects","342","BowlingPin.jpg","37","1","749"
"3","3","retrieval","new_objects","343","Hat_Hard.jpg","36","0","840"
"3","3","retrieval","new_objects","344","HoseNozzle.jpg","36","0","685"
"3","3","retrieval","new_objects","345","Instrument_Guiro.jpg","37","1","711"
"3","3","retrieval","old_objects","346","Pot_Crock.jpg","36","1","621"
"3","3","retrieval","new_objects","347","Stick_Bridge.jpg","37","1","739"
"3","3","retrieval","new_objects","348","BadgeSpecialAgent.jpg","37","1","659"
"3","3","retrieval","old_objects","349","Toy_Slinky.jpg","36","1","543"
"3","3","retrieval","old_objects","350","Toy_Car.jpg","36","1","825"
"3","3","retrieval","new_objects","351","Lollipop_Grape.jpg","37","1","671"
"3","3","retrieval","new_objects","352","Lamp_Table.jpg","36","0","632"
"3","3","retrieval","old_objects","353","Canteen.jpg","36","1","674"
"3","3","retrieval","new_objects","354","Brush_Paint.jpg","37","1","690"
"3","3","retrieval","old_objects","355","SkullDeer.jpg","36","1","624"
"3","3","demographics_block","gender","1","SkullDeer.jpg","female","1","13951"
"3","3","demographics_block","age","1","SkullDeer.jpg","46","1","13951"
"3","3","demographics_block","education","1","SkullDeer.jpg","25","1","13951"
"3","3","demographics_block","left_right_handed","2","SkullDeer.jpg","Right","1","5681"
"3","3","demographics_block","raceoption1","2","SkullDeer.jpg","0","1","5681"
"3","3","demographics_block","raceoption2","2","SkullDeer.jpg","","1","5681"
"3","3","demographics_block","raceoption3","2","SkullDeer.jpg","","1","5681"
"3","3","demographics_block","raceoption4","2","SkullDeer.jpg","","1","5681"
"3","3","demographics_block","raceoption5","2","SkullDeer.jpg","","1","5681"
"3","3","demographics_block","raceoption6","2","SkullDeer.jpg","","1","5681"
"3","3","demographics_block","raceoption7","2","SkullDeer.jpg","","1","5681"
"3","3","demographics_block","raceoption8","2","SkullDeer.jpg","","1","5681"
"3","3","demographics_block","raceoption9","2","SkullDeer.jpg","","1","5681"
"3","3","demographics_block","raceother","2","SkullDeer.jpg","","1","5681"
"3","3","demographics_block","raceother","2","SkullDeer.jpg","","1","5681"
"3","3","demographics_block","english_language","2","SkullDeer.jpg","Yes","1","5681"
"3","3","demographics_block","english_languageother","2","SkullDeer.jpg","","1","5681"
"3","3","demographics_block","eyesight","3","SkullDeer.jpg","Yes","1","3200"
"3","3","demographics_block","colorblind","3","SkullDeer.jpg","No","1","3200"
"3","3","worker_id_block","worker_id_textbox","1","SkullDeer.jpg","A2FL477TMKC91L","1","4297"
"4","4","encoding","encoding","1","Spraybottle.jpg","4","0","1396"
"4","4","encoding","encoding","2","Puzzle_Piece.jpg","4","0","1374"
"4","4","encoding","encoding","3","Umbrella_Retractable.jpg","2","0","2950"
"4","4","encoding","encoding","4","Hourglass.jpg","3","0","2252"
"4","4","encoding","encoding","5","RecorderInstrument.jpg","3","0","1349"
"4","4","encoding","encoding","6","Kneepad.jpg","1","0","1710"
"4","4","encoding","encoding","7","Qtip_Multiple.jpg","2","0","2443"
"4","4","encoding","encoding","8","Wreath.jpg","4","0","2283"
"4","4","encoding","encoding","9","Dog_Bulldog.jpg","5","0","2499"
"4","4","encoding","encoding","10","Ball_Squashball.jpg","1","0","1203"
"4","4","encoding","encoding","11","Airplane_Commercial.jpg","3","0","2170"
"4","4","encoding","encoding","12","Cabinet_Display.jpg","1","0","2162"
"4","4","encoding","encoding","13","Gun_Revolver.jpg","6","0","1665"
"4","4","encoding","encoding","14","Shoes_Snowboarding.jpg","1","0","1569"
"4","4","encoding","encoding","15","Helmet_Soldier.jpg","3","0","2177"
"4","4","encoding","encoding","16","FlashlightHeadBand.jpg","2","0","1826"
"4","4","encoding","encoding","17","Grenade.jpg","6","0","2302"
"4","4","encoding","encoding","18","Keychain_Leather.jpg","1","0","1631"
"4","4","encoding","encoding","19","Igloo.jpg","1","0","1470"
"4","4","encoding","encoding","20","Crib_Basket.jpg","2","0","2408"
"4","4","encoding","encoding","21","Flower_Basket.jpg","0","0","3000"
"4","4","encoding","encoding","22","GogglesSwim.jpg","1","0","1056"
"4","4","encoding","encoding","23","Dynamite.jpg","5","0","2359"
"4","4","encoding","encoding","24","Radish.jpg","1","0","2077"
"4","4","encoding","encoding","25","PassionFruit.jpg","1","0","1133"
"4","4","encoding","encoding","26","Speaker_OnStand.jpg","2","0","2110"
"4","4","encoding","encoding","27","Steamroller.jpg","1","0","2438"
"4","4","encoding","encoding","28","NewspaperStack.jpg","3","0","1940"
"4","4","encoding","encoding","29","LetterMail.jpg","1","0","2509"
"4","4","encoding","encoding","30","InflatableSleepingBag.jpg","1","0","1981"
"4","4","encoding","encoding","31","Chair_BeanBag.jpg","1","0","1244"
"4","4","encoding","encoding","32","NailClipper.jpg","1","0","964"
"4","4","encoding","encoding","33","Pouch_PotPourri.jpg","1","0","1164"
"4","4","encoding","encoding","34","Otoscope.jpg","2","0","2284"
"4","4","encoding","encoding","35","Headset.jpg","3","0","1892"
"4","4","encoding","encoding","36","SiloGrain.jpg","1","0","1371"
"4","4","encoding","encoding","37","Nail.jpg","1","0","1090"
"4","4","encoding","encoding","38","Chair_MedicalToilet.jpg","1","0","1323"
"4","4","encoding","encoding","39","Tape_Dispenser.jpg","2","0","1858"
"4","4","encoding","encoding","40","ChessPiece_Bishop.jpg","1","0","1034"
"4","4","encoding","encoding","41","Shed.jpg","1","0","1050"
"4","4","encoding","encoding","42","IceCreamCone.jpg","5","0","2090"
"4","4","encoding","encoding","43","JumpingJack.jpg","4","0","2097"
"4","4","encoding","encoding","44","Lighter_Black.jpg","2","0","1562"
"4","4","encoding","encoding","45","LampPost_ThreeBulbs.jpg","3","0","1305"
"4","4","encoding","encoding","46","Stroller.jpg","6","0","2297"
"4","4","encoding","encoding","47","Noisemaker.jpg","1","0","1825"
"4","4","encoding","encoding","48","DogTreat.jpg","2","0","1993"
"4","4","encoding","encoding","49","Toy_Dog.jpg","3","0","1520"
"4","4","encoding","encoding","50","Puzzle_Animal.jpg","2","0","2976"
"4","4","encoding","encoding","51","CheeseSlicer.jpg","1","0","1680"
"4","4","encoding","encoding","52","Boat_Colourful.jpg","2","0","1639"
"4","4","encoding","encoding","53","Cage_Bird.jpg","2","0","1679"
"4","4","encoding","encoding","54","Toy_Car.jpg","6","0","2391"
"4","4","encoding","encoding","55","Mirror_Dental.jpg","1","0","1775"
"4","4","encoding","encoding","56","Comb_1.jpg","1","0","1486"
"4","4","encoding","encoding","57","Spoons_Musical.jpg","2","0","1663"
"4","4","encoding","encoding","58","PaintCan.jpg","1","0","2047"
"4","4","encoding","encoding","59","Buffalo.jpg","1","0","1452"
"4","4","encoding","encoding","60","Toy_Slinky.jpg","1","0","1110"
"4","4","encoding","encoding","62","Banana.jpg","1","0","2891"
"4","4","encoding","encoding","63","Distaff.jpg","1","0","2122"
"4","4","encoding","encoding","64","WaterCooler.jpg","3","0","2170"
"4","4","encoding","encoding","65","Spoon_Sugar.jpg","1","0","1898"
"4","4","encoding","encoding","66","Wheelbarrow_Green.jpg","2","0","2089"
"4","4","encoding","encoding","67","Flower_Rose.jpg","1","0","2001"
"4","4","encoding","encoding","68","FloppyDisk.jpg","1","0","1120"
"4","4","encoding","encoding","69","Television.jpg","4","0","1856"
"4","4","encoding","encoding","70","Decoration_ChristmasWhite.jpg","3","0","2040"
"4","4","encoding","encoding","71","SkullDeer.jpg","2","0","2064"
"4","4","encoding","encoding","72","Ring_Plain.jpg","1","0","1832"
"4","4","encoding","encoding","73","Booties_Blue.jpg","1","0","2007"
"4","4","encoding","encoding","74","Computer_ExpansionCard.jpg","1","0","1803"
"4","4","encoding","encoding","75","Fan_Straw.jpg","1","0","1450"
"4","4","encoding","encoding","76","Sand.jpg","2","0","1918"
"4","4","encoding","encoding","77","CompassCardinal.jpg","2","0","2651"
"4","4","encoding","encoding","78","Tofu.jpg","3","0","2766"
"4","4","encoding","encoding","79","RollerCoaster.jpg","7","0","2533"
"4","4","encoding","encoding","80","SelfieStick.jpg","3","0","1829"
"4","4","encoding","encoding","81","Box_WoodCrate.jpg","1","0","1677"
"4","4","encoding","encoding","82","Tube_Paint.jpg","2","0","2149"
"4","4","encoding","encoding","83","TelephoneJack.jpg","1","0","1884"
"4","4","encoding","encoding","84","Toilet.jpg","5","0","2420"
"4","4","encoding","encoding","85","Bamboo.jpg","3","0","1852"
"4","4","encoding","encoding","86","Teapot.jpg","1","0","2012"
"4","4","encoding","encoding","87","Toy_BearBlackPlastic.jpg","2","0","1708"
"4","4","encoding","encoding","88","Clarinet.jpg","4","0","1891"
"4","4","encoding","encoding","89","BoogieBoard.jpg","2","0","2490"
"4","4","encoding","encoding","90","Sandcastle.jpg","5","0","2513"
"4","4","encoding","encoding","91","Bottle_CosmeticSpray.jpg","2","0","2274"
"4","4","encoding","encoding","92","Flute_Wooden.jpg","3","0","1459"
"4","4","encoding","encoding","93","Ball_Disco.jpg","2","0","1825"
"4","4","encoding","encoding","94","Helmet_Motorcycle.jpg","3","0","2088"
"4","4","encoding","encoding","95","Celery.jpg","1","0","2057"
"4","4","encoding","encoding","96","Chopsticks.jpg","0","0","3000"
"4","4","encoding","encoding","97","Machine_EKG.jpg","1","0","2040"
"4","4","encoding","encoding","98","SetSquare.jpg","2","0","1895"
"4","4","encoding","encoding","99","Lacrosse_Stick.jpg","3","0","1671"
"4","4","encoding","encoding","100","Beater_Electric.jpg","6","0","2079"
"4","4","encoding","encoding","101","Fossil.jpg","3","0","1455"
"4","4","encoding","encoding","102","Ball_Golf.jpg","2","0","1511"
"4","4","encoding","encoding","103","Tag_Price.jpg","1","0","1286"
"4","4","encoding","encoding","104","Bells_Christmas.jpg","6","0","2055"
"4","4","encoding","encoding","105","Pancakes.jpg","5","0","2215"
"4","4","encoding","encoding","106","HandRake.jpg","2","0","1630"
"4","4","encoding","encoding","107","Cracker_Saltine.jpg","1","0","1621"
"4","4","encoding","encoding","108","DrinkShaker.jpg","1","0","1653"
"4","4","encoding","encoding","109","Canteen.jpg","1","0","1125"
"4","4","encoding","encoding","110","Dice.jpg","5","0","2341"
"4","4","encoding","encoding","111","Box_Apples.jpg","2","0","2525"
"4","4","encoding","encoding","112","ElectricSwitchboard.jpg","2","0","2212"
"4","4","encoding","encoding","113","Container_Tupperware.jpg","1","0","1220"
"4","4","encoding","encoding","114","ReindeerHeadband.jpg","5","0","1603"
"4","4","encoding","encoding","115","Shoe_Pink.jpg","2","0","1788"
"4","4","encoding","encoding","116","Pencil.jpg","1","0","1353"
"4","4","encoding","encoding","117","CameoPortrait.jpg","2","0","1475"
"4","4","encoding","encoding","118","Card_TwoSpade.jpg","4","0","1787"
"4","4","encoding","encoding","119","Flower_Orchid.jpg","1","0","1866"
"4","4","encoding","encoding","120","Napkin_Single.jpg","1","0","1410"
"4","4","encoding","encoding","121","Box_WoodenClosed.jpg","2","0","1642"
"4","4","encoding","encoding","123","Car_Buggy.jpg","2","0","1961"
"4","4","encoding","encoding","124","Candy_Toffee.jpg","1","0","1785"
"4","4","encoding","encoding","125","Box_Jewellery.jpg","1","0","1528"
"4","4","encoding","encoding","126","Pot_Crock.jpg","1","0","1840"
"4","4","encoding","encoding","127","Pickle.jpg","1","0","976"
"4","4","encoding","encoding","128","Mat_Bamboo.jpg","1","0","1976"
"4","4","encoding","encoding","129","Stroboscope.jpg","2","0","1846"
"4","4","encoding","encoding","130","Wallet_ClosedBrown.jpg","1","0","1463"
"4","4","encoding","encoding","131","MovieSlate.jpg","1","0","1535"
"4","4","encoding","encoding","132","Nametag.jpg","1","0","1319"
"4","4","encoding","encoding","133","Boat_Ferry.jpg","4","0","1943"
"4","4","encoding","encoding","134","Stapler_Regular.jpg","2","0","1910"
"4","4","encoding","encoding","135","ShoulderPads.jpg","1","0","1926"
"4","4","encoding","encoding","136","Bag_Grains.jpg","1","0","2101"
"4","4","encoding","encoding","137","Steeple.jpg","5","0","2045"
"4","4","encoding","encoding","138","Origami_Ox.jpg","1","0","1533"
"4","4","encoding","encoding","139","White_Screen.jpg","0","0","3000"
"4","4","encoding","encoding","140","Wire_Soldering.jpg","1","0","1460"
"4","4","encoding","encoding","141","BicycleGear.jpg","1","0","900"
"4","4","encoding","encoding","142","Tire_Hollow.jpg","1","0","1155"
"4","4","encoding","encoding","143","ShoeLace_Flat.jpg","2","0","1939"
"4","4","encoding","encoding","144","Owl.jpg","3","0","1763"
"4","4","encoding","encoding","145","Scooter.jpg","3","0","1939"
"4","4","encoding","encoding","146","Cord_usb.jpg","2","0","2179"
"4","4","encoding","encoding","147","AlarmSystem.jpg","1","0","1722"
"4","4","encoding","encoding","148","Toy_Lizard.jpg","2","0","2298"
"4","4","encoding","encoding","149","Lock_Door.jpg","1","0","2050"
"4","4","encoding","encoding","150","Compact_Mirror.jpg","1","0","1170"
"4","4","encoding","encoding","151","Toy_Rooster.jpg","1","0","1978"
"4","4","encoding","encoding","152","Weathervane.jpg","1","0","1930"
"4","4","encoding","encoding","153","Bucket_Champagne.jpg","3","0","1825"
"4","4","encoding","encoding","154","Fish_Swordfish.jpg","1","0","1881"
"4","4","encoding","encoding","155","Bird_Tern.jpg","1","0","1440"
"4","4","encoding","encoding","156","Birdhouse.jpg","1","0","1263"
"4","4","encoding","encoding","157","Door_Blue.jpg","2","0","2832"
"4","4","encoding","encoding","158","RamAnimal.jpg","1","0","1672"
"4","4","encoding","encoding","159","MeterElectric.jpg","3","0","2479"
"4","4","encoding","encoding","160","DoorHandle.jpg","1","0","2399"
"4","4","encoding","encoding","161","Bird_Budgie.jpg","2","0","2327"
"4","4","encoding","encoding","162","FuseBox.jpg","1","0","1943"
"4","4","encoding","encoding","163","Camera_Digital.jpg","0","0","3000"
"4","4","encoding","encoding","164","Seeder.jpg","1","0","1302"
"4","4","encoding","encoding","165","Blanket.jpg","1","0","2036"
"4","4","encoding","encoding","166","Frame_Oval.jpg","4","0","2181"
"4","4","encoding","encoding","167","Dolphine.jpg","1","0","1443"
"4","4","encoding","encoding","168","Toy_HockeyStick.jpg","3","0","1448"
"4","4","encoding","encoding","169","Clip_Paper.jpg","1","0","1672"
"4","4","encoding","encoding","170","Earth_Planet.jpg","6","0","2409"
"4","4","encoding","encoding","171","Pepper_Green.jpg","3","0","1927"
"4","4","encoding","encoding","172","Makeup_Eyeshadow.jpg","1","0","1720"
"4","4","encoding","encoding","173","Boombox.jpg","5","0","2697"
"4","4","encoding","encoding","174","DarthVader.jpg","7","0","1465"
"4","4","encoding","encoding","175","PillBottle_Spilled.jpg","2","0","1449"
"4","4","encoding","encoding","176","Paddle_Ball.jpg","4","0","2232"
"4","4","encoding","encoding","177","Balalaika.jpg","3","0","1648"
"4","4","retrieval","old_objects","1","Cage_Bird.jpg","37","0","1358"
"4","4","retrieval","new_objects","2","DoubleBass.jpg","36","0","1239"
"4","4","retrieval","old_objects","3","GogglesSwim.jpg","36","1","1652"
"4","4","retrieval","new_objects","4","Shoe_WomenHeals.jpg","37","1","1065"
"4","4","retrieval","new_objects","5","Can_GasSpout.jpg","37","1","917"
"4","4","retrieval","old_objects","6","Headset.jpg","36","1","607"
"4","4","retrieval","old_objects","7","Balalaika.jpg","36","1","774"
"4","4","retrieval","old_objects","8","Nail.jpg","36","1","758"
"4","4","retrieval","old_objects","9","Box_WoodCrate.jpg","36","1","527"
"4","4","retrieval","old_objects","10","Steeple.jpg","36","1","681"
"4","4","retrieval","new_objects","11","CashRegister_Modern.jpg","37","1","637"
"4","4","retrieval","old_objects","12","Paddle_Ball.jpg","37","0","499"
"4","4","retrieval","old_objects","13","FloppyDisk.jpg","36","1","1029"
"4","4","retrieval","new_objects","14","LitterScoop.jpg","37","1","611"
"4","4","retrieval","old_objects","15","DarthVader.jpg","36","1","722"
"4","4","retrieval","new_objects","16","DogHouse.jpg","37","1","804"
"4","4","retrieval","new_objects","17","TartStrawberry.jpg","37","1","787"
"4","4","retrieval","old_objects","18","Container_Tupperware.jpg","36","1","603"
"4","4","retrieval","old_objects","19","LetterMail.jpg","36","1","1065"
"4","4","retrieval","new_objects","20","AmberWithMosquito.jpg","37","1","765"
"4","4","retrieval","new_objects","21","Toast.jpg","37","1","862"
"4","4","retrieval","old_objects","22","Boat_Colourful.jpg","36","1","899"
"4","4","retrieval","new_objects","23","Thimble.jpg","37","1","829"
"4","4","retrieval","old_objects","24","Dolphine.jpg","36","1","964"
"4","4","retrieval","old_objects","25","Fossil.jpg","36","1","692"
"4","4","retrieval","new_objects","26","Trowel.jpg","37","1","847"
"4","4","retrieval","old_objects","27","Box_Apples.jpg","36","1","700"
"4","4","retrieval","old_objects","28","Otoscope.jpg","36","1","991"
"4","4","retrieval","new_objects","29","TrapAnimal.jpg","37","1","655"
"4","4","retrieval","old_objects","30","Wire_Soldering.jpg","36","1","627"
"4","4","retrieval","new_objects","31","Helmet_Construction.jpg","37","1","634"
"4","4","retrieval","new_objects","32","Lamp_Table.jpg","37","1","599"
"4","4","retrieval","new_objects","33","Taco.jpg","37","1","582"
"4","4","retrieval","new_objects","34","Cast.jpg","37","1","741"
"4","4","retrieval","new_objects","35","Stool_Wood.jpg","37","1","775"
"4","4","retrieval","old_objects","36","Flute_Wooden.jpg","36","1","671"
"4","4","retrieval","new_objects","37","Bench_Concrete.jpg","37","1","915"
"4","4","retrieval","new_objects","38","Barometer_Wood.jpg","37","1","510"
"4","4","retrieval","old_objects","39","JumpingJack.jpg","36","1","520"
"4","4","retrieval","new_objects","40","LampPost_OneBulb.jpg","36","0","771"
"4","4","retrieval","old_objects","41","DoorHandle.jpg","36","1","619"
"4","4","retrieval","old_objects","42","HandRake.jpg","36","1","713"
"4","4","retrieval","new_objects","43","Ladybug.jpg","37","1","539"
"4","4","retrieval","new_objects","44","Helicopter.jpg","36","0","685"
"4","4","retrieval","new_objects","45","Toy_Lighthouse.jpg","37","1","688"
"4","4","retrieval","new_objects","46","MassageRoller.jpg","37","1","612"
"4","4","retrieval","new_objects","47","Toy_SeeSaw.jpg","37","1","523"
"4","4","retrieval","old_objects","48","Blanket.jpg","36","1","613"
"4","4","retrieval","new_objects","49","Boardgame_ChineseCheckers.jpg","37","1","619"
"4","4","retrieval","new_objects","50","Level.jpg","37","1","777"
"4","4","retrieval","new_objects","51","Seahorse.jpg","37","1","633"
"4","4","retrieval","new_objects","52","Glasses_Reading.jpg","37","1","599"
"4","4","retrieval","new_objects","53","Brush_BathBack.jpg","37","1","614"
"4","4","retrieval","new_objects","54","Flask_Metal.jpg","37","1","884"
"4","4","retrieval","old_objects","55","Crib_Basket.jpg","36","1","519"
"4","4","retrieval","old_objects","56","WaterCooler.jpg","36","1","834"
"4","4","retrieval","old_objects","57","Pencil.jpg","36","1","607"
"4","4","retrieval","new_objects","58","Coconut.jpg","37","1","726"
"4","4","retrieval","old_objects","59","Clarinet.jpg","36","1","624"
"4","4","retrieval","old_objects","60","Scooter.jpg","36","1","774"
"4","4","retrieval","old_objects","62","Bird_Budgie.jpg","36","1","1921"
"4","4","retrieval","old_objects","63","Stroller.jpg","36","1","651"
"4","4","retrieval","new_objects","64","Truck_Pickup.jpg","37","1","656"
"4","4","retrieval","new_objects","65","Centrifuge.jpg","37","1","1381"
"4","4","retrieval","new_objects","66","Hookah.jpg","37","1","629"
"4","4","retrieval","old_objects","67","Comb_1.jpg","36","1","963"
"4","4","retrieval","new_objects","68","Glove_Baseball.jpg","37","1","883"
"4","4","retrieval","old_objects","69","Candy_Toffee.jpg","36","1","863"
"4","4","retrieval","new_objects","70","Guitarcase.jpg","37","1","963"
"4","4","retrieval","old_objects","71","White_Screen.jpg","37","0","1771"
"4","4","retrieval","old_objects","72","PassionFruit.jpg","37","0","1580"
"4","4","retrieval","new_objects","73","BicycleHandleGrip.jpg","37","1","555"
"4","4","retrieval","new_objects","74","ChocolateBar_Unwrapped.jpg","37","1","580"
"4","4","retrieval","old_objects","75","MeterElectric.jpg","36","1","588"
"4","4","retrieval","new_objects","76","RemoteControl.jpg","37","1","860"
"4","4","retrieval","old_objects","77","Noisemaker.jpg","36","1","536"
"4","4","retrieval","old_objects","78","SetSquare.jpg","36","1","642"
"4","4","retrieval","new_objects","79","HumanSkeleton.jpg","37","1","663"
"4","4","retrieval","new_objects","80","Knife_Hunting.jpg","37","1","596"
"4","4","retrieval","old_objects","81","Origami_Ox.jpg","36","1","683"
"4","4","retrieval","old_objects","82","Beater_Electric.jpg","36","1","559"
"4","4","retrieval","new_objects","83","HumanSkull.jpg","37","1","559"
"4","4","retrieval","new_objects","84","Catheter.jpg","37","1","912"
"4","4","retrieval","new_objects","85","KeyHook_Empty.jpg","37","1","731"
"4","4","retrieval","new_objects","86","RugRoled.jpg","37","1","644"
"4","4","retrieval","old_objects","87","Igloo.jpg","36","1","490"
"4","4","retrieval","old_objects","88","Spoons_Musical.jpg","37","0","661"
"4","4","retrieval","old_objects","89","AlarmSystem.jpg","36","1","802"
"4","4","retrieval","new_objects","90","Chair_Bamboo.jpg","36","0","537"
"4","4","retrieval","new_objects","91","HotWaterBottle.jpg","37","1","538"
"4","4","retrieval","new_objects","92","Microphone.jpg","37","1","652"
"4","4","retrieval","old_objects","93","Flower_Rose.jpg","36","1","625"
"4","4","retrieval","new_objects","94","ScaleWeighing.jpg","37","1","695"
"4","4","retrieval","old_objects","95","SelfieStick.jpg","36","1","1258"
"4","4","retrieval","old_objects","96","Box_Jewellery.jpg","36","1","663"
"4","4","retrieval","new_objects","97","SewingPin_Single.jpg","37","1","939"
"4","4","retrieval","new_objects","98","DormerWindow.jpg","36","0","1573"
"4","4","retrieval","new_objects","99","Sled.jpg","37","1","1013"
"4","4","retrieval","old_objects","100","Shed.jpg","36","1","644"
"4","4","retrieval","old_objects","101","Dynamite.jpg","36","1","602"
"4","4","retrieval","new_objects","102","MortarPestle_WhiteMarble.jpg","37","1","617"
"4","4","retrieval","new_objects","103","Boat_Trailer.jpg","37","1","639"
"4","4","retrieval","new_objects","104","Tiara.jpg","37","1","708"
"4","4","retrieval","old_objects","105","Puzzle_Piece.jpg","36","1","631"
"4","4","retrieval","new_objects","106","Spoon_Wooden.jpg","37","1","805"
"4","4","retrieval","old_objects","107","Cabinet_Display.jpg","36","1","635"
"4","4","retrieval","new_objects","108","Bird_Peacock.jpg","37","1","625"
"4","4","retrieval","old_objects","109","Cord_usb.jpg","36","1","559"
"4","4","retrieval","new_objects","110","Basket_Plastic.jpg","36","0","728"
"4","4","retrieval","new_objects","111","Fruit_Cactus.jpg","37","1","586"
"4","4","retrieval","old_objects","112","ElectricSwitchboard.jpg","37","0","1106"
"4","4","retrieval","old_objects","113","Bird_Tern.jpg","36","1","828"
"4","4","retrieval","old_objects","114","Hourglass.jpg","36","1","499"
"4","4","retrieval","new_objects","115","MechanicalSpring.jpg","37","1","542"
"4","4","retrieval","new_objects","116","Bathtub.jpg","37","1","535"
"4","4","retrieval","old_objects","117","Buffalo.jpg","37","0","553"
"4","4","retrieval","old_objects","118","ShoulderPads.jpg","36","1","633"
"4","4","retrieval","old_objects","119","Chair_MedicalToilet.jpg","36","1","551"
"4","4","retrieval","new_objects","120","Goose_Canadian.jpg","37","1","616"
"4","4","retrieval","old_objects","121","Ball_Disco.jpg","36","1","598"
"4","4","retrieval","old_objects","123","Chair_BeanBag.jpg","37","0","591"
"4","4","retrieval","old_objects","124","Decoration_ChristmasWhite.jpg","36","1","598"
"4","4","retrieval","new_objects","125","Syrup_Maple.jpg","37","1","565"
"4","4","retrieval","old_objects","126","Pouch_PotPourri.jpg","36","1","805"
"4","4","retrieval","new_objects","127","BusStop.jpg","37","1","604"
"4","4","retrieval","new_objects","128","Spoons_MeasuringDetached.jpg","37","1","851"
"4","4","retrieval","old_objects","129","Canteen.jpg","36","1","712"
"4","4","retrieval","old_objects","130","Toy_BearBlackPlastic.jpg","37","0","707"
"4","4","retrieval","new_objects","131","BadgeSpecialAgent.jpg","37","1","542"
"4","4","retrieval","new_objects","132","Can_OilSpout.jpg","37","1","719"
"4","4","retrieval","old_objects","133","Seeder.jpg","36","1","769"
"4","4","retrieval","new_objects","134","Card_Deck.jpg","37","1","585"
"4","4","retrieval","new_objects","135","Funnel.jpg","37","1","833"
"4","4","retrieval","new_objects","136","Chair_Car.jpg","37","1","671"
"4","4","retrieval","old_objects","137","Helmet_Motorcycle.jpg","36","1","523"
"4","4","retrieval","old_objects","138","Car_Buggy.jpg","36","1","605"
"4","4","retrieval","old_objects","139","Box_WoodenClosed.jpg","36","1","524"
"4","4","retrieval","new_objects","140","CarSuspension.jpg","37","1","854"
"4","4","retrieval","old_objects","141","Shoes_Snowboarding.jpg","36","1","675"
"4","4","retrieval","old_objects","142","Banana.jpg","36","1","967"
"4","4","retrieval","new_objects","143","HoseNozzle.jpg","37","1","823"
"4","4","retrieval","new_objects","144","Decoration_ChristmasRed.jpg","37","1","685"
"4","4","retrieval","old_objects","145","PaintCan.jpg","37","0","729"
"4","4","retrieval","old_objects","146","Nametag.jpg","36","1","643"
"4","4","retrieval","new_objects","147","Windmill_Building.jpg","37","1","656"
"4","4","retrieval","new_objects","148","Tag_Identifier.jpg","37","1","685"
"4","4","retrieval","old_objects","149","Ring_Plain.jpg","36","1","841"
"4","4","retrieval","old_objects","150","Frame_Oval.jpg","36","1","871"
"4","4","retrieval","old_objects","151","Bells_Christmas.jpg","36","1","619"
"4","4","retrieval","old_objects","152","ShoeLace_Flat.jpg","36","1","705"
"4","4","retrieval","old_objects","153","Distaff.jpg","36","1","740"
"4","4","retrieval","old_objects","154","Pepper_Green.jpg","36","1","565"
"4","4","retrieval","old_objects","155","Wreath.jpg","36","1","598"
"4","4","retrieval","old_objects","156","Tire_Hollow.jpg","36","1","1028"
"4","4","retrieval","old_objects","157","Tube_Paint.jpg","37","0","1195"
"4","4","retrieval","new_objects","158","PeasSplit.jpg","37","1","810"
"4","4","retrieval","old_objects","159","Mirror_Dental.jpg","36","1","985"
"4","4","retrieval","old_objects","160","Mat_Bamboo.jpg","36","1","553"
"4","4","retrieval","old_objects","161","Sand.jpg","36","1","625"
"4","4","retrieval","new_objects","162","Drum_Cymbal.jpg","37","1","648"
"4","4","retrieval","new_objects","163","Photocopier.jpg","37","1","892"
"4","4","retrieval","new_objects","164","PaperShredder.jpg","37","1","560"
"4","4","retrieval","old_objects","165","Stroboscope.jpg","36","1","689"
"4","4","retrieval","old_objects","166","Ball_Golf.jpg","36","1","676"
"4","4","retrieval","old_objects","167","Bucket_Champagne.jpg","36","1","664"
"4","4","retrieval","old_objects","168","Pancakes.jpg","36","1","525"
"4","4","retrieval","new_objects","169","Bottle_Liquor.jpg","37","1","623"
"4","4","retrieval","new_objects","170","Brace_Neck.jpg","37","1","909"
"4","4","retrieval","old_objects","171","Owl.jpg","36","1","536"
"4","4","retrieval","new_objects","172","Locomotive.jpg","37","1","705"
"4","4","retrieval","old_objects","173","Cracker_Saltine.jpg","36","1","540"
"4","4","retrieval","new_objects","174","Boxcutter.jpg","37","1","574"
"4","4","retrieval","new_objects","175","Dog_CockerSpaniel.jpg","36","0","662"
"4","4","retrieval","new_objects","176","Bat_Baseball.jpg","37","1","635"
"4","4","retrieval","new_objects","177","Truck_Dump.jpg","37","1","504"
"4","4","retrieval","new_objects","178","BrainSagittal.jpg","37","1","515"
"4","4","retrieval","old_objects","179","Sandcastle.jpg","36","1","957"
"4","4","retrieval","old_objects","180","Makeup_Eyeshadow.jpg","36","1","630"
"4","4","retrieval","old_objects","181","Flower_Basket.jpg","37","0","596"
"4","4","retrieval","old_objects","182","TelephoneJack.jpg","36","1","859"
"4","4","retrieval","new_objects","184","Generator.jpg","37","1","1093"
"4","4","retrieval","new_objects","185","Toy_Truck.jpg","37","1","624"
"4","4","retrieval","old_objects","186","Radish.jpg","36","1","614"
"4","4","retrieval","old_objects","187","Airplane_Commercial.jpg","36","1","581"
"4","4","retrieval","old_objects","188","Wallet_ClosedBrown.jpg","36","1","716"
"4","4","retrieval","new_objects","189","Sign_SpeedLimit25.jpg","37","1","590"
"4","4","retrieval","new_objects","190","PokerChips.jpg","37","1","670"
"4","4","retrieval","old_objects","191","Celery.jpg","37","0","906"
"4","4","retrieval","old_objects","192","SiloGrain.jpg","37","0","685"
"4","4","retrieval","new_objects","193","Puffin.jpg","37","1","664"
"4","4","retrieval","old_objects","194","NewspaperStack.jpg","36","1","517"
"4","4","retrieval","new_objects","195","JuiceBox.jpg","37","1","623"
"4","4","retrieval","old_objects","196","FuseBox.jpg","37","0","597"
"4","4","retrieval","new_objects","197","Corkboard.jpg","37","1","972"
"4","4","retrieval","old_objects","198","Spoon_Sugar.jpg","36","1","900"
"4","4","retrieval","old_objects","199","Flower_Orchid.jpg","37","0","567"
"4","4","retrieval","old_objects","200","BicycleGear.jpg","37","0","591"
"4","4","retrieval","old_objects","201","DogTreat.jpg","36","1","607"
"4","4","retrieval","old_objects","202","Fish_Swordfish.jpg","36","1","565"
"4","4","retrieval","old_objects","203","Card_TwoSpade.jpg","36","1","710"
"4","4","retrieval","new_objects","204","Shampoo.jpg","37","1","697"
"4","4","retrieval","new_objects","205","ColumnMarble.jpg","37","1","643"
"4","4","retrieval","new_objects","206","Toy_Chameleon.jpg","37","1","641"
"4","4","retrieval","old_objects","207","Gun_Revolver.jpg","36","1","598"
"4","4","retrieval","old_objects","208","Qtip_Multiple.jpg","36","1","573"
"4","4","retrieval","old_objects","209","RecorderInstrument.jpg","36","1","965"
"4","4","retrieval","old_objects","210","Grenade.jpg","36","1","622"
"4","4","retrieval","new_objects","211","Toy_Zebra.jpg","37","1","596"
"4","4","retrieval","old_objects","212","Shoe_Pink.jpg","36","1","667"
"4","4","retrieval","new_objects","213","IceScraper.jpg","37","1","648"
"4","4","retrieval","old_objects","214","RollerCoaster.jpg","36","1","596"
"4","4","retrieval","old_objects","215","Tofu.jpg","36","1","772"
"4","4","retrieval","old_objects","216","Bottle_CosmeticSpray.jpg","37","0","676"
"4","4","retrieval","new_objects","217","Broom_Long.jpg","37","1","584"
"4","4","retrieval","old_objects","218","Lock_Door.jpg","36","1","704"
"4","4","retrieval","new_objects","219","MetalChain.jpg","36","0","586"
"4","4","retrieval","old_objects","220","Steamroller.jpg","37","0","842"
"4","4","retrieval","old_objects","221","Door_Blue.jpg","37","0","904"
"4","4","retrieval","new_objects","222","Toy_Bat.jpg","37","1","698"
"4","4","retrieval","old_objects","223","Toy_Slinky.jpg","36","1","565"
"4","4","retrieval","new_objects","224","Ball_Bowling.jpg","37","1","669"
"4","4","retrieval","old_objects","225","PillBottle_Spilled.jpg","36","1","834"
"4","4","retrieval","old_objects","226","NailClipper.jpg","36","1","807"
"4","4","retrieval","new_objects","227","Spatula.jpg","37","1","702"
"4","4","retrieval","new_objects","228","Chime.jpg","37","1","857"
"4","4","retrieval","new_objects","229","Tie.jpg","37","1","1246"
"4","4","retrieval","new_objects","230","Cake_Cheese.jpg","37","1","891"
"4","4","retrieval","old_objects","231","Clip_Paper.jpg","36","1","638"
"4","4","retrieval","old_objects","232","Computer_ExpansionCard.jpg","36","1","676"
"4","4","retrieval","old_objects","233","Machine_EKG.jpg","36","1","1000"
"4","4","retrieval","new_objects","234","Sign_Construction.jpg","37","1","655"
"4","4","retrieval","new_objects","235","BabyMonitor.jpg","37","1","1372"
"4","4","retrieval","old_objects","236","Toy_HockeyStick.jpg","36","1","1540"
"4","4","retrieval","old_objects","237","Kneepad.jpg","37","0","1078"
"4","4","retrieval","old_objects","238","Boombox.jpg","36","1","570"
"4","4","retrieval","new_objects","239","DrinkingFountain.jpg","37","1","922"
"4","4","retrieval","old_objects","240","BoogieBoard.jpg","36","1","836"
"4","4","retrieval","new_objects","241","Helmet_Football.jpg","37","1","1546"
"4","4","retrieval","new_objects","242","RibbonString.jpg","37","1","1307"
"4","4","retrieval","new_objects","243","HedgeShears.jpg","37","1","1054"
"4","4","retrieval","old_objects","245","Toy_Dog.jpg","37","0","918"
"4","4","retrieval","old_objects","246","InflatableSleepingBag.jpg","36","1","753"
"4","4","retrieval","old_objects","247","Napkin_Single.jpg","36","1","769"
"4","4","retrieval","new_objects","248","Umbrella_Classic.jpg","37","1","1129"
"4","4","retrieval","old_objects","249","Weathervane.jpg","37","0","916"
"4","4","retrieval","new_objects","250","Mattress.jpg","37","1","598"
"4","4","retrieval","old_objects","251","IceCreamCone.jpg","36","1","709"
"4","4","retrieval","new_objects","252","Figurine_Ballerina.jpg","37","1","1056"
"4","4","retrieval","new_objects","253","CoinRolls.jpg","37","1","1173"
"4","4","retrieval","old_objects","254","Toy_Lizard.jpg","37","0","917"
"4","4","retrieval","old_objects","255","Tag_Price.jpg","36","1","719"
"4","4","retrieval","new_objects","256","Wheel_Steering.jpg","37","1","825"
"4","4","retrieval","new_objects","257","SaxophoneSoprano.jpg","37","1","959"
"4","4","retrieval","new_objects","258","Cart_Groceries.jpg","37","1","920"
"4","4","retrieval","new_objects","259","Humidifier.jpg","37","1","866"
"4","4","retrieval","old_objects","260","Bag_Grains.jpg","36","1","1183"
"4","4","retrieval","new_objects","261","Joystick.jpg","37","1","878"
"4","4","retrieval","old_objects","262","Ball_Squashball.jpg","36","1","939"
"4","4","retrieval","old_objects","263","Television.jpg","36","1","1604"
"4","4","retrieval","old_objects","264","Stapler_Regular.jpg","36","1","1395"
"4","4","retrieval","new_objects","265","Bird_Pelican.jpg","37","1","627"
"4","4","retrieval","old_objects","266","Booties_Blue.jpg","37","0","777"
"4","4","retrieval","old_objects","267","Toy_Rooster.jpg","37","0","577"
"4","4","retrieval","new_objects","268","CrepeMaker.jpg","37","1","1153"
"4","4","retrieval","new_objects","269","Qtip_Single.jpg","36","0","610"
"4","4","retrieval","new_objects","270","Car_Ferrari.jpg","37","1","689"
"4","4","retrieval","new_objects","271","Stick_Bridge.jpg","37","1","1092"
"4","4","retrieval","old_objects","272","RamAnimal.jpg","37","0","896"
"4","4","retrieval","old_objects","273","Helmet_Soldier.jpg","36","1","755"
"4","4","retrieval","new_objects","274","Scalpel.jpg","37","1","692"
"4","4","retrieval","new_objects","275","Ring_Diamond.jpg","37","1","1512"
"4","4","retrieval","new_objects","276","Hanger.jpg","37","1","699"
"4","4","retrieval","old_objects","277","CheeseSlicer.jpg","36","1","862"
"4","4","retrieval","new_objects","278","Jar_Cookie.jpg","37","1","971"
"4","4","retrieval","old_objects","279","Speaker_OnStand.jpg","36","1","1163"
"4","4","retrieval","old_objects","280","Earth_Planet.jpg","36","1","1076"
"4","4","retrieval","new_objects","281","Lemon.jpg","37","1","1504"
"4","4","retrieval","old_objects","282","LampPost_ThreeBulbs.jpg","36","1","1275"
"4","4","retrieval","new_objects","283","Table_Picnic.jpg","37","1","807"
"4","4","retrieval","new_objects","284","Phone_Wireless.jpg","37","1","1062"
"4","4","retrieval","new_objects","285","Nuts_Walnut.jpg","37","1","1274"
"4","4","retrieval","old_objects","286","FlashlightHeadBand.jpg","36","1","758"
"4","4","retrieval","old_objects","287","SkullDeer.jpg","36","1","943"
"4","4","retrieval","new_objects","288","Hat_Beret.jpg","37","1","1129"
"4","4","retrieval","old_objects","289","CameoPortrait.jpg","36","1","1403"
"4","4","retrieval","old_objects","290","ReindeerHeadband.jpg","36","1","1770"
"4","4","retrieval","old_objects","291","Birdhouse.jpg","37","0","1818"
"4","4","retrieval","old_objects","292","Wheelbarrow_Green.jpg","36","1","913"
"4","4","retrieval","new_objects","293","Lollipop_Grape.jpg","37","1","1115"
"4","4","retrieval","new_objects","294","Bell_Hand.jpg","37","1","877"
"4","4","retrieval","new_objects","295","Hand.jpg","37","1","1833"
"4","4","retrieval","new_objects","296","Calculator.jpg","37","1","1487"
"4","4","retrieval","new_objects","297","Hangar.jpg","37","1","1114"
"4","4","retrieval","old_objects","298","Bamboo.jpg","36","1","877"
"4","4","retrieval","new_objects","299","Dresser_1.jpg","37","1","1105"
"4","4","retrieval","old_objects","300","Lighter_Black.jpg","37","0","1164"
"4","4","retrieval","new_objects","301","Instrument_Guiro.jpg","37","1","604"
"4","4","retrieval","old_objects","302","Spraybottle.jpg","36","1","1635"
"4","4","retrieval","new_objects","303","Mask_Gas.jpg","37","1","1384"
"4","4","retrieval","old_objects","304","Compact_Mirror.jpg","36","1","1192"
"4","4","retrieval","old_objects","306","Pot_Crock.jpg","36","1","920"
"4","4","retrieval","new_objects","307","Nyala.jpg","37","1","755"
"4","4","retrieval","new_objects","308","Bag_String.jpg","37","1","812"
"4","4","retrieval","new_objects","309","MagazineRoll.jpg","37","1","1210"
"4","4","retrieval","old_objects","310","MovieSlate.jpg","36","1","849"
"4","4","retrieval","new_objects","311","Arm.jpg","37","1","926"
"4","4","retrieval","new_objects","312","Shoes_DutchClogs.jpg","37","1","1272"
"4","4","retrieval","old_objects","313","Toilet.jpg","36","1","1012"
"4","4","retrieval","new_objects","314","Brush_Paint.jpg","36","0","1531"
"4","4","retrieval","new_objects","315","Grill_Gas.jpg","37","1","1733"
"4","4","retrieval","new_objects","316","BakingDish.jpg","37","1","878"
"4","4","retrieval","old_objects","317","Keychain_Leather.jpg","36","1","1442"
"4","4","retrieval","old_objects","318","Boat_Ferry.jpg","36","1","944"
"4","4","retrieval","new_objects","319","RibbonSpool.jpg","37","1","1113"
"4","4","retrieval","old_objects","320","Lacrosse_Stick.jpg","36","1","1180"
"4","4","retrieval","new_objects","321","Chest_Toys.jpg","37","1","1036"
"4","4","retrieval","old_objects","322","Puzzle_Animal.jpg","36","1","1226"
"4","4","retrieval","old_objects","323","ChessPiece_Bishop.jpg","37","0","696"
"4","4","retrieval","old_objects","324","Chopsticks.jpg","36","1","851"
"4","4","retrieval","old_objects","325","Teapot.jpg","37","0","752"
"4","4","retrieval","old_objects","326","DrinkShaker.jpg","37","0","1345"
"4","4","retrieval","new_objects","327","Shark_Hammerhead.jpg","37","1","1315"
"4","4","retrieval","old_objects","328","Umbrella_Retractable.jpg","36","1","1213"
"4","4","retrieval","new_objects","329","VacuumHandheld.jpg","37","1","1555"
"4","4","retrieval","old_objects","330","Toy_Car.jpg","36","1","1468"
"4","4","retrieval","new_objects","331","Brush_Nail.jpg","37","1","720"
"4","4","retrieval","old_objects","332","Camera_Digital.jpg","37","0","1570"
"4","4","retrieval","new_objects","333","Hat_Visor.jpg","37","1","1075"
"4","4","retrieval","new_objects","334","Shoes_Sneakers.jpg","37","1","1263"
"4","4","retrieval","new_objects","335","Hat_Hard.jpg","36","0","1339"
"4","4","retrieval","new_objects","336","BowlingPin.jpg","37","1","1237"
"4","4","retrieval","new_objects","337","CookieCutter_Bell.jpg","37","1","1362"
"4","4","retrieval","new_objects","338","Blueprints.jpg","37","1","1427"
"4","4","retrieval","new_objects","339","ComputerKeyboard.jpg","37","1","1561"
"4","4","retrieval","new_objects","340","PatioHeater.jpg","37","1","1762"
"4","4","retrieval","old_objects","341","Fan_Straw.jpg","36","1","1099"
"4","4","retrieval","new_objects","342","Mask_VenetianLongNose.jpg","37","1","582"
"4","4","retrieval","old_objects","343","Dog_Bulldog.jpg","37","0","589"
"4","4","retrieval","new_objects","344","Telephone_Booth.jpg","37","1","613"
"4","4","retrieval","new_objects","345","FoodMill.jpg","37","1","1235"
"4","4","retrieval","old_objects","346","Tape_Dispenser.jpg","36","1","961"
"4","4","retrieval","old_objects","347","Pickle.jpg","36","1","921"
"4","4","retrieval","new_objects","348","FileDivider.jpg","37","1","1212"
"4","4","retrieval","new_objects","349","Cable_AudioSplitter.jpg","0","0","2000"
"4","4","retrieval","old_objects","350","Dice.jpg","36","1","1362"
"4","4","retrieval","new_objects","351","Projector_Film.jpg","37","1","1122"
"4","4","retrieval","new_objects","352","Blackboard.jpg","37","1","1196"
"4","4","retrieval","old_objects","353","CompassCardinal.jpg","37","0","1428"
"4","4","retrieval","new_objects","354","Can_Gas.jpg","36","0","1410"
"4","4","retrieval","new_objects","355","Stool_Metal.jpg","37","1","1209"
"4","4","demographics_block","gender","1","Stool_Metal.jpg","Male","1","8975"
"4","4","demographics_block","age","1","Stool_Metal.jpg","26","1","8975"
"4","4","demographics_block","education","1","Stool_Metal.jpg","16","1","8975"
"4","4","demographics_block","left_right_handed","2","Stool_Metal.jpg","Left","1","3838"
"4","4","demographics_block","raceoption1","2","Stool_Metal.jpg","0","1","3838"
"4","4","demographics_block","raceoption2","2","Stool_Metal.jpg","","1","3838"
"4","4","demographics_block","raceoption3","2","Stool_Metal.jpg","","1","3838"
"4","4","demographics_block","raceoption4","2","Stool_Metal.jpg","","1","3838"
"4","4","demographics_block","raceoption5","2","Stool_Metal.jpg","","1","3838"
"4","4","demographics_block","raceoption6","2","Stool_Metal.jpg","","1","3838"
"4","4","demographics_block","raceoption7","2","Stool_Metal.jpg","","1","3838"
"4","4","demographics_block","raceoption8","2","Stool_Metal.jpg","","1","3838"
"4","4","demographics_block","raceoption9","2","Stool_Metal.jpg","","1","3838"
"4","4","demographics_block","raceother","2","Stool_Metal.jpg","","1","3838"
"4","4","demographics_block","raceother","2","Stool_Metal.jpg","","1","3838"
"4","4","demographics_block","english_language","2","Stool_Metal.jpg","Yes","1","3838"
"4","4","demographics_block","english_languageother","2","Stool_Metal.jpg","","1","3838"
"4","4","demographics_block","eyesight","3","Stool_Metal.jpg","Yes","1","4071"
"4","4","demographics_block","colorblind","3","Stool_Metal.jpg","No","1","4071"
"4","4","worker_id_block","worker_id_textbox","1","Stool_Metal.jpg","A2GV9WSNSPX53","1","2912"
"6","6","encoding","encoding","1","Kneepad.jpg","1","0","1941"
"6","6","encoding","encoding","2","Airplane_Commercial.jpg","2","0","2366"
"6","6","encoding","encoding","3","Tag_Price.jpg","1","0","1278"
"6","6","encoding","encoding","4","SetSquare.jpg","1","0","1237"
"6","6","encoding","encoding","5","Toy_Lizard.jpg","2","0","2645"
"6","6","encoding","encoding","6","Cord_usb.jpg","0","0","3000"
"6","6","encoding","encoding","7","Canteen.jpg","0","0","3000"
"6","6","encoding","encoding","8","PillBottle_Spilled.jpg","0","0","3000"
"6","6","encoding","encoding","9","Balalaika.jpg","0","0","3000"
"6","6","encoding","encoding","10","Wheelbarrow_Green.jpg","0","0","3000"
"6","6","encoding","encoding","11","Fan_Straw.jpg","0","0","3000"
"6","6","encoding","encoding","12","White_Screen.jpg","0","0","3000"
"6","6","encoding","encoding","13","Stroller.jpg","0","0","3000"
"6","6","encoding","encoding","14","Booties_Blue.jpg","2","0","2009"
"6","6","encoding","encoding","15","Chair_MedicalToilet.jpg","0","0","3000"
"6","6","encoding","encoding","16","Machine_EKG.jpg","0","0","3000"
"6","6","encoding","encoding","17","Sandcastle.jpg","0","0","3000"
"6","6","encoding","encoding","18","HandRake.jpg","0","0","3000"
"6","6","encoding","encoding","19","FloppyDisk.jpg","0","0","3000"
"6","6","encoding","encoding","20","Paddle_Ball.jpg","1","0","1587"
"6","6","encoding","encoding","21","JumpingJack.jpg","1","0","930"
"6","6","encoding","encoding","22","RamAnimal.jpg","3","0","2561"
"6","6","encoding","encoding","23","DoorHandle.jpg","1","0","809"
"6","6","encoding","encoding","24","Qtip_Multiple.jpg","1","0","760"
"6","6","encoding","encoding","25","Container_Tupperware.jpg","1","0","808"
"6","6","encoding","encoding","26","Steeple.jpg","1","0","1447"
"6","6","encoding","encoding","27","Toy_Dog.jpg","3","0","1942"
"6","6","encoding","encoding","28","Dynamite.jpg","1","0","965"
"6","6","encoding","encoding","29","Box_WoodCrate.jpg","1","0","709"
"6","6","encoding","encoding","30","Compact_Mirror.jpg","1","0","1083"
"6","6","encoding","encoding","31","Shoe_Pink.jpg","1","0","731"
"6","6","encoding","encoding","32","Noisemaker.jpg","1","0","762"
"6","6","encoding","encoding","33","Speaker_OnStand.jpg","1","0","690"
"6","6","encoding","encoding","34","Tofu.jpg","1","0","1529"
"6","6","encoding","encoding","35","Stapler_Regular.jpg","1","0","1809"
"6","6","encoding","encoding","36","Stroboscope.jpg","1","0","1736"
"6","6","encoding","encoding","37","Toy_Slinky.jpg","1","0","2343"
"6","6","encoding","encoding","38","Clip_Paper.jpg","1","0","1902"
"6","6","encoding","encoding","39","Helmet_Soldier.jpg","1","0","2838"
"6","6","encoding","encoding","40","Otoscope.jpg","1","0","989"
"6","6","encoding","encoding","41","Dolphine.jpg","3","0","1916"
"6","6","encoding","encoding","42","Door_Blue.jpg","1","0","1420"
"6","6","encoding","encoding","43","Ball_Squashball.jpg","1","0","763"
"6","6","encoding","encoding","44","LetterMail.jpg","1","0","1370"
"6","6","encoding","encoding","45","Lacrosse_Stick.jpg","1","0","1009"
"6","6","encoding","encoding","46","Cabinet_Display.jpg","1","0","648"
"6","6","encoding","encoding","47","Frame_Oval.jpg","1","0","656"
"6","6","encoding","encoding","48","Seeder.jpg","1","0","784"
"6","6","encoding","encoding","49","Boombox.jpg","1","0","1279"
"6","6","encoding","encoding","50","Dice.jpg","1","0","718"
"6","6","encoding","encoding","51","Spoons_Musical.jpg","1","0","965"
"6","6","encoding","encoding","52","Sand.jpg","1","0","1196"
"6","6","encoding","encoding","53","Spraybottle.jpg","1","0","1068"
"6","6","encoding","encoding","54","Ring_Plain.jpg","1","0","1411"
"6","6","encoding","encoding","55","Pepper_Green.jpg","1","0","1443"
"6","6","encoding","encoding","56","Puzzle_Piece.jpg","1","0","1330"
"6","6","encoding","encoding","57","Pancakes.jpg","1","0","2666"
"6","6","encoding","encoding","58","Bird_Budgie.jpg","0","0","3000"
"6","6","encoding","encoding","59","FlashlightHeadBand.jpg","1","0","1095"
"6","6","encoding","encoding","60","FuseBox.jpg","1","0","727"
"6","6","encoding","encoding","62","Distaff.jpg","1","0","1340"
"6","6","encoding","encoding","63","PaintCan.jpg","1","0","763"
"6","6","encoding","encoding","64","Comb_1.jpg","1","0","954"
"6","6","encoding","encoding","65","Cage_Bird.jpg","1","0","2250"
"6","6","encoding","encoding","66","BicycleGear.jpg","1","0","2313"
"6","6","encoding","encoding","67","CameoPortrait.jpg","1","0","1840"
"6","6","encoding","encoding","68","Decoration_ChristmasWhite.jpg","1","0","1704"
"6","6","encoding","encoding","69","Buffalo.jpg","1","0","1335"
"6","6","encoding","encoding","70","Lock_Door.jpg","1","0","1534"
"6","6","encoding","encoding","71","RecorderInstrument.jpg","1","0","1758"
"6","6","encoding","encoding","72","SkullDeer.jpg","1","0","1213"
"6","6","encoding","encoding","73","Igloo.jpg","1","0","2564"
"6","6","encoding","encoding","74","Hourglass.jpg","1","0","1452"
"6","6","encoding","encoding","75","Bucket_Champagne.jpg","1","0","1811"
"6","6","encoding","encoding","76","GogglesSwim.jpg","1","0","818"
"6","6","encoding","encoding","77","Beater_Electric.jpg","1","0","1505"
"6","6","encoding","encoding","78","Cracker_Saltine.jpg","1","0","1216"
"6","6","encoding","encoding","79","Chopsticks.jpg","1","0","656"
"6","6","encoding","encoding","80","Wallet_ClosedBrown.jpg","1","0","671"
"6","6","encoding","encoding","81","ChessPiece_Bishop.jpg","1","0","583"
"6","6","encoding","encoding","82","Tube_Paint.jpg","1","0","1566"
"6","6","encoding","encoding","83","Gun_Revolver.jpg","1","0","1589"
"6","6","encoding","encoding","84","Earth_Planet.jpg","3","0","2869"
"6","6","encoding","encoding","85","Television.jpg","2","0","2148"
"6","6","encoding","encoding","86","Origami_Ox.jpg","1","0","1379"
"6","6","encoding","encoding","87","ShoulderPads.jpg","1","0","2419"
"6","6","encoding","encoding","88","Keychain_Leather.jpg","1","0","1802"
"6","6","encoding","encoding","89","Nametag.jpg","1","0","2001"
"6","6","encoding","encoding","90","Flower_Basket.jpg","1","0","1288"
"6","6","encoding","encoding","91","Car_Buggy.jpg","2","0","1720"
"6","6","encoding","encoding","92","Box_WoodenClosed.jpg","0","0","3000"
"6","6","encoding","encoding","93","AlarmSystem.jpg","1","0","1742"
"6","6","encoding","encoding","94","Toy_Rooster.jpg","1","0","1093"
"6","6","encoding","encoding","95","Umbrella_Retractable.jpg","1","0","1732"
"6","6","encoding","encoding","96","PassionFruit.jpg","1","0","1164"
"6","6","encoding","encoding","97","Computer_ExpansionCard.jpg","1","0","1299"
"6","6","encoding","encoding","98","DarthVader.jpg","1","0","1602"
"6","6","encoding","encoding","99","CompassCardinal.jpg","1","0","953"
"6","6","encoding","encoding","100","Crib_Basket.jpg","1","0","1401"
"6","6","encoding","encoding","101","Flute_Wooden.jpg","1","0","1488"
"6","6","encoding","encoding","102","Toy_HockeyStick.jpg","1","0","1328"
"6","6","encoding","encoding","103","Box_Apples.jpg","1","0","2551"
"6","6","encoding","encoding","104","DrinkShaker.jpg","1","0","1254"
"6","6","encoding","encoding","105","InflatableSleepingBag.jpg","1","0","838"
"6","6","encoding","encoding","106","SiloGrain.jpg","1","0","1373"
"6","6","encoding","encoding","107","Pickle.jpg","1","0","1428"
"6","6","encoding","encoding","108","Wire_Soldering.jpg","1","0","1419"
"6","6","encoding","encoding","109","Toy_Car.jpg","1","0","1243"
"6","6","encoding","encoding","110","Grenade.jpg","1","0","2002"
"6","6","encoding","encoding","111","BoogieBoard.jpg","1","0","1105"
"6","6","encoding","encoding","112","Bag_Grains.jpg","1","0","721"
"6","6","encoding","encoding","113","Spoon_Sugar.jpg","1","0","896"
"6","6","encoding","encoding","114","CheeseSlicer.jpg","1","0","1327"
"6","6","encoding","encoding","115","Steamroller.jpg","1","0","1319"
"6","6","encoding","encoding","116","MovieSlate.jpg","1","0","806"
"6","6","encoding","encoding","117","Chair_BeanBag.jpg","1","0","1909"
"6","6","encoding","encoding","118","Lighter_Black.jpg","1","0","1452"
"6","6","encoding","encoding","119","Makeup_Eyeshadow.jpg","1","0","1364"
"6","6","encoding","encoding","120","Fossil.jpg","1","0","1067"
"6","6","encoding","encoding","121","Celery.jpg","1","0","1027"
"6","6","encoding","encoding","123","Puzzle_Animal.jpg","3","0","2736"
"6","6","encoding","encoding","124","Ball_Disco.jpg","1","0","1519"
"6","6","encoding","encoding","125","NewspaperStack.jpg","1","0","999"
"6","6","encoding","encoding","126","Bells_Christmas.jpg","1","0","1110"
"6","6","encoding","encoding","127","Pencil.jpg","1","0","1262"
"6","6","encoding","encoding","128","Ball_Golf.jpg","1","0","1589"
"6","6","encoding","encoding","129","Owl.jpg","2","0","2612"
"6","6","encoding","encoding","130","Mirror_Dental.jpg","1","0","1403"
"6","6","encoding","encoding","131","Birdhouse.jpg","1","0","1082"
"6","6","encoding","encoding","132","Boat_Colourful.jpg","1","0","1146"
"6","6","encoding","encoding","133","Blanket.jpg","1","0","945"
"6","6","encoding","encoding","134","Pouch_PotPourri.jpg","1","0","1217"
"6","6","encoding","encoding","135","Shoes_Snowboarding.jpg","1","0","1656"
"6","6","encoding","encoding","136","Toy_BearBlackPlastic.jpg","1","0","1927"
"6","6","encoding","encoding","137","Shed.jpg","1","0","831"
"6","6","encoding","encoding","138","RollerCoaster.jpg","2","0","2166"
"6","6","encoding","encoding","139","Radish.jpg","1","0","1173"
"6","6","encoding","encoding","140","IceCreamCone.jpg","2","0","1868"
"6","6","encoding","encoding","141","Dog_Bulldog.jpg","3","0","2508"
"6","6","encoding","encoding","142","Mat_Bamboo.jpg","1","0","1155"
"6","6","encoding","encoding","143","ReindeerHeadband.jpg","1","0","1218"
"6","6","encoding","encoding","144","Napkin_Single.jpg","1","0","1210"
"6","6","encoding","encoding","145","Headset.jpg","1","0","1265"
"6","6","encoding","encoding","146","Banana.jpg","1","0","1265"
"6","6","encoding","encoding","147","Bottle_CosmeticSpray.jpg","1","0","1656"
"6","6","encoding","encoding","148","SelfieStick.jpg","1","0","1271"
"6","6","encoding","encoding","149","LampPost_ThreeBulbs.jpg","1","0","1758"
"6","6","encoding","encoding","150","Fish_Swordfish.jpg","1","0","2054"
"6","6","encoding","encoding","151","Bird_Tern.jpg","2","0","2469"
"6","6","encoding","encoding","152","Pot_Crock.jpg","1","0","2179"
"6","6","encoding","encoding","153","Card_TwoSpade.jpg","1","0","1251"
"6","6","encoding","encoding","154","Toilet.jpg","1","0","1443"
"6","6","encoding","encoding","155","Teapot.jpg","1","0","1306"
"6","6","encoding","encoding","156","Boat_Ferry.jpg","1","0","1658"
"6","6","encoding","encoding","157","WaterCooler.jpg","1","0","1097"
"6","6","encoding","encoding","158","Clarinet.jpg","1","0","1400"
"6","6","encoding","encoding","159","MeterElectric.jpg","1","0","927"
"6","6","encoding","encoding","160","DogTreat.jpg","1","0","1183"
"6","6","encoding","encoding","161","Bamboo.jpg","1","0","1014"
"6","6","encoding","encoding","162","TelephoneJack.jpg","1","0","1061"
"6","6","encoding","encoding","163","Tape_Dispenser.jpg","1","0","877"
"6","6","encoding","encoding","164","Wreath.jpg","1","0","860"
"6","6","encoding","encoding","165","Camera_Digital.jpg","1","0","979"
"6","6","encoding","encoding","166","Helmet_Motorcycle.jpg","1","0","738"
"6","6","encoding","encoding","167","Scooter.jpg","1","0","1018"
"6","6","encoding","encoding","168","ElectricSwitchboard.jpg","1","0","1425"
"6","6","encoding","encoding","169","Tire_Hollow.jpg","1","0","928"
"6","6","encoding","encoding","170","Candy_Toffee.jpg","1","0","1088"
"6","6","encoding","encoding","171","Flower_Rose.jpg","1","0","1543"
"6","6","encoding","encoding","172","NailClipper.jpg","1","0","1622"
"6","6","encoding","encoding","173","Weathervane.jpg","1","0","1446"
"6","6","encoding","encoding","174","Flower_Orchid.jpg","1","0","2021"
"6","6","encoding","encoding","175","ShoeLace_Flat.jpg","1","0","1612"
"6","6","encoding","encoding","176","Nail.jpg","1","0","820"
"6","6","encoding","encoding","177","Box_Jewellery.jpg","1","0","883"
"6","6","retrieval","old_objects","1","Umbrella_Retractable.jpg","37","0","1276"
"6","6","retrieval","new_objects","2","Shampoo.jpg","37","1","576"
"6","6","retrieval","new_objects","3","Nuts_Walnut.jpg","37","1","640"
"6","6","retrieval","old_objects","4","Qtip_Multiple.jpg","36","1","806"
"6","6","retrieval","new_objects","5","Tie.jpg","37","1","748"
"6","6","retrieval","new_objects","6","Spoons_MeasuringDetached.jpg","37","1","701"
"6","6","retrieval","new_objects","7","Can_OilSpout.jpg","37","1","736"
"6","6","retrieval","old_objects","8","DoorHandle.jpg","37","0","689"
"6","6","retrieval","old_objects","9","Steeple.jpg","36","1","852"
"6","6","retrieval","new_objects","10","Hat_Beret.jpg","37","1","817"
"6","6","retrieval","old_objects","11","Tag_Price.jpg","36","1","815"
"6","6","retrieval","old_objects","12","Dice.jpg","36","1","949"
"6","6","retrieval","new_objects","13","Photocopier.jpg","37","1","718"
"6","6","retrieval","new_objects","14","IceScraper.jpg","37","1","544"
"6","6","retrieval","old_objects","15","DrinkShaker.jpg","37","0","713"
"6","6","retrieval","new_objects","16","Puffin.jpg","37","1","595"
"6","6","retrieval","old_objects","17","Dynamite.jpg","37","0","1410"
"6","6","retrieval","old_objects","18","InflatableSleepingBag.jpg","37","0","657"
"6","6","retrieval","new_objects","19","PokerChips.jpg","37","1","718"
"6","6","retrieval","new_objects","20","Ring_Diamond.jpg","37","1","608"
"6","6","retrieval","new_objects","21","Shoe_WomenHeals.jpg","37","1","606"
"6","6","retrieval","new_objects","22","Humidifier.jpg","37","1","933"
"6","6","retrieval","old_objects","23","PaintCan.jpg","37","0","686"
"6","6","retrieval","old_objects","24","Sand.jpg","36","1","914"
"6","6","retrieval","old_objects","25","Bird_Tern.jpg","37","0","860"
"6","6","retrieval","new_objects","26","Can_Gas.jpg","37","1","576"
"6","6","retrieval","old_objects","27","Buffalo.jpg","36","1","672"
"6","6","retrieval","new_objects","28","DormerWindow.jpg","37","1","684"
"6","6","retrieval","new_objects","29","PaperShredder.jpg","37","1","615"
"6","6","retrieval","old_objects","30","Shoes_Snowboarding.jpg","37","0","542"
"6","6","retrieval","new_objects","31","Shoes_DutchClogs.jpg","37","1","551"
"6","6","retrieval","old_objects","32","Keychain_Leather.jpg","37","0","1200"
"6","6","retrieval","new_objects","33","BowlingPin.jpg","37","1","550"
"6","6","retrieval","new_objects","34","RemoteControl.jpg","37","1","575"
"6","6","retrieval","new_objects","35","Helicopter.jpg","37","1","703"
"6","6","retrieval","new_objects","36","Boat_Trailer.jpg","36","0","1409"
"6","6","retrieval","new_objects","37","LitterScoop.jpg","37","1","488"
"6","6","retrieval","old_objects","38","Boat_Colourful.jpg","37","0","835"
"6","6","retrieval","old_objects","39","Container_Tupperware.jpg","37","0","697"
"6","6","retrieval","new_objects","40","Brush_Paint.jpg","37","1","1011"
"6","6","retrieval","new_objects","41","Knife_Hunting.jpg","37","1","602"
"6","6","retrieval","old_objects","42","WaterCooler.jpg","37","0","905"
"6","6","retrieval","new_objects","43","HotWaterBottle.jpg","37","1","579"
"6","6","retrieval","old_objects","44","PassionFruit.jpg","37","0","555"
"6","6","retrieval","old_objects","45","Pot_Crock.jpg","36","1","1100"
"6","6","retrieval","new_objects","46","PatioHeater.jpg","37","1","583"
"6","6","retrieval","old_objects","47","Mat_Bamboo.jpg","37","0","446"
"6","6","retrieval","old_objects","48","Frame_Oval.jpg","37","0","523"
"6","6","retrieval","new_objects","49","MetalChain.jpg","37","1","469"
"6","6","retrieval","old_objects","50","FlashlightHeadBand.jpg","37","0","577"
"6","6","retrieval","new_objects","51","Mattress.jpg","37","1","577"
"6","6","retrieval","old_objects","52","Machine_EKG.jpg","36","1","849"
"6","6","retrieval","new_objects","53","Shark_Hammerhead.jpg","37","1","678"
"6","6","retrieval","old_objects","54","FloppyDisk.jpg","36","1","1098"
"6","6","retrieval","old_objects","55","DarthVader.jpg","36","1","1085"
"6","6","retrieval","old_objects","56","CameoPortrait.jpg","37","0","504"
"6","6","retrieval","old_objects","57","Dolphine.jpg","36","1","683"
"6","6","retrieval","old_objects","58","Headset.jpg","37","0","1190"
"6","6","retrieval","old_objects","59","Pencil.jpg","36","1","621"
"6","6","retrieval","new_objects","60","Toy_Bat.jpg","37","1","579"
"6","6","retrieval","old_objects","62","DogTreat.jpg","36","1","883"
"6","6","retrieval","new_objects","63","BicycleHandleGrip.jpg","37","1","654"
"6","6","retrieval","new_objects","64","Blackboard.jpg","37","1","698"
"6","6","retrieval","new_objects","65","Scalpel.jpg","37","1","453"
"6","6","retrieval","old_objects","66","Earth_Planet.jpg","36","1","722"
"6","6","retrieval","old_objects","67","Car_Buggy.jpg","36","1","596"
"6","6","retrieval","old_objects","68","Ball_Squashball.jpg","36","1","779"
"6","6","retrieval","new_objects","69","Boxcutter.jpg","37","1","778"
"6","6","retrieval","old_objects","70","CompassCardinal.jpg","36","1","1530"
"6","6","retrieval","old_objects","71","ChessPiece_Bishop.jpg","37","0","916"
"6","6","retrieval","new_objects","72","Stick_Bridge.jpg","37","1","854"
"6","6","retrieval","new_objects","73","Coconut.jpg","37","1","818"
"6","6","retrieval","new_objects","74","Basket_Plastic.jpg","37","1","592"
"6","6","retrieval","new_objects","75","Bathtub.jpg","37","1","528"
"6","6","retrieval","new_objects","76","SaxophoneSoprano.jpg","37","1","858"
"6","6","retrieval","new_objects","77","Nyala.jpg","37","1","710"
"6","6","retrieval","new_objects","78","Taco.jpg","37","1","937"
"6","6","retrieval","new_objects","79","Ladybug.jpg","37","1","626"
"6","6","retrieval","old_objects","80","Shed.jpg","37","0","744"
"6","6","retrieval","old_objects","81","Origami_Ox.jpg","37","0","706"
"6","6","retrieval","old_objects","82","Cage_Bird.jpg","36","1","732"
"6","6","retrieval","new_objects","83","Microphone.jpg","37","1","470"
"6","6","retrieval","old_objects","84","Steamroller.jpg","37","0","706"
"6","6","retrieval","old_objects","85","Box_Jewellery.jpg","37","0","588"
"6","6","retrieval","new_objects","86","PeasSplit.jpg","37","1","708"
"6","6","retrieval","new_objects","87","Joystick.jpg","37","1","630"
"6","6","retrieval","old_objects","88","NailClipper.jpg","0","0","2000"
"6","6","retrieval","old_objects","89","Bottle_CosmeticSpray.jpg","37","0","538"
"6","6","retrieval","new_objects","90","Hat_Hard.jpg","37","1","676"
"6","6","retrieval","old_objects","91","Helmet_Soldier.jpg","37","0","568"
"6","6","retrieval","new_objects","92","MechanicalSpring.jpg","37","1","440"
"6","6","retrieval","new_objects","93","HumanSkull.jpg","37","1","549"
"6","6","retrieval","old_objects","94","AlarmSystem.jpg","37","0","566"
"6","6","retrieval","new_objects","95","KeyHook_Empty.jpg","37","1","614"
"6","6","retrieval","old_objects","96","Noisemaker.jpg","37","0","524"
"6","6","retrieval","new_objects","97","FileDivider.jpg","37","1","598"
"6","6","retrieval","old_objects","98","Nail.jpg","36","1","749"
"6","6","retrieval","new_objects","99","Seahorse.jpg","37","1","750"
"6","6","retrieval","new_objects","100","Blueprints.jpg","37","1","606"
"6","6","retrieval","old_objects","101","LampPost_ThreeBulbs.jpg","36","1","1117"
"6","6","retrieval","old_objects","102","RamAnimal.jpg","36","1","927"
"6","6","retrieval","new_objects","103","Brush_Nail.jpg","37","1","529"
"6","6","retrieval","new_objects","104","Tiara.jpg","37","1","578"
"6","6","retrieval","new_objects","105","Locomotive.jpg","37","1","498"
"6","6","retrieval","old_objects","106","Nametag.jpg","37","0","541"
"6","6","retrieval","old_objects","107","Shoe_Pink.jpg","37","0","670"
"6","6","retrieval","new_objects","108","Level.jpg","37","1","482"
"6","6","retrieval","new_objects","109","Fruit_Cactus.jpg","37","1","541"
"6","6","retrieval","old_objects","110","Booties_Blue.jpg","37","0","527"
"6","6","retrieval","old_objects","111","Flower_Orchid.jpg","36","1","753"
"6","6","retrieval","old_objects","112","Toy_Dog.jpg","37","0","569"
"6","6","retrieval","old_objects","113","Clarinet.jpg","37","0","889"
