"group","subject","blockcode","trialcode","trialnum","values.stimulus","response","correct","latency"
"3","3","encoding","encoding","1","Tuxedo.jpg","5","0","2339"
"3","3","encoding","encoding","2","VinylRecord.jpg","4","0","1920"
"3","3","encoding","encoding","3","PowderProtein.jpg","2","0","2989"
"3","3","encoding","encoding","4","Cannister_Gas.jpg","1","0","2903"
"3","3","encoding","encoding","5","AnsweringMachine.jpg","1","0","1707"
"3","3","encoding","encoding","6","Button.jpg","1","0","1527"
"3","3","encoding","encoding","7","Exercise_Machine.jpg","2","0","2180"
"3","3","encoding","encoding","8","Crowbar.jpg","1","0","1880"
"3","3","encoding","encoding","9","Popcorn.jpg","4","0","2888"
"3","3","encoding","encoding","10","Pliers_NeedleNose.jpg","1","0","1772"
"3","3","encoding","encoding","11","CertificateFramed.jpg","1","0","1586"
"3","3","encoding","encoding","12","Toaster_Antique.jpg","3","0","2181"
"3","3","encoding","encoding","13","Bag_Garbage.jpg","1","0","2120"
"3","3","encoding","encoding","14","Harp.jpg","5","0","2385"
"3","3","encoding","encoding","15","DogSled.jpg","4","0","2757"
"3","3","encoding","encoding","16","Bowl_Glass.jpg","1","0","2094"
"3","3","encoding","encoding","17","Beaker.jpg","2","0","2648"
"3","3","encoding","encoding","18","CashRegister_Antique.jpg","5","0","1907"
"3","3","encoding","encoding","19","Phone_Public.jpg","4","0","2153"
"3","3","encoding","encoding","20","Rock_Mimetite.jpg","0","0","3001"
"3","3","encoding","encoding","21","Briefcase_Silver.jpg","2","0","2774"
"3","3","encoding","encoding","22","Cage_Hamster.jpg","5","0","2153"
"3","3","encoding","encoding","23","Jug_GallonWhite.jpg","1","0","1283"
"3","3","encoding","encoding","24","Window.jpg","1","0","981"
"3","3","encoding","encoding","25","ShowerCap.jpg","4","0","2839"
"3","3","encoding","encoding","26","Croissant.jpg","5","0","2397"
"3","3","encoding","encoding","27","RiceCooker.jpg","3","0","1675"
"3","3","encoding","encoding","28","ComputerKeyboard_F1.jpg","1","0","2076"
"3","3","encoding","encoding","29","Hotdog_Weiner.jpg","0","0","3001"
"3","3","encoding","encoding","30","EyeDrops.jpg","2","0","1919"
"3","3","encoding","encoding","31","Maraca.jpg","4","0","1804"
"3","3","encoding","encoding","32","Tray_Cafeteria.jpg","2","0","1905"
"3","3","encoding","encoding","33","CigarCase.jpg","2","0","2579"
"3","3","encoding","encoding","34","Pyramid.jpg","1","0","2138"
"3","3","encoding","encoding","35","PostageStamps.jpg","5","0","1984"
"3","3","encoding","encoding","36","ChocolateBar_HalfUnwrapped.jpg","3","0","1559"
"3","3","encoding","encoding","37","MilkPitcher.jpg","3","0","1734"
"3","3","encoding","encoding","38","ContactLens.jpg","2","0","1953"
"3","3","encoding","encoding","39","OrangeBlood.jpg","0","0","3001"
"3","3","encoding","encoding","40","Tape_Clear.jpg","2","0","2895"
"3","3","encoding","encoding","41","Headphones.jpg","0","0","3001"
"3","3","encoding","encoding","42","Blade_Tablesaw.jpg","2","0","1076"
"3","3","encoding","encoding","43","GrillRack.jpg","1","0","1658"
"3","3","encoding","encoding","44","Cymbals.jpg","1","0","2484"
"3","3","encoding","encoding","45","Lantern_Tea.jpg","1","0","1573"
"3","3","encoding","encoding","46","Bowl_Pasta.jpg","3","0","1741"
"3","3","encoding","encoding","47","Syringe_Blunt.jpg","4","0","2115"
"3","3","encoding","encoding","48","Barometer.jpg","2","0","2261"
"3","3","encoding","encoding","49","Chair_High.jpg","1","0","2166"
"3","3","encoding","encoding","50","Bread_Carrot.jpg","1","0","1744"
"3","3","encoding","encoding","51","ChainRusty.jpg","2","0","1720"
"3","3","encoding","encoding","52","DoorKnob.jpg","2","0","1963"
"3","3","encoding","encoding","53","Statue_Head.jpg","1","0","1569"
"3","3","encoding","encoding","54","Kebab_Meat.jpg","2","0","2441"
"3","3","encoding","encoding","55","Makeup_Bag.jpg","1","0","2923"
"3","3","encoding","encoding","56","Peppermill.jpg","0","0","3001"
"3","3","encoding","encoding","57","MixingGlass.jpg","1","0","1873"
"3","3","encoding","encoding","58","Candy_Lozenge.jpg","3","0","2138"
"3","3","encoding","encoding","59","Lectern.jpg","3","0","2497"
"3","3","encoding","encoding","60","Gameboy.jpg","1","0","2476"
"3","3","encoding","encoding","62","Lion.jpg","1","0","1516"
"3","3","encoding","encoding","63","Hat_Explorer.jpg","1","0","1455"
"3","3","encoding","encoding","64","Hoverboard.jpg","1","0","1664"
"3","3","encoding","encoding","65","Defribrillator.jpg","5","0","2386"
"3","3","encoding","encoding","66","Clock_Grandfather.jpg","5","0","1563"
"3","3","encoding","encoding","67","VacuumHead.jpg","1","0","2104"
"3","3","encoding","encoding","68","BottleOpener.jpg","1","0","1982"
"3","3","encoding","encoding","69","Bird_Duck.jpg","1","0","1552"
"3","3","encoding","encoding","70","Wallet_ClosedBlack.jpg","3","0","2896"
"3","3","encoding","encoding","71","Chipmunk.jpg","1","0","1839"
"3","3","encoding","encoding","72","SmokingPipe.jpg","1","0","1743"
"3","3","encoding","encoding","73","Box_Notepaper.jpg","3","0","2300"
"3","3","encoding","encoding","74","TestTube_Single.jpg","2","0","2434"
"3","3","encoding","encoding","75","Bird_Falcon.jpg","1","0","1564"
"3","3","encoding","encoding","76","PylonTraffic.jpg","0","0","3001"
"3","3","encoding","encoding","77","Chimpanzee.jpg","1","0","2080"
"3","3","encoding","encoding","78","Playard.jpg","2","0","2642"
"3","3","encoding","encoding","79","Bowl_Sugar.jpg","1","0","2734"
"3","3","encoding","encoding","80","Toy_Christmastree.jpg","1","0","1578"
"3","3","encoding","encoding","81","TissueBox.jpg","3","0","2418"
"3","3","encoding","encoding","82","Can_MilkAntique.jpg","1","0","1737"
"3","3","encoding","encoding","83","Pants_Firefighter.jpg","0","0","3001"
"3","3","encoding","encoding","84","Bench_Black.jpg","1","0","1285"
"3","3","encoding","encoding","85","Sandwich_Egg.jpg","1","0","853"
"3","3","encoding","encoding","86","RibbonPin.jpg","2","0","2492"
"3","3","encoding","encoding","87","Toy_RockingHorseBeige.jpg","3","0","2476"
"3","3","encoding","encoding","88","Tricycle.jpg","3","0","2465"
"3","3","encoding","encoding","89","BumperCar.jpg","1","0","2196"
"3","3","encoding","encoding","90","PowerDoorPushButton.jpg","1","0","2496"
"3","3","encoding","encoding","91","Toy_BearBrownPlushie.jpg","3","0","2420"
"3","3","encoding","encoding","92","Mirror_Handheld.jpg","1","0","1704"
"3","3","encoding","encoding","93","Seal_animal.jpg","1","0","1317"
"3","3","encoding","encoding","94","Case_DVD.jpg","3","0","2255"
"3","3","encoding","encoding","95","Bread_Melon.jpg","1","0","1543"
"3","3","encoding","encoding","96","Fan_Blades.jpg","1","0","1417"
"3","3","encoding","encoding","97","JukeboxAntique.jpg","3","0","2137"
"3","3","encoding","encoding","98","Case_CD.jpg","3","0","2184"
"3","3","encoding","encoding","99","Cake_Birthday.jpg","5","0","2525"
"3","3","encoding","encoding","100","Toy_MrPotatoHeadjpg.jpg","5","0","1816"
"3","3","encoding","encoding","101","LicensePlate.jpg","2","0","2160"
"3","3","encoding","encoding","102","BicyclePedal.jpg","1","0","1682"
"3","3","encoding","encoding","103","CandleSnuffer.jpg","1","0","2491"
"3","3","encoding","encoding","104","Pants_Jeans.jpg","2","0","2668"
"3","3","encoding","encoding","105","Booth_Carnival.jpg","1","0","1868"
"3","3","encoding","encoding","106","Blueberry.jpg","1","0","1509"
"3","3","encoding","encoding","107","CarLighter.jpg","1","0","1613"
"3","3","encoding","encoding","108","Statue_Man.jpg","1","0","2540"
"3","3","encoding","encoding","109","Horseshoe.jpg","2","0","2467"
"3","3","encoding","encoding","110","Pajamas.jpg","1","0","1922"
"3","3","encoding","encoding","111","DrainPlug.jpg","3","0","2467"
"3","3","encoding","encoding","112","Glass_bottle.jpg","1","0","1362"
"3","3","encoding","encoding","113","Bag_Gift.jpg","3","0","2350"
"3","3","encoding","encoding","114","CodeDoorLock.jpg","6","0","2213"
"3","3","encoding","encoding","115","Gloves_Bicycle.jpg","1","0","1739"
"3","3","encoding","encoding","116","ShinPads.jpg","1","0","1116"
"3","3","encoding","encoding","117","Spoon_WoodenLight.jpg","3","0","2027"
"3","3","encoding","encoding","118","Gun_Glue.jpg","2","0","1984"
"3","3","encoding","encoding","119","House_Stone.jpg","1","0","1450"
"3","3","encoding","encoding","120","Skirt_Long.jpg","1","0","1578"
"3","3","encoding","encoding","121","Waffle.jpg","5","0","2077"
"3","3","encoding","encoding","123","Hat_Beanie.jpg","1","0","2105"
"3","3","encoding","encoding","124","ColoringSet.jpg","6","0","2414"
"3","3","encoding","encoding","125","Speakers_Theatre.jpg","1","0","1498"
"3","3","encoding","encoding","126","Telephone_DialAntique.jpg","1","0","1187"
"3","3","encoding","encoding","127","SculptureMetalFish.jpg","1","0","1178"
"3","3","encoding","encoding","128","ShoeLace_Round.jpg","1","0","1354"
"3","3","encoding","encoding","129","Bag_Diaper.jpg","1","0","2002"
"3","3","encoding","encoding","130","NailFiles.jpg","4","0","2001"
"3","3","encoding","encoding","131","ComputerKey_Escape.jpg","1","0","2239"
"3","3","encoding","encoding","132","Jars_PetFood.jpg","1","0","1875"
"3","3","encoding","encoding","133","Barbecue_Charcoal.jpg","6","0","1939"
"3","3","encoding","encoding","134","Playdoh.jpg","2","0","1964"
"3","3","encoding","encoding","135","LightBulb_White.jpg","1","0","1713"
"3","3","encoding","encoding","136","Hockey_Puck.jpg","1","0","2101"
"3","3","encoding","encoding","137","Milkshake_Strawberry.jpg","3","0","1984"
"3","3","encoding","encoding","138","SpongeScrubbing.jpg","2","0","2011"
"3","3","encoding","encoding","139","Clock_Radio.jpg","1","0","1775"
"3","3","encoding","encoding","140","Carbiner_Ascender.jpg","1","0","1977"
"3","3","encoding","encoding","141","Chinchilla.jpg","1","0","1280"
"3","3","encoding","encoding","142","Guitar_Electric.jpg","5","0","2256"
"3","3","encoding","encoding","143","PortaPotty.jpg","3","0","2299"
"3","3","encoding","encoding","144","Truck_Box.jpg","1","0","1556"
"3","3","encoding","encoding","145","LightBulb_Blue.jpg","1","0","2249"
"3","3","encoding","encoding","146","AllTerrain.jpg","1","0","1169"
"3","3","encoding","encoding","147","SnowGlobe.jpg","1","0","1137"
"3","3","encoding","encoding","148","Pasta_Spaghetti.jpg","1","0","1378"
"3","3","encoding","encoding","149","Statue_ManHorse.jpg","1","0","1057"
"3","3","encoding","encoding","150","Ghost.jpg","1","0","2033"
"3","3","encoding","encoding","151","IroningBoard.jpg","5","0","1999"
"3","3","encoding","encoding","152","Envelope_Letter.jpg","2","0","2216"
"3","3","encoding","encoding","153","Hoodie.jpg","1","0","2194"
"3","3","encoding","encoding","154","Cannoli.jpg","1","0","2316"
"3","3","encoding","encoding","155","WaterGun.jpg","1","0","2004"
"3","3","encoding","encoding","156","Can_Olives.jpg","1","0","1647"
"3","3","encoding","encoding","157","Jar_JellyBeans.jpg","2","0","2558"
"3","3","encoding","encoding","158","Shoes_Pumps.jpg","1","0","1910"
"3","3","encoding","encoding","159","Gecko.jpg","5","0","2326"
"3","3","encoding","encoding","160","Giraffe.jpg","1","0","1430"
"3","3","encoding","encoding","161","Towel.jpg","1","0","1325"
"3","3","encoding","encoding","162","ElasticBand.jpg","1","0","1259"
"3","3","encoding","encoding","163","GutterAndDrainPipe.jpg","1","0","2012"
"3","3","encoding","encoding","164","Torpedo.jpg","1","0","1719"
"3","3","encoding","encoding","165","Bowl_Cereal.jpg","2","0","2624"
"3","3","encoding","encoding","166","Cart_Janitor.jpg","1","0","1719"
"3","3","encoding","encoding","167","Sword.jpg","1","0","1292"
"3","3","encoding","encoding","168","Handbag.jpg","1","0","1917"
"3","3","encoding","encoding","169","Chair_Folding.jpg","3","0","1889"
"3","3","encoding","encoding","170","Swing_Child.jpg","1","0","1476"
"3","3","encoding","encoding","171","Walkman.jpg","1","0","1315"
"3","3","encoding","encoding","172","Pottery.jpg","1","0","1446"
"3","3","encoding","encoding","173","Walker_Silver.jpg","1","0","1221"
"3","3","encoding","encoding","174","Bowl_Flour.jpg","2","0","1934"
"3","3","encoding","encoding","175","MoneyBill50.jpg","1","0","1420"
"3","3","encoding","encoding","176","Phone_Military.jpg","1","0","1092"
"3","3","encoding","encoding","177","HairBand.jpg","1","0","965"
"3","3","retrieval","new_objects","1","Igloo.jpg","37","1","1143"
"3","3","retrieval","old_objects","2","Toy_RockingHorseBeige.jpg","36","1","936"
"3","3","retrieval","new_objects","3","InflatableSleepingBag.jpg","37","1","1169"
"3","3","retrieval","old_objects","4","MixingGlass.jpg","36","1","963"
"3","3","retrieval","old_objects","5","Statue_Head.jpg","36","1","782"
"3","3","retrieval","old_objects","6","MilkPitcher.jpg","36","1","677"
"3","3","retrieval","old_objects","7","Jar_JellyBeans.jpg","36","1","593"
"3","3","retrieval","new_objects","8","Toy_Car.jpg","37","1","760"
"3","3","retrieval","old_objects","9","Toaster_Antique.jpg","36","1","854"
"3","3","retrieval","old_objects","10","AnsweringMachine.jpg","36","1","824"
"3","3","retrieval","old_objects","11","Shoes_Pumps.jpg","36","1","727"
"3","3","retrieval","new_objects","12","PaintCan.jpg","37","1","802"
"3","3","retrieval","old_objects","13","Rock_Mimetite.jpg","36","1","1258"
"3","3","retrieval","new_objects","14","Wreath.jpg","37","1","839"
"3","3","retrieval","new_objects","15","SiloGrain.jpg","37","1","806"
"3","3","retrieval","new_objects","16","DoorHandle.jpg","37","1","1246"
"3","3","retrieval","new_objects","17","Candy_Toffee.jpg","37","1","618"
"3","3","retrieval","old_objects","18","Statue_ManHorse.jpg","36","1","645"
"3","3","retrieval","old_objects","19","Chipmunk.jpg","36","1","768"
"3","3","retrieval","old_objects","20","Ghost.jpg","36","1","627"
"3","3","retrieval","new_objects","21","Decoration_ChristmasWhite.jpg","37","1","602"
"3","3","retrieval","new_objects","22","Spoons_Musical.jpg","37","1","944"
"3","3","retrieval","new_objects","23","WaterCooler.jpg","37","1","620"
"3","3","retrieval","new_objects","24","Banana.jpg","37","1","666"
"3","3","retrieval","old_objects","25","PowerDoorPushButton.jpg","36","1","669"
"3","3","retrieval","new_objects","26","Stroller.jpg","37","1","834"
"3","3","retrieval","old_objects","27","VacuumHead.jpg","36","1","783"
"3","3","retrieval","old_objects","28","ChainRusty.jpg","36","1","656"
"3","3","retrieval","new_objects","29","Booties_Blue.jpg","37","1","657"
"3","3","retrieval","new_objects","30","Headset.jpg","37","1","849"
"3","3","retrieval","new_objects","31","Dynamite.jpg","37","1","670"
"3","3","retrieval","new_objects","32","Ball_Disco.jpg","37","1","574"
"3","3","retrieval","old_objects","33","JukeboxAntique.jpg","37","0","878"
"3","3","retrieval","new_objects","34","Stapler_Regular.jpg","37","1","590"
"3","3","retrieval","new_objects","35","Frame_Oval.jpg","37","1","613"
"3","3","retrieval","new_objects","36","Seeder.jpg","37","1","803"
"3","3","retrieval","new_objects","37","Canteen.jpg","37","1","699"
"3","3","retrieval","new_objects","38","BoogieBoard.jpg","37","1","609"
"3","3","retrieval","old_objects","39","Tuxedo.jpg","36","1","656"
"3","3","retrieval","old_objects","40","Gloves_Bicycle.jpg","37","0","657"
"3","3","retrieval","old_objects","41","BicyclePedal.jpg","36","1","770"
"3","3","retrieval","old_objects","42","Speakers_Theatre.jpg","37","0","833"
"3","3","retrieval","old_objects","43","Playdoh.jpg","36","1","845"
"3","3","retrieval","new_objects","44","Toy_BearBlackPlastic.jpg","37","1","648"
"3","3","retrieval","old_objects","45","Chair_Folding.jpg","36","1","685"
"3","3","retrieval","old_objects","46","LightBulb_White.jpg","36","1","637"
"3","3","retrieval","old_objects","47","Horseshoe.jpg","36","1","526"
"3","3","retrieval","old_objects","48","Envelope_Letter.jpg","36","1","866"
"3","3","retrieval","old_objects","49","Blade_Tablesaw.jpg","36","1","1294"
"3","3","retrieval","old_objects","50","ElasticBand.jpg","36","1","824"
"3","3","retrieval","old_objects","51","Handbag.jpg","36","1","549"
"3","3","retrieval","old_objects","52","Hoodie.jpg","36","1","674"
"3","3","retrieval","new_objects","53","PassionFruit.jpg","37","1","572"
"3","3","retrieval","old_objects","54","LicensePlate.jpg","36","1","834"
"3","3","retrieval","new_objects","55","Beater_Electric.jpg","36","0","631"
"3","3","retrieval","new_objects","56","Box_Jewellery.jpg","37","1","945"
"3","3","retrieval","new_objects","57","Comb_1.jpg","37","1","577"
"3","3","retrieval","old_objects","58","Torpedo.jpg","36","1","628"
"3","3","retrieval","old_objects","59","MoneyBill50.jpg","36","1","897"
"3","3","retrieval","old_objects","60","Chimpanzee.jpg","36","1","749"
"3","3","retrieval","old_objects","62","Bench_Black.jpg","36","1","941"
"3","3","retrieval","old_objects","63","Barbecue_Charcoal.jpg","36","1","642"
"3","3","retrieval","new_objects","64","Ball_Golf.jpg","37","1","770"
"3","3","retrieval","new_objects","65","RollerCoaster.jpg","37","1","638"
"3","3","retrieval","new_objects","66","FuseBox.jpg","37","1","585"
"3","3","retrieval","new_objects","67","Steeple.jpg","37","1","526"
"3","3","retrieval","old_objects","68","Candy_Lozenge.jpg","36","1","1238"
"3","3","retrieval","new_objects","69","Door_Blue.jpg","37","1","876"
"3","3","retrieval","old_objects","70","Mirror_Handheld.jpg","36","1","804"
"3","3","retrieval","old_objects","71","Hotdog_Weiner.jpg","36","1","939"
"3","3","retrieval","new_objects","72","Earth_Planet.jpg","37","1","598"
"3","3","retrieval","new_objects","73","Mirror_Dental.jpg","37","1","785"
"3","3","retrieval","old_objects","74","Statue_Man.jpg","36","1","710"
"3","3","retrieval","new_objects","75","Boat_Colourful.jpg","37","1","726"
"3","3","retrieval","old_objects","76","CarLighter.jpg","36","1","616"
"3","3","retrieval","old_objects","77","Blueberry.jpg","36","1","611"
"3","3","retrieval","old_objects","78","Telephone_DialAntique.jpg","36","1","587"
"3","3","retrieval","old_objects","79","SnowGlobe.jpg","36","1","631"
"3","3","retrieval","old_objects","80","Button.jpg","36","1","637"
"3","3","retrieval","new_objects","81","JumpingJack.jpg","37","1","1000"
"3","3","retrieval","old_objects","82","Pliers_NeedleNose.jpg","37","0","1611"
"3","3","retrieval","new_objects","83","Steamroller.jpg","37","1","734"
"3","3","retrieval","new_objects","84","ElectricSwitchboard.jpg","37","1","942"
"3","3","retrieval","new_objects","85","HandRake.jpg","37","1","762"
"3","3","retrieval","old_objects","86","Briefcase_Silver.jpg","36","1","616"
"3","3","retrieval","new_objects","87","Radish.jpg","37","1","605"
"3","3","retrieval","old_objects","88","Fan_Blades.jpg","36","1","1176"
"3","3","retrieval","old_objects","89","Tricycle.jpg","36","1","673"
"3","3","retrieval","old_objects","90","Harp.jpg","36","1","662"
"3","3","retrieval","new_objects","91","DarthVader.jpg","37","1","635"
"3","3","retrieval","new_objects","92","Lock_Door.jpg","37","1","661"
"3","3","retrieval","old_objects","93","Hoverboard.jpg","36","1","662"
"3","3","retrieval","old_objects","94","Chair_High.jpg","36","1","650"
"3","3","retrieval","old_objects","95","Booth_Carnival.jpg","36","1","668"
"3","3","retrieval","new_objects","96","Television.jpg","37","1","575"
"3","3","retrieval","old_objects","97","Box_Notepaper.jpg","36","1","1013"
"3","3","retrieval","new_objects","98","Lacrosse_Stick.jpg","37","1","993"
"3","3","retrieval","old_objects","99","Playard.jpg","36","1","735"
"3","3","retrieval","old_objects","100","NailFiles.jpg","36","1","674"
"3","3","retrieval","old_objects","101","Bowl_Pasta.jpg","36","1","798"
"3","3","retrieval","old_objects","102","Toy_MrPotatoHeadjpg.jpg","36","1","606"
"3","3","retrieval","old_objects","103","Maraca.jpg","36","1","791"
"3","3","retrieval","new_objects","104","DrinkShaker.jpg","37","1","717"
"3","3","retrieval","new_objects","105","Compact_Mirror.jpg","37","1","713"
"3","3","retrieval","new_objects","106","SkullDeer.jpg","37","1","528"
"3","3","retrieval","old_objects","107","SculptureMetalFish.jpg","36","1","643"
"3","3","retrieval","old_objects","108","CandleSnuffer.jpg","36","1","714"
"3","3","retrieval","old_objects","109","ComputerKey_Escape.jpg","36","1","654"
"3","3","retrieval","new_objects","110","Sandcastle.jpg","37","1","713"
"3","3","retrieval","old_objects","111","Bird_Duck.jpg","36","1","893"
"3","3","retrieval","old_objects","112","PowderProtein.jpg","36","1","1214"
"3","3","retrieval","new_objects","113","Dice.jpg","37","1","652"
"3","3","retrieval","new_objects","114","Pot_Crock.jpg","37","1","768"
"3","3","retrieval","new_objects","115","Sand.jpg","37","1","566"
"3","3","retrieval","new_objects","116","Container_Tupperware.jpg","37","1","648"
"3","3","retrieval","old_objects","117","Phone_Military.jpg","37","0","1019"
"3","3","retrieval","old_objects","118","Cannoli.jpg","36","1","658"
"3","3","retrieval","new_objects","119","Wire_Soldering.jpg","37","1","542"
"3","3","retrieval","old_objects","120","House_Stone.jpg","36","1","803"
"3","3","retrieval","new_objects","121","Boombox.jpg","37","1","686"
"3","3","retrieval","new_objects","123","ShoeLace_Flat.jpg","37","1","993"
"3","3","retrieval","new_objects","124","Shed.jpg","37","1","1043"
"3","3","retrieval","old_objects","125","OrangeBlood.jpg","36","1","676"
"3","3","retrieval","new_objects","126","Umbrella_Retractable.jpg","37","1","745"
"3","3","retrieval","old_objects","127","Syringe_Blunt.jpg","36","1","617"
"3","3","retrieval","old_objects","128","Wallet_ClosedBlack.jpg","36","1","581"
"3","3","retrieval","new_objects","129","Camera_Digital.jpg","37","1","550"
"3","3","retrieval","old_objects","130","Bird_Falcon.jpg","36","1","1054"
"3","3","retrieval","new_objects","131","Dolphine.jpg","37","1","585"
"3","3","retrieval","new_objects","132","Tag_Price.jpg","37","1","668"
"3","3","retrieval","old_objects","133","Case_DVD.jpg","36","1","661"
"3","3","retrieval","new_objects","134","Toy_HockeyStick.jpg","37","1","567"
"3","3","retrieval","new_objects","135","Hourglass.jpg","37","1","620"
"3","3","retrieval","new_objects","136","Bird_Budgie.jpg","37","1","506"
"3","3","retrieval","new_objects","137","ChessPiece_Bishop.jpg","37","1","681"
"3","3","retrieval","new_objects","138","Toy_Rooster.jpg","37","1","527"
"3","3","retrieval","new_objects","139","Car_Buggy.jpg","37","1","563"
"3","3","retrieval","old_objects","140","Bag_Garbage.jpg","36","1","618"
"3","3","retrieval","new_objects","141","Grenade.jpg","37","1","581"
"3","3","retrieval","old_objects","142","Lectern.jpg","36","1","614"
"3","3","retrieval","old_objects","143","Cannister_Gas.jpg","36","1","1190"
"3","3","retrieval","new_objects","144","Buffalo.jpg","37","1","1391"
"3","3","retrieval","new_objects","145","Shoe_Pink.jpg","36","0","733"
"3","3","retrieval","old_objects","146","Exercise_Machine.jpg","36","1","922"
"3","3","retrieval","old_objects","147","Kebab_Meat.jpg","36","1","706"
"3","3","retrieval","old_objects","148","Bowl_Cereal.jpg","36","1","623"
"3","3","retrieval","new_objects","149","Speaker_OnStand.jpg","37","1","698"
"3","3","retrieval","new_objects","150","RamAnimal.jpg","37","1","1074"
"3","3","retrieval","old_objects","151","Bowl_Flour.jpg","36","1","650"
"3","3","retrieval","new_objects","152","FloppyDisk.jpg","37","1","985"
"3","3","retrieval","new_objects","153","CameoPortrait.jpg","37","1","839"
"3","3","retrieval","old_objects","154","Can_Olives.jpg","36","1","696"
"3","3","retrieval","new_objects","155","Cage_Bird.jpg","37","1","681"
"3","3","retrieval","new_objects","156","Flute_Wooden.jpg","37","1","637"
"3","3","retrieval","old_objects","157","Lantern_Tea.jpg","37","0","621"
"3","3","retrieval","old_objects","158","CertificateFramed.jpg","36","1","630"
"3","3","retrieval","old_objects","159","Jars_PetFood.jpg","36","1","705"
"3","3","retrieval","new_objects","160","Bird_Tern.jpg","37","1","617"
"3","3","retrieval","old_objects","161","Beaker.jpg","36","1","918"
"3","3","retrieval","new_objects","162","ReindeerHeadband.jpg","37","1","642"
"3","3","retrieval","new_objects","163","Paddle_Ball.jpg","37","1","1071"
"3","3","retrieval","old_objects","164","Sword.jpg","37","0","653"
"3","3","retrieval","old_objects","165","Toy_BearBrownPlushie.jpg","36","1","584"
"3","3","retrieval","new_objects","166","Cord_usb.jpg","37","1","657"
"3","3","retrieval","old_objects","167","Cage_Hamster.jpg","36","1","684"
"3","3","retrieval","old_objects","168","ShinPads.jpg","36","1","959"
"3","3","retrieval","old_objects","169","Pants_Firefighter.jpg","37","0","578"
"3","3","retrieval","old_objects","170","ColoringSet.jpg","36","1","615"
"3","3","retrieval","new_objects","171","Computer_ExpansionCard.jpg","37","1","690"
"3","3","retrieval","new_objects","172","Box_WoodCrate.jpg","37","1","1258"
"3","3","retrieval","old_objects","173","Crowbar.jpg","36","1","850"
"3","3","retrieval","old_objects","174","Gecko.jpg","36","1","587"
"3","3","retrieval","old_objects","175","Gun_Glue.jpg","36","1","797"
"3","3","retrieval","new_objects","176","Wheelbarrow_Green.jpg","37","1","884"
"3","3","retrieval","new_objects","177","FlashlightHeadBand.jpg","37","1","605"
"3","3","retrieval","old_objects","178","Cymbals.jpg","37","0","784"
"3","3","retrieval","old_objects","179","Can_MilkAntique.jpg","36","1","738"
"3","3","retrieval","new_objects","180","RecorderInstrument.jpg","37","1","640"
"3","3","retrieval","new_objects","181","Fish_Swordfish.jpg","37","1","821"
"3","3","retrieval","old_objects","182","Croissant.jpg","36","1","751"
"3","3","retrieval","new_objects","184","White_Screen.jpg","0","0","2001"
"3","3","retrieval","old_objects","185","Hat_Beanie.jpg","37","0","1099"
"3","3","retrieval","new_objects","186","MovieSlate.jpg","37","1","575"
"3","3","retrieval","new_objects","187","IceCreamCone.jpg","37","1","563"
"3","3","retrieval","old_objects","188","Skirt_Long.jpg","36","1","650"
"3","3","retrieval","old_objects","189","Pyramid.jpg","36","1","1114"
"3","3","retrieval","old_objects","190","Hat_Explorer.jpg","36","1","788"
"3","3","retrieval","new_objects","191","Helmet_Soldier.jpg","37","1","558"
"3","3","retrieval","new_objects","192","Gun_Revolver.jpg","37","1","662"
"3","3","retrieval","old_objects","193","Pajamas.jpg","36","1","793"
"3","3","retrieval","new_objects","194","Cracker_Saltine.jpg","37","1","632"
"3","3","retrieval","new_objects","195","Otoscope.jpg","37","1","531"
"3","3","retrieval","old_objects","196","Popcorn.jpg","36","1","594"
"3","3","retrieval","old_objects","197","Glass_bottle.jpg","37","0","566"
"3","3","retrieval","old_objects","198","LightBulb_Blue.jpg","36","1","813"
"3","3","retrieval","old_objects","199","Bag_Gift.jpg","36","1","571"
"3","3","retrieval","old_objects","200","Cart_Janitor.jpg","36","1","651"
"3","3","retrieval","old_objects","201","CashRegister_Antique.jpg","36","1","603"
"3","3","retrieval","new_objects","202","Weathervane.jpg","37","1","712"
"3","3","retrieval","old_objects","203","CodeDoorLock.jpg","36","1","768"
"3","3","retrieval","old_objects","204","Case_CD.jpg","36","1","1501"
"3","3","retrieval","new_objects","205","Noisemaker.jpg","37","1","704"
"3","3","retrieval","old_objects","206","Bag_Diaper.jpg","36","1","762"
"3","3","retrieval","old_objects","207","Bowl_Sugar.jpg","37","0","663"
"3","3","retrieval","new_objects","208","Machine_EKG.jpg","37","1","1238"
"3","3","retrieval","old_objects","209","Guitar_Electric.jpg","36","1","694"
"3","3","retrieval","new_objects","210","Chair_MedicalToilet.jpg","37","1","702"
"3","3","retrieval","new_objects","211","DogTreat.jpg","37","1","873"
"3","3","retrieval","old_objects","212","ShowerCap.jpg","36","1","661"
"3","3","retrieval","old_objects","213","DogSled.jpg","36","1","965"
"3","3","retrieval","new_objects","214","CompassCardinal.jpg","37","1","580"
"3","3","retrieval","new_objects","215","SetSquare.jpg","37","1","671"
"3","3","retrieval","new_objects","216","Chair_BeanBag.jpg","37","1","645"
"3","3","retrieval","new_objects","217","Airplane_Commercial.jpg","37","1","606"
"3","3","retrieval","old_objects","218","Swing_Child.jpg","36","1","624"
"3","3","retrieval","new_objects","219","Flower_Orchid.jpg","37","1","1216"
"3","3","retrieval","new_objects","220","CheeseSlicer.jpg","37","1","539"
"3","3","retrieval","old_objects","221","ContactLens.jpg","37","0","964"
"3","3","retrieval","old_objects","222","Bowl_Glass.jpg","36","1","529"
"3","3","retrieval","old_objects","223","Hockey_Puck.jpg","36","1","965"
"3","3","retrieval","old_objects","224","Walkman.jpg","36","1","780"
"3","3","retrieval","new_objects","225","Qtip_Multiple.jpg","37","1","623"
"3","3","retrieval","new_objects","226","Spraybottle.jpg","37","1","983"
"3","3","retrieval","old_objects","227","Window.jpg","36","1","733"
"3","3","retrieval","old_objects","228","GrillRack.jpg","36","1","885"
"3","3","retrieval","old_objects","229","TissueBox.jpg","36","1","659"
"3","3","retrieval","new_objects","230","AlarmSystem.jpg","37","1","741"
"3","3","retrieval","new_objects","231","Teapot.jpg","37","1","715"
"3","3","retrieval","new_objects","232","Distaff.jpg","37","1","607"
"3","3","retrieval","old_objects","233","Toy_Christmastree.jpg","36","1","585"
"3","3","retrieval","new_objects","234","Spoon_Sugar.jpg","37","1","689"
"3","3","retrieval","old_objects","235","SpongeScrubbing.jpg","36","1","570"
"3","3","retrieval","new_objects","236","Bamboo.jpg","37","1","568"
"3","3","retrieval","old_objects","237","Defribrillator.jpg","36","1","883"
"3","3","retrieval","new_objects","238","Bag_Grains.jpg","37","1","713"
"3","3","retrieval","new_objects","239","ShoulderPads.jpg","37","1","887"
"3","3","retrieval","new_objects","240","NailClipper.jpg","37","1","674"
"3","3","retrieval","old_objects","241","Pants_Jeans.jpg","36","1","816"
"3","3","retrieval","new_objects","242","Boat_Ferry.jpg","37","1","850"
"3","3","retrieval","old_objects","243","Bread_Melon.jpg","37","0","1034"
"3","3","retrieval","new_objects","245","Kneepad.jpg","37","1","618"
"3","3","retrieval","new_objects","246","Puzzle_Animal.jpg","37","1","535"
"3","3","retrieval","new_objects","247","Helmet_Motorcycle.jpg","37","1","539"
"3","3","retrieval","old_objects","248","Makeup_Bag.jpg","37","0","912"
"3","3","retrieval","new_objects","249","Pouch_PotPourri.jpg","37","1","921"
"3","3","retrieval","new_objects","250","LetterMail.jpg","37","1","552"
"3","3","retrieval","old_objects","251","Towel.jpg","36","1","611"
"3","3","retrieval","new_objects","252","Box_WoodenClosed.jpg","36","0","791"
"3","3","retrieval","old_objects","253","ShoeLace_Round.jpg","36","1","654"
"3","3","retrieval","new_objects","254","Blanket.jpg","37","1","552"
"3","3","retrieval","old_objects","255","Pottery.jpg","36","1","751"
"3","3","retrieval","new_objects","256","PillBottle_Spilled.jpg","37","1","608"
"3","3","retrieval","old_objects","257","TestTube_Single.jpg","36","1","637"
"3","3","retrieval","old_objects","258","CigarCase.jpg","37","0","466"
"3","3","retrieval","new_objects","259","Crib_Basket.jpg","37","1","645"
"3","3","retrieval","old_objects","260","Giraffe.jpg","36","1","709"
"3","3","retrieval","new_objects","261","Toy_Dog.jpg","37","1","924"
"3","3","retrieval","old_objects","262","Truck_Box.jpg","36","1","670"
"3","3","retrieval","old_objects","263","SmokingPipe.jpg","36","1","820"
"3","3","retrieval","new_objects","264","Keychain_Leather.jpg","37","1","832"
"3","3","retrieval","new_objects","265","Tape_Dispenser.jpg","37","1","730"
"3","3","retrieval","new_objects","266","Scooter.jpg","37","1","610"
"3","3","retrieval","new_objects","267","Toilet.jpg","37","1","800"
"3","3","retrieval","old_objects","268","Seal_animal.jpg","36","1","899"
"3","3","retrieval","new_objects","269","Tire_Hollow.jpg","37","1","842"
"3","3","retrieval","new_objects","270","Tofu.jpg","37","1","781"
"3","3","retrieval","new_objects","271","Bells_Christmas.jpg","37","1","662"
"3","3","retrieval","new_objects","272","Mat_Bamboo.jpg","37","1","652"
"3","3","retrieval","old_objects","273","Chinchilla.jpg","36","1","608"
"3","3","retrieval","new_objects","274","Ball_Squashball.jpg","37","1","607"
"3","3","retrieval","old_objects","275","Gameboy.jpg","36","1","688"
"3","3","retrieval","new_objects","276","Tube_Paint.jpg","37","1","843"
"3","3","retrieval","new_objects","277","Toy_Slinky.jpg","37","1","752"
"3","3","retrieval","old_objects","278","Sandwich_Egg.jpg","36","1","806"
"3","3","retrieval","old_objects","279","Spoon_WoodenLight.jpg","36","1","923"
"3","3","retrieval","old_objects","280","GutterAndDrainPipe.jpg","36","1","715"
"3","3","retrieval","new_objects","281","Box_Apples.jpg","37","1","807"
"3","3","retrieval","old_objects","282","AllTerrain.jpg","37","0","884"
"3","3","retrieval","old_objects","283","EyeDrops.jpg","36","1","781"
"3","3","retrieval","old_objects","284","PylonTraffic.jpg","36","1","690"
"3","3","retrieval","old_objects","285","Pasta_Spaghetti.jpg","36","1","785"
"3","3","retrieval","new_objects","286","GogglesSwim.jpg","37","1","741"
"3","3","retrieval","old_objects","287","IroningBoard.jpg","36","1","837"
"3","3","retrieval","new_objects","288","BicycleGear.jpg","37","1","968"
"3","3","retrieval","new_objects","289","Pickle.jpg","37","1","593"
"3","3","retrieval","new_objects","290","MeterElectric.jpg","37","1","674"
"3","3","retrieval","old_objects","291","RiceCooker.jpg","37","0","741"
"3","3","retrieval","old_objects","292","DoorKnob.jpg","36","1","733"
"3","3","retrieval","new_objects","293","Pepper_Green.jpg","37","1","630"
"3","3","retrieval","new_objects","294","Origami_Ox.jpg","37","1","646"
"3","3","retrieval","old_objects","295","Cake_Birthday.jpg","36","1","629"
"3","3","retrieval","new_objects","296","Stroboscope.jpg","37","1","571"
"3","3","retrieval","old_objects","297","VinylRecord.jpg","37","0","552"
"3","3","retrieval","new_objects","298","Chopsticks.jpg","37","1","857"
"3","3","retrieval","old_objects","299","ComputerKeyboard_F1.jpg","36","1","651"
"3","3","retrieval","old_objects","300","Walker_Silver.jpg","36","1","574"
"3","3","retrieval","old_objects","301","Barometer.jpg","36","1","830"
"3","3","retrieval","new_objects","302","Pencil.jpg","37","1","551"
"3","3","retrieval","old_objects","303","PortaPotty.jpg","36","1","720"
"3","3","retrieval","new_objects","304","Bucket_Champagne.jpg","37","1","870"
"3","3","retrieval","old_objects","306","WaterGun.jpg","36","1","988"
"3","3","retrieval","new_objects","307","Cabinet_Display.jpg","37","1","738"
"3","3","retrieval","new_objects","308","Bottle_CosmeticSpray.jpg","37","1","736"
"3","3","retrieval","old_objects","309","Waffle.jpg","36","1","635"
"3","3","retrieval","new_objects","310","Birdhouse.jpg","37","1","585"
"3","3","retrieval","old_objects","311","Milkshake_Strawberry.jpg","36","1","775"
"3","3","retrieval","new_objects","312","LampPost_ThreeBulbs.jpg","37","1","606"
"3","3","retrieval","new_objects","313","Card_TwoSpade.jpg","37","1","742"
"3","3","retrieval","new_objects","314","TelephoneJack.jpg","37","1","807"
"3","3","retrieval","old_objects","315","PostageStamps.jpg","36","1","614"
"3","3","retrieval","new_objects","316","Fossil.jpg","37","1","590"
"3","3","retrieval","new_objects","317","Nametag.jpg","37","1","710"
"3","3","retrieval","new_objects","318","Makeup_Eyeshadow.jpg","37","1","736"
"3","3","retrieval","new_objects","319","Dog_Bulldog.jpg","37","1","561"
"3","3","retrieval","old_objects","320","BottleOpener.jpg","37","0","704"
"3","3","retrieval","new_objects","321","Napkin_Single.jpg","37","1","599"
"3","3","retrieval","old_objects","322","Lion.jpg","36","1","529"
"3","3","retrieval","new_objects","323","Ring_Plain.jpg","37","1","565"
"3","3","retrieval","old_objects","324","BumperCar.jpg","37","0","567"
"3","3","retrieval","old_objects","325","Bread_Carrot.jpg","36","1","693"
"3","3","retrieval","new_objects","326","SelfieStick.jpg","37","1","614"
"3","3","retrieval","new_objects","327","Toy_Lizard.jpg","37","1","754"
"3","3","retrieval","old_objects","328","RibbonPin.jpg","36","1","671"
"3","3","retrieval","old_objects","329","HairBand.jpg","36","1","666"
"3","3","retrieval","new_objects","330","Pancakes.jpg","37","1","656"
"3","3","retrieval","old_objects","331","DrainPlug.jpg","36","1","751"
"3","3","retrieval","old_objects","332","Clock_Radio.jpg","36","1","776"
"3","3","retrieval","new_objects","333","Flower_Basket.jpg","37","1","510"
"3","3","retrieval","new_objects","334","Flower_Rose.jpg","37","1","623"
"3","3","retrieval","new_objects","335","Clarinet.jpg","37","1","970"
"3","3","retrieval","new_objects","336","Lighter_Black.jpg","37","1","622"
"3","3","retrieval","new_objects","337","Puzzle_Piece.jpg","37","1","618"
"3","3","retrieval","old_objects","338","Headphones.jpg","36","1","737"
"3","3","retrieval","new_objects","339","Fan_Straw.jpg","37","1","576"
"3","3","retrieval","old_objects","340","Carbiner_Ascender.jpg","37","0","644"
"3","3","retrieval","old_objects","341","Tray_Cafeteria.jpg","37","0","527"
"3","3","retrieval","old_objects","342","Tape_Clear.jpg","36","1","792"
"3","3","retrieval","old_objects","343","Clock_Grandfather.jpg","36","1","598"
"3","3","retrieval","old_objects","344","Phone_Public.jpg","36","1","753"
"3","3","retrieval","new_objects","345","Balalaika.jpg","37","1","631"
"3","3","retrieval","new_objects","346","Shoes_Snowboarding.jpg","37","1","523"
"3","3","retrieval","new_objects","347","Clip_Paper.jpg","37","1","568"
"3","3","retrieval","new_objects","348","Nail.jpg","37","1","540"
"3","3","retrieval","old_objects","349","Peppermill.jpg","36","1","717"
"3","3","retrieval","new_objects","350","Wallet_ClosedBrown.jpg","37","1","659"
"3","3","retrieval","new_objects","351","Owl.jpg","37","1","534"
"3","3","retrieval","new_objects","352","Celery.jpg","37","1","487"
"3","3","retrieval","old_objects","353","Jug_GallonWhite.jpg","37","0","772"
"3","3","retrieval","old_objects","354","ChocolateBar_HalfUnwrapped.jpg","36","1","660"
"3","3","retrieval","new_objects","355","NewspaperStack.jpg","37","1","569"
"3","3","demographics_block","gender","1","NewspaperStack.jpg","Female","1","11375"
"3","3","demographics_block","age","1","NewspaperStack.jpg","21","1","11375"
"3","3","demographics_block","education","1","NewspaperStack.jpg","3 years college","1","11375"
"3","3","demographics_block","left_right_handed","2","NewspaperStack.jpg","Right","1","6282"
"3","3","demographics_block","raceoption1","2","NewspaperStack.jpg","0","1","6282"
"3","3","demographics_block","raceoption2","2","NewspaperStack.jpg","","1","6282"
"3","3","demographics_block","raceoption3","2","NewspaperStack.jpg","","1","6282"
"3","3","demographics_block","raceoption4","2","NewspaperStack.jpg","","1","6282"
"3","3","demographics_block","raceoption5","2","NewspaperStack.jpg","","1","6282"
"3","3","demographics_block","raceoption6","2","NewspaperStack.jpg","","1","6282"
"3","3","demographics_block","raceoption7","2","NewspaperStack.jpg","","1","6282"
"3","3","demographics_block","raceoption8","2","NewspaperStack.jpg","","1","6282"
"3","3","demographics_block","raceoption9","2","NewspaperStack.jpg","","1","6282"
"3","3","demographics_block","raceother","2","NewspaperStack.jpg","","1","6282"
"3","3","demographics_block","raceother","2","NewspaperStack.jpg","","1","6282"
"3","3","demographics_block","english_language","2","NewspaperStack.jpg","Yes","1","6282"
"3","3","demographics_block","english_languageother","2","NewspaperStack.jpg","","1","6282"
"3","3","demographics_block","eyesight","3","NewspaperStack.jpg","Yes","1","4387"
"3","3","demographics_block","colorblind","3","NewspaperStack.jpg","No","1","4387"
"3","3","worker_id_block","worker_id_textbox","1","NewspaperStack.jpg","A2QNVAMUHLUVMU","1","6463"
"5","5","encoding","encoding","1","ElasticBand.jpg","2","0","1158"
"5","5","encoding","encoding","2","Tray_Cafeteria.jpg","5","0","1214"
"5","5","encoding","encoding","3","Sword.jpg","7","0","1451"
"5","5","encoding","encoding","4","Horseshoe.jpg","6","0","1012"
"5","5","encoding","encoding","5","Playdoh.jpg","4","0","1038"
"5","5","encoding","encoding","6","Giraffe.jpg","6","0","1059"
"5","5","encoding","encoding","7","Cage_Hamster.jpg","7","0","1276"
"5","5","encoding","encoding","8","Tuxedo.jpg","4","0","1125"
"5","5","encoding","encoding","9","Gameboy.jpg","5","0","755"
"5","5","encoding","encoding","10","Hockey_Puck.jpg","3","0","929"
"5","5","encoding","encoding","11","Cart_Janitor.jpg","6","0","1018"
"5","5","encoding","encoding","12","VinylRecord.jpg","5","0","663"
"5","5","encoding","encoding","13","Mirror_Handheld.jpg","6","0","764"
"5","5","encoding","encoding","14","Booth_Carnival.jpg","4","0","1086"
"5","5","encoding","encoding","15","LicensePlate.jpg","6","0","1420"
"5","5","encoding","encoding","16","Can_Olives.jpg","3","0","1204"
"5","5","encoding","encoding","17","Candy_Lozenge.jpg","2","0","1164"
"5","5","encoding","encoding","18","Harp.jpg","7","0","1373"
"5","5","encoding","encoding","19","BottleOpener.jpg","4","0","1283"
"5","5","encoding","encoding","20","Toy_BearBrownPlushie.jpg","6","0","991"
"5","5","encoding","encoding","21","Toy_RockingHorseBeige.jpg","5","0","818"
"5","5","encoding","encoding","22","PortaPotty.jpg","4","0","959"
"5","5","encoding","encoding","23","CodeDoorLock.jpg","6","0","893"
"5","5","encoding","encoding","24","Telephone_DialAntique.jpg","3","0","621"
"5","5","encoding","encoding","25","AnsweringMachine.jpg","5","0","735"
"5","5","encoding","encoding","26","Chimpanzee.jpg","3","0","661"
"5","5","encoding","encoding","27","Toy_Christmastree.jpg","4","0","827"
"5","5","encoding","encoding","28","ChainRusty.jpg","6","0","1841"
"5","5","encoding","encoding","29","Jug_GallonWhite.jpg","3","0","866"
"5","5","encoding","encoding","30","Bowl_Sugar.jpg","5","0","927"
"5","5","encoding","encoding","31","Statue_Man.jpg","4","0","685"
"5","5","encoding","encoding","32","Cannister_Gas.jpg","6","0","731"
"5","5","encoding","encoding","33","Gecko.jpg","3","0","963"
"5","5","encoding","encoding","34","Walkman.jpg","5","0","953"
"5","5","encoding","encoding","35","Clock_Radio.jpg","4","0","1006"
"5","5","encoding","encoding","36","CashRegister_Antique.jpg","7","0","1316"
"5","5","encoding","encoding","37","Walker_Silver.jpg","2","0","1278"
"5","5","encoding","encoding","38","DoorKnob.jpg","4","0","1195"
"5","5","encoding","encoding","39","Clock_Grandfather.jpg","7","0","1132"
"5","5","encoding","encoding","40","Carbiner_Ascender.jpg","6","0","1366"
"5","5","encoding","encoding","41","OrangeBlood.jpg","4","0","1236"
"5","5","encoding","encoding","42","Bread_Melon.jpg","2","0","1725"
"5","5","encoding","encoding","43","Rock_Mimetite.jpg","6","0","2010"
"5","5","encoding","encoding","44","Bench_Black.jpg","1","0","1450"
"5","5","encoding","encoding","45","Defribrillator.jpg","7","0","964"
"5","5","encoding","encoding","46","Towel.jpg","3","0","1342"
"5","5","encoding","encoding","47","CertificateFramed.jpg","5","0","1307"
"5","5","encoding","encoding","48","Barometer.jpg","7","0","1277"
"5","5","encoding","encoding","49","Bowl_Pasta.jpg","4","0","1114"
"5","5","encoding","encoding","50","Bowl_Cereal.jpg","2","0","1344"
"5","5","encoding","encoding","51","DrainPlug.jpg","4","0","1823"
"5","5","encoding","encoding","52","PostageStamps.jpg","5","0","1365"
"5","5","encoding","encoding","53","Pottery.jpg","4","0","1463"
"5","5","encoding","encoding","54","Truck_Box.jpg","6","0","1421"
"5","5","encoding","encoding","55","CandleSnuffer.jpg","4","0","1279"
"5","5","encoding","encoding","56","Toy_MrPotatoHeadjpg.jpg","5","0","550"
"5","5","encoding","encoding","57","Pants_Firefighter.jpg","6","0","757"
"5","5","encoding","encoding","58","MilkPitcher.jpg","4","0","659"
"5","5","encoding","encoding","59","TissueBox.jpg","5","0","982"
"5","5","encoding","encoding","60","LightBulb_White.jpg","6","0","937"
"5","5","encoding","encoding","62","Jars_PetFood.jpg","6","0","1116"
"5","5","encoding","encoding","63","AllTerrain.jpg","5","0","515"
"5","5","encoding","encoding","64","Phone_Military.jpg","7","0","1714"
"5","5","encoding","encoding","65","RibbonPin.jpg","4","0","861"
"5","5","encoding","encoding","66","Statue_Head.jpg","7","0","2092"
"5","5","encoding","encoding","67","Chinchilla.jpg","4","0","1291"
"5","5","encoding","encoding","68","Jar_JellyBeans.jpg","6","0","921"
"5","5","encoding","encoding","69","DogSled.jpg","5","0","829"
"5","5","encoding","encoding","70","Barbecue_Charcoal.jpg","6","0","838"
"5","5","encoding","encoding","71","Seal_animal.jpg","4","0","1261"
"5","5","encoding","encoding","72","VacuumHead.jpg","6","0","1137"
"5","5","encoding","encoding","73","SculptureMetalFish.jpg","5","0","1467"
"5","5","encoding","encoding","74","Phone_Public.jpg","7","0","1029"
"5","5","encoding","encoding","75","Bread_Carrot.jpg","3","0","1330"
"5","5","encoding","encoding","76","Glass_bottle.jpg","2","0","1142"
"5","5","encoding","encoding","77","Bird_Duck.jpg","5","0","1028"
"5","5","encoding","encoding","78","GutterAndDrainPipe.jpg","3","0","1119"
"5","5","encoding","encoding","79","Milkshake_Strawberry.jpg","4","0","1426"
"5","5","encoding","encoding","80","CigarCase.jpg","6","0","977"
"5","5","encoding","encoding","81","Guitar_Electric.jpg","4","0","848"
"5","5","encoding","encoding","82","Headphones.jpg","3","0","721"
"5","5","encoding","encoding","83","Blueberry.jpg","6","0","884"
"5","5","encoding","encoding","84","Window.jpg","4","0","629"
"5","5","encoding","encoding","85","Cannoli.jpg","3","0","532"
"5","5","encoding","encoding","86","GrillRack.jpg","6","0","807"
"5","5","encoding","encoding","87","PowerDoorPushButton.jpg","4","0","753"
"5","5","encoding","encoding","88","Button.jpg","6","0","776"
"5","5","encoding","encoding","89","Chair_Folding.jpg","3","0","573"
"5","5","encoding","encoding","90","House_Stone.jpg","4","0","704"
"5","5","encoding","encoding","91","ComputerKeyboard_F1.jpg","6","0","623"
"5","5","encoding","encoding","92","Envelope_Letter.jpg","5","0","667"
"5","5","encoding","encoding","93","Peppermill.jpg","7","0","885"
"5","5","encoding","encoding","94","WaterGun.jpg","4","0","752"
"5","5","encoding","encoding","95","Crowbar.jpg","6","0","847"
"5","5","encoding","encoding","96","Bag_Gift.jpg","4","0","841"
"5","5","encoding","encoding","97","Hotdog_Weiner.jpg","0","0","3000"
"5","5","encoding","encoding","98","Cymbals.jpg","6","0","705"
"5","5","encoding","encoding","99","MixingGlass.jpg","1","0","1416"
"5","5","encoding","encoding","100","Tricycle.jpg","4","0","1535"
"5","5","encoding","encoding","101","PowderProtein.jpg","4","0","1358"
"5","5","encoding","encoding","102","Blade_Tablesaw.jpg","5","0","1257"
"5","5","encoding","encoding","103","Tape_Clear.jpg","5","0","1003"
"5","5","encoding","encoding","104","Beaker.jpg","6","0","1837"
"5","5","encoding","encoding","105","IroningBoard.jpg","4","0","1580"
"5","5","encoding","encoding","106","Chipmunk.jpg","6","0","879"
"5","5","encoding","encoding","107","Pajamas.jpg","4","0","934"
"5","5","encoding","encoding","108","Bowl_Glass.jpg","3","0","808"
"5","5","encoding","encoding","109","Toaster_Antique.jpg","7","0","1267"
"5","5","encoding","encoding","110","SnowGlobe.jpg","5","0","1582"
"5","5","encoding","encoding","111","Pyramid.jpg","3","0","1004"
"5","5","encoding","encoding","112","Can_MilkAntique.jpg","4","0","1114"
"5","5","encoding","encoding","113","Sandwich_Egg.jpg","5","0","673"
"5","5","encoding","encoding","114","Bowl_Flour.jpg","6","0","955"
"5","5","encoding","encoding","115","Makeup_Bag.jpg","3","0","834"
"5","5","encoding","encoding","116","NailFiles.jpg","5","0","720"
"5","5","encoding","encoding","117","Lantern_Tea.jpg","6","0","516"
"5","5","encoding","encoding","118","Bag_Diaper.jpg","7","0","858"
"5","5","encoding","encoding","119","ShinPads.jpg","5","0","592"
"5","5","encoding","encoding","120","Syringe_Blunt.jpg","4","0","2047"
"5","5","encoding","encoding","121","Pliers_NeedleNose.jpg","6","0","1219"
"5","5","encoding","encoding","123","Gloves_Bicycle.jpg","7","0","1365"
"5","5","encoding","encoding","124","ChocolateBar_HalfUnwrapped.jpg","4","0","1303"
"5","5","encoding","encoding","125","PylonTraffic.jpg","5","0","894"
"5","5","encoding","encoding","126","Fan_Blades.jpg","4","0","1308"
"5","5","encoding","encoding","127","Case_DVD.jpg","7","0","1042"
"5","5","encoding","encoding","128","Lectern.jpg","5","0","899"
"5","5","encoding","encoding","129","Cake_Birthday.jpg","3","0","1548"
"5","5","encoding","encoding","130","Ghost.jpg","4","0","1077"
"5","5","encoding","encoding","131","ShowerCap.jpg","3","0","1429"
"5","5","encoding","encoding","132","Popcorn.jpg","3","0","1785"
"5","5","encoding","encoding","133","Playard.jpg","4","0","1210"
"5","5","encoding","encoding","134","LightBulb_Blue.jpg","0","0","3000"
"5","5","encoding","encoding","135","Exercise_Machine.jpg","6","0","1056"
"5","5","encoding","encoding","136","Spoon_WoodenLight.jpg","2","0","1492"
"5","5","encoding","encoding","137","RiceCooker.jpg","5","0","946"
"5","5","encoding","encoding","138","Croissant.jpg","4","0","1044"
"5","5","encoding","encoding","139","Hoodie.jpg","4","0","739"
"5","5","encoding","encoding","140","Pasta_Spaghetti.jpg","6","0","737"
"5","5","encoding","encoding","141","Shoes_Pumps.jpg","5","0","752"
"5","5","encoding","encoding","142","EyeDrops.jpg","4","0","863"
"5","5","encoding","encoding","143","Lion.jpg","6","0","1210"
"5","5","encoding","encoding","144","Maraca.jpg","7","0","1245"
"5","5","encoding","encoding","145","Waffle.jpg","5","0","799"
"5","5","encoding","encoding","146","ColoringSet.jpg","4","0","970"
"5","5","encoding","encoding","147","Wallet_ClosedBlack.jpg","2","0","1362"
"5","5","encoding","encoding","148","Briefcase_Silver.jpg","4","0","1020"
"5","5","encoding","encoding","149","Skirt_Long.jpg","2","0","1242"
"5","5","encoding","encoding","150","MoneyBill50.jpg","5","0","855"
"5","5","encoding","encoding","151","JukeboxAntique.jpg","7","0","935"
"5","5","encoding","encoding","152","Statue_ManHorse.jpg","7","0","1705"
"5","5","encoding","encoding","153","Box_Notepaper.jpg","3","0","1292"
"5","5","encoding","encoding","154","Swing_Child.jpg","4","0","1182"
"5","5","encoding","encoding","155","Bag_Garbage.jpg","1","0","1757"
"5","5","encoding","encoding","156","ShoeLace_Round.jpg","3","0","1359"
"5","5","encoding","encoding","157","ComputerKey_Escape.jpg","2","0","1181"
"5","5","encoding","encoding","158","HairBand.jpg","3","0","1248"
"5","5","encoding","encoding","159","Handbag.jpg","4","0","790"
"5","5","encoding","encoding","160","Bird_Falcon.jpg","5","0","965"
"5","5","encoding","encoding","161","Kebab_Meat.jpg","6","0","1571"
"5","5","encoding","encoding","162","BicyclePedal.jpg","4","0","1081"
"5","5","encoding","encoding","163","SpongeScrubbing.jpg","3","0","936"
"5","5","encoding","encoding","164","Case_CD.jpg","2","0","1437"
"5","5","encoding","encoding","165","SmokingPipe.jpg","4","0","921"
"5","5","encoding","encoding","166","Pants_Jeans.jpg","5","0","1088"
"5","5","encoding","encoding","167","Chair_High.jpg","4","0","946"
"5","5","encoding","encoding","168","Gun_Glue.jpg","6","0","1085"
"5","5","encoding","encoding","169","BumperCar.jpg","5","0","1248"
"5","5","encoding","encoding","170","Speakers_Theatre.jpg","4","0","886"
"5","5","encoding","encoding","171","Hat_Explorer.jpg","3","0","1589"
"5","5","encoding","encoding","172","Torpedo.jpg","5","0","1868"
"5","5","encoding","encoding","173","CarLighter.jpg","7","0","1279"
"5","5","encoding","encoding","174","Hoverboard.jpg","4","0","1097"
"5","5","encoding","encoding","175","TestTube_Single.jpg","6","0","1116"
"5","5","encoding","encoding","176","ContactLens.jpg","2","0","1910"
"5","5","encoding","encoding","177","Hat_Beanie.jpg","4","0","853"
"5","5","retrieval","old_objects","1","Tricycle.jpg","37","0","592"
"5","5","retrieval","new_objects","2","Toy_HockeyStick.jpg","36","0","450"
"5","5","retrieval","old_objects","3","Gameboy.jpg","36","1","642"
"5","5","retrieval","new_objects","4","Pouch_PotPourri.jpg","36","0","482"
"5","5","retrieval","old_objects","5","EyeDrops.jpg","37","0","257"
"5","5","retrieval","new_objects","6","Dog_Bulldog.jpg","36","0","234"
"5","5","retrieval","old_objects","7","Fan_Blades.jpg","36","1","316"
"5","5","retrieval","new_objects","8","Spraybottle.jpg","37","1","178"
"5","5","retrieval","old_objects","9","Blueberry.jpg","36","1","135"
"5","5","retrieval","old_objects","10","SmokingPipe.jpg","36","1","165"
"5","5","retrieval","old_objects","11","VinylRecord.jpg","37","0","35"
"5","5","retrieval","new_objects","12","CameoPortrait.jpg","37","1","252"
"5","5","retrieval","new_objects","13","FloppyDisk.jpg","36","0","6"
"5","5","retrieval","old_objects","14","Walkman.jpg","36","1","257"
"5","5","retrieval","old_objects","15","Bag_Diaper.jpg","36","1","330"
"5","5","retrieval","new_objects","16","RollerCoaster.jpg","37","1","527"
"5","5","retrieval","old_objects","17","Hoverboard.jpg","36","1","245"
"5","5","retrieval","new_objects","18","ShoeLace_Flat.jpg","36","0","526"
"5","5","retrieval","new_objects","19","Flower_Rose.jpg","37","1","260"
"5","5","retrieval","old_objects","20","Box_Notepaper.jpg","37","0","397"
"5","5","retrieval","old_objects","21","MilkPitcher.jpg","36","1","440"
"5","5","retrieval","new_objects","22","MovieSlate.jpg","37","1","209"
"5","5","retrieval","new_objects","23","Computer_ExpansionCard.jpg","36","0","388"
"5","5","retrieval","new_objects","24","Celery.jpg","36","0","495"
"5","5","retrieval","new_objects","25","Clarinet.jpg","37","1","302"
"5","5","retrieval","old_objects","26","Gecko.jpg","36","1","310"
"5","5","retrieval","new_objects","27","Ball_Golf.jpg","36","0","284"
"5","5","retrieval","new_objects","28","Bottle_CosmeticSpray.jpg","37","1","284"
"5","5","retrieval","new_objects","29","Toilet.jpg","37","1","387"
"5","5","retrieval","new_objects","30","Box_Apples.jpg","37","1","566"
"5","5","retrieval","new_objects","31","Box_WoodCrate.jpg","37","1","290"
"5","5","retrieval","new_objects","32","Puzzle_Animal.jpg","36","0","249"
"5","5","retrieval","old_objects","33","Crowbar.jpg","37","0","210"
"5","5","retrieval","new_objects","34","Stroboscope.jpg","36","0","140"
"5","5","retrieval","new_objects","35","FlashlightHeadBand.jpg","36","0","394"
"5","5","retrieval","new_objects","36","CheeseSlicer.jpg","37","1","150"
"5","5","retrieval","old_objects","37","Defribrillator.jpg","37","0","155"
"5","5","retrieval","new_objects","38","Steamroller.jpg","36","0","288"
"5","5","retrieval","old_objects","39","Hockey_Puck.jpg","37","0","120"
"5","5","retrieval","old_objects","40","Chair_Folding.jpg","37","0","262"
"5","5","retrieval","old_objects","41","Tuxedo.jpg","36","1","167"
"5","5","retrieval","new_objects","42","DogTreat.jpg","36","0","356"
"5","5","retrieval","new_objects","43","Pencil.jpg","37","1","265"
"5","5","retrieval","new_objects","44","Paddle_Ball.jpg","36","0","258"
"5","5","retrieval","old_objects","45","Pyramid.jpg","36","1","403"
"5","5","retrieval","old_objects","46","ShinPads.jpg","37","0","374"
"5","5","retrieval","old_objects","47","ColoringSet.jpg","37","0","346"
"5","5","retrieval","old_objects","48","Bowl_Glass.jpg","36","1","183"
"5","5","retrieval","old_objects","49","GutterAndDrainPipe.jpg","37","0","212"
"5","5","retrieval","old_objects","50","Guitar_Electric.jpg","37","0","287"
"5","5","retrieval","old_objects","51","Toaster_Antique.jpg","37","0","399"
"5","5","retrieval","old_objects","52","PowerDoorPushButton.jpg","36","1","274"
"5","5","retrieval","new_objects","53","Pickle.jpg","36","0","266"
"5","5","retrieval","new_objects","54","Beater_Electric.jpg","36","0","298"
"5","5","retrieval","new_objects","55","Cabinet_Display.jpg","37","1","34"
"5","5","retrieval","new_objects","56","Napkin_Single.jpg","37","1","164"
"5","5","retrieval","new_objects","57","White_Screen.jpg","37","1","296"
"5","5","retrieval","old_objects","58","RiceCooker.jpg","36","1","1016"
"5","5","retrieval","old_objects","59","CertificateFramed.jpg","37","0","273"
"5","5","retrieval","new_objects","60","Wheelbarrow_Green.jpg","37","1","369"
"5","5","retrieval","old_objects","62","SculptureMetalFish.jpg","36","1","540"
"5","5","retrieval","old_objects","63","Bench_Black.jpg","37","0","41"
"5","5","retrieval","new_objects","64","Otoscope.jpg","37","1","163"
"5","5","retrieval","old_objects","65","Swing_Child.jpg","36","1","80"
"5","5","retrieval","new_objects","66","Nail.jpg","36","0","249"
"5","5","retrieval","new_objects","67","Toy_Car.jpg","37","1","385"
"5","5","retrieval","new_objects","68","Pancakes.jpg","36","0","277"
"5","5","retrieval","old_objects","69","Can_MilkAntique.jpg","36","1","261"
"5","5","retrieval","old_objects","70","Window.jpg","36","1","358"
"5","5","retrieval","old_objects","71","Hoodie.jpg","37","0","258"
"5","5","retrieval","old_objects","72","Chair_High.jpg","37","0","363"
"5","5","retrieval","new_objects","73","Banana.jpg","36","0","424"
"5","5","retrieval","old_objects","74","Can_Olives.jpg","37","0","394"
"5","5","retrieval","old_objects","75","BottleOpener.jpg","37","0","421"
"5","5","retrieval","new_objects","76","ChessPiece_Bishop.jpg","36","0","311"
"5","5","retrieval","old_objects","77","SnowGlobe.jpg","36","1","309"
"5","5","retrieval","old_objects","78","Clock_Grandfather.jpg","37","0","372"
"5","5","retrieval","old_objects","79","TissueBox.jpg","36","1","288"
"5","5","retrieval","old_objects","80","Giraffe.jpg","36","1","159"
"5","5","retrieval","old_objects","81","Hotdog_Weiner.jpg","37","0","420"
"5","5","retrieval","old_objects","82","LightBulb_Blue.jpg","37","0","246"
"5","5","retrieval","new_objects","83","NailClipper.jpg","36","0","271"
"5","5","retrieval","old_objects","84","Phone_Public.jpg","37","0","239"
"5","5","retrieval","old_objects","85","Gun_Glue.jpg","36","1","265"
"5","5","retrieval","old_objects","86","Barbecue_Charcoal.jpg","36","1","258"
"5","5","retrieval","old_objects","87","Speakers_Theatre.jpg","37","0","163"
"5","5","retrieval","new_objects","88","Distaff.jpg","37","1","200"
"5","5","retrieval","old_objects","89","Maraca.jpg","36","1","156"
"5","5","retrieval","new_objects","90","HandRake.jpg","36","0","129"
"5","5","retrieval","old_objects","91","Milkshake_Strawberry.jpg","36","1","351"
"5","5","retrieval","old_objects","92","PortaPotty.jpg","37","0","44"
"5","5","retrieval","new_objects","93","Container_Tupperware.jpg","37","1","253"
"5","5","retrieval","new_objects","94","Gun_Revolver.jpg","37","1","326"
"5","5","retrieval","old_objects","95","VacuumHead.jpg","36","1","99"
"5","5","retrieval","new_objects","96","Boat_Colourful.jpg","36","0","235"
"5","5","retrieval","old_objects","97","Phone_Military.jpg","37","0","164"
"5","5","retrieval","old_objects","98","Cart_Janitor.jpg","36","1","160"
"5","5","retrieval","new_objects","99","Qtip_Multiple.jpg","36","0","206"
"5","5","retrieval","new_objects","100","PillBottle_Spilled.jpg","37","1","1"
"5","5","retrieval","new_objects","101","LampPost_ThreeBulbs.jpg","37","1","300"
"5","5","retrieval","old_objects","102","SpongeScrubbing.jpg","36","1","228"
"5","5","retrieval","old_objects","103","DoorKnob.jpg","36","1","294"
"5","5","retrieval","new_objects","104","GogglesSwim.jpg","37","1","197"
"5","5","retrieval","new_objects","105","LetterMail.jpg","37","1","377"
"5","5","retrieval","old_objects","106","Seal_animal.jpg","36","1","69"
"5","5","retrieval","new_objects","107","RamAnimal.jpg","36","0","334"
"5","5","retrieval","old_objects","108","ElasticBand.jpg","36","1","276"
"5","5","retrieval","old_objects","109","WaterGun.jpg","36","1","188"
"5","5","retrieval","old_objects","110","Cage_Hamster.jpg","0","0","2000"
"5","5","retrieval","new_objects","111","Wire_Soldering.jpg","36","0","326"
"5","5","retrieval","old_objects","112","Briefcase_Silver.jpg","36","1","212"
"5","5","retrieval","old_objects","113","ContactLens.jpg","37","0","175"
"5","5","retrieval","new_objects","114","Earth_Planet.jpg","37","1","251"
"5","5","retrieval","old_objects","115","Exercise_Machine.jpg","37","0","445"
"5","5","retrieval","new_objects","116","Flower_Orchid.jpg","37","1","238"
"5","5","retrieval","old_objects","117","AnsweringMachine.jpg","36","1","96"
"5","5","retrieval","new_objects","118","Flute_Wooden.jpg","36","0","64"
"5","5","retrieval","new_objects","119","Camera_Digital.jpg","36","0","26"
"5","5","retrieval","new_objects","120","Blanket.jpg","37","1","1780"
"5","5","retrieval","new_objects","121","Wallet_ClosedBrown.jpg","37","1","621"
"5","5","retrieval","new_objects","123","DarthVader.jpg","36","0","231"
"5","5","retrieval","old_objects","124","CandleSnuffer.jpg","37","0","113"
"5","5","retrieval","old_objects","125","Button.jpg","37","0","200"
"5","5","retrieval","old_objects","126","MixingGlass.jpg","37","0","212"
"5","5","retrieval","old_objects","127","Bread_Carrot.jpg","36","1","47"
"5","5","retrieval","new_objects","128","Igloo.jpg","36","0","73"
"5","5","retrieval","new_objects","129","RecorderInstrument.jpg","36","0","138"
"5","5","retrieval","new_objects","130","Puzzle_Piece.jpg","36","0","72"
"5","5","retrieval","old_objects","131","Walker_Silver.jpg","37","0","112"
"5","5","retrieval","new_objects","132","Television.jpg","37","1","136"
"5","5","retrieval","new_objects","133","Boat_Ferry.jpg","37","1","229"
"5","5","retrieval","old_objects","134","Bird_Falcon.jpg","36","1","64"
"5","5","retrieval","old_objects","135","BumperCar.jpg","36","1","81"
"5","5","retrieval","old_objects","136","Cymbals.jpg","36","1","210"
"5","5","retrieval","old_objects","137","Jug_GallonWhite.jpg","37","0","125"
"5","5","retrieval","old_objects","138","Makeup_Bag.jpg","37","0","67"
"5","5","retrieval","old_objects","139","OrangeBlood.jpg","37","0","260"
"5","5","retrieval","old_objects","140","LicensePlate.jpg","0","0","2000"
"5","5","retrieval","old_objects","141","PowderProtein.jpg","36","1","533"
"5","5","retrieval","old_objects","142","JukeboxAntique.jpg","36","1","282"
"5","5","retrieval","old_objects","143","Shoes_Pumps.jpg","37","0","58"
"5","5","retrieval","old_objects","144","Case_CD.jpg","37","0","28"
"5","5","retrieval","old_objects","145","HairBand.jpg","37","0","143"
"5","5","retrieval","old_objects","146","Syringe_Blunt.jpg","36","1","28"
"5","5","retrieval","new_objects","147","Seeder.jpg","36","0","159"
"5","5","retrieval","new_objects","148","Spoon_Sugar.jpg","36","0","108"
"5","5","retrieval","old_objects","149","ChocolateBar_HalfUnwrapped.jpg","37","0","451"
"5","5","retrieval","new_objects","150","Lacrosse_Stick.jpg","37","1","133"
"5","5","retrieval","new_objects","151","Toy_Dog.jpg","36","0","59"
"5","5","retrieval","new_objects","152","Balalaika.jpg","37","1","92"
"5","5","retrieval","new_objects","153","Chopsticks.jpg","37","1","140"
"5","5","retrieval","new_objects","154","Dolphine.jpg","36","0","97"
"5","5","retrieval","old_objects","155","Lion.jpg","36","1","129"
"5","5","retrieval","old_objects","156","Bowl_Pasta.jpg","36","1","72"
"5","5","retrieval","new_objects","157","Sand.jpg","36","0","1800"
"5","5","retrieval","new_objects","158","Shoe_Pink.jpg","37","1","832"
"5","5","retrieval","new_objects","159","SkullDeer.jpg","36","0","281"
"5","5","retrieval","new_objects","160","SetSquare.jpg","36","0","233"
"5","5","retrieval","new_objects","161","Lighter_Black.jpg","37","1","83"
"5","5","retrieval","new_objects","162","Frame_Oval.jpg","37","1","84"
"5","5","retrieval","old_objects","163","LightBulb_White.jpg","36","1","60"
"5","5","retrieval","new_objects","164","Toy_Rooster.jpg","36","0","118"
"5","5","retrieval","new_objects","165","Tag_Price.jpg","36","0","164"
"5","5","retrieval","new_objects","166","Tofu.jpg","37","1","73"
"5","5","retrieval","old_objects","167","Rock_Mimetite.jpg","37","0","202"
"5","5","retrieval","old_objects","168","Pajamas.jpg","36","1","269"
"5","5","retrieval","new_objects","169","TelephoneJack.jpg","36","0","6"
"5","5","retrieval","old_objects","170","Lantern_Tea.jpg","37","0","186"
"5","5","retrieval","new_objects","171","Pot_Crock.jpg","37","1","318"
"5","5","retrieval","old_objects","172","Harp.jpg","37","0","452"
"5","5","retrieval","new_objects","173","Kneepad.jpg","36","0","317"
"5","5","retrieval","new_objects","174","IceCreamCone.jpg","36","0","259"
"5","5","retrieval","new_objects","175","Ball_Disco.jpg","37","1","420"
"5","5","retrieval","new_objects","176","Bucket_Champagne.jpg","36","0","61"
"5","5","retrieval","new_objects","177","Toy_BearBlackPlastic.jpg","37","1","255"
"5","5","retrieval","old_objects","178","Chinchilla.jpg","37","0","184"
"5","5","retrieval","new_objects","179","Bamboo.jpg","36","0","147"
"5","5","retrieval","old_objects","180","House_Stone.jpg","36","1","73"
"5","5","retrieval","new_objects","181","Ball_Squashball.jpg","37","1","354"
"5","5","retrieval","old_objects","182","Pants_Jeans.jpg","37","0","294"
"5","5","retrieval","old_objects","184","Croissant.jpg","36","1","264"
"5","5","retrieval","old_objects","185","Spoon_WoodenLight.jpg","37","0","233"
"5","5","retrieval","old_objects","186","Handbag.jpg","37","0","204"
"5","5","retrieval","new_objects","187","ElectricSwitchboard.jpg","36","0","198"
"5","5","retrieval","old_objects","188","Pants_Firefighter.jpg","36","1","210"
"5","5","retrieval","old_objects","189","Cannoli.jpg","37","0","165"
"5","5","retrieval","old_objects","190","Envelope_Letter.jpg","37","0","410"
"5","5","retrieval","old_objects","191","Kebab_Meat.jpg","36","1","85"
"5","5","retrieval","old_objects","192","AllTerrain.jpg","37","0","133"
"5","5","retrieval","new_objects","193","Chair_MedicalToilet.jpg","36","0","356"
"5","5","retrieval","old_objects","194","Pottery.jpg","37","0","177"
"5","5","retrieval","new_objects","195","Keychain_Leather.jpg","37","1","197"
"5","5","retrieval","old_objects","196","Candy_Lozenge.jpg","36","1","121"
"5","5","retrieval","new_objects","197","Bells_Christmas.jpg","36","0","263"
"5","5","retrieval","old_objects","198","Statue_Man.jpg","37","0","8"
"5","5","retrieval","new_objects","199","Box_WoodenClosed.jpg","36","0","84"
"5","5","retrieval","new_objects","200","Clip_Paper.jpg","36","0","276"
"5","5","retrieval","new_objects","201","Pepper_Green.jpg","37","1","204"
"5","5","retrieval","new_objects","202","Booties_Blue.jpg","37","1","183"
"5","5","retrieval","old_objects","203","Beaker.jpg","36","1","180"
"5","5","retrieval","new_objects","204","Door_Blue.jpg","37","1","48"
"5","5","retrieval","old_objects","205","Cake_Birthday.jpg","37","0","130"
"5","5","retrieval","old_objects","206","DrainPlug.jpg","36","1","129"
"5","5","retrieval","old_objects","207","Chipmunk.jpg","36","1","167"
"5","5","retrieval","new_objects","208","Weathervane.jpg","36","0","228"
"5","5","retrieval","new_objects","209","Card_TwoSpade.jpg","36","0","254"
"5","5","retrieval","new_objects","210","Radish.jpg","37","1","135"
"5","5","retrieval","old_objects","211","RibbonPin.jpg","37","0","109"
"5","5","retrieval","new_objects","212","Hourglass.jpg","37","1","277"
"5","5","retrieval","old_objects","213","Pliers_NeedleNose.jpg","36","1","61"
"5","5","retrieval","new_objects","214","Steeple.jpg","36","0","174"
"5","5","retrieval","new_objects","215","Cage_Bird.jpg","36","0","162"
"5","5","retrieval","new_objects","216","Machine_EKG.jpg","37","1","528"
"5","5","retrieval","old_objects","217","Bowl_Sugar.jpg","36","1","53"
"5","5","retrieval","new_objects","218","InflatableSleepingBag.jpg","36","0","558"
"5","5","retrieval","new_objects","219","Compact_Mirror.jpg","37","1","75"
"5","5","retrieval","new_objects","220","Canteen.jpg","36","0","1563"
"5","5","retrieval","old_objects","221","Statue_Head.jpg","36","1","517"
"5","5","retrieval","old_objects","222","Truck_Box.jpg","37","0","523"
"5","5","retrieval","new_objects","223","Fish_Swordfish.jpg","36","0","529"
"5","5","retrieval","new_objects","224","SiloGrain.jpg","37","1","246"
"5","5","retrieval","new_objects","225","FuseBox.jpg","36","0","328"
"5","5","retrieval","old_objects","226","Sandwich_Egg.jpg","36","1","382"
"5","5","retrieval","old_objects","227","ChainRusty.jpg","37","0","242"
"5","5","retrieval","new_objects","228","Candy_Toffee.jpg","36","0","179"
"5","5","retrieval","old_objects","229","Waffle.jpg","36","1","280"
"5","5","retrieval","old_objects","230","Towel.jpg","36","1","312"
"5","5","retrieval","old_objects","231","Toy_BearBrownPlushie.jpg","36","1","223"
"5","5","retrieval","old_objects","232","ComputerKey_Escape.jpg","37","0","121"
"5","5","retrieval","new_objects","233","Shoes_Snowboarding.jpg","36","0","104"
"5","5","retrieval","new_objects","234","Umbrella_Retractable.jpg","36","0","239"
"5","5","retrieval","new_objects","235","DrinkShaker.jpg","36","0","872"
"5","5","retrieval","new_objects","236","Bird_Tern.jpg","36","0","367"
"5","5","retrieval","old_objects","237","Cannister_Gas.jpg","36","1","316"
"5","5","retrieval","old_objects","238","Headphones.jpg","37","0","314"
"5","5","retrieval","new_objects","239","Fan_Straw.jpg","37","1","201"
"5","5","retrieval","new_objects","240","Comb_1.jpg","36","0","132"
"5","5","retrieval","new_objects","241","Tube_Paint.jpg","36","0","282"
"5","5","retrieval","new_objects","242","Tape_Dispenser.jpg","36","0","266"
"5","5","retrieval","new_objects","243","Teapot.jpg","37","1","98"
"5","5","retrieval","new_objects","245","Birdhouse.jpg","36","0","270"
"5","5","retrieval","new_objects","246","Speaker_OnStand.jpg","36","0","222"
"5","5","retrieval","new_objects","247","Crib_Basket.jpg","37","1","217"
"5","5","retrieval","new_objects","248","Decoration_ChristmasWhite.jpg","37","1","116"
"5","5","retrieval","new_objects","249","Tire_Hollow.jpg","36","0","179"
"5","5","retrieval","new_objects","250","Owl.jpg","36","0","47"
"5","5","retrieval","new_objects","251","ReindeerHeadband.jpg","36","0","57"
"5","5","retrieval","old_objects","252","Playdoh.jpg","37","0","667"
"5","5","retrieval","old_objects","253","PostageStamps.jpg","36","1","554"
"5","5","retrieval","old_objects","254","Bird_Duck.jpg","36","1","287"
"5","5","retrieval","new_objects","255","Mat_Bamboo.jpg","36","0","183"
"5","5","retrieval","new_objects","256","Noisemaker.jpg","37","1","35"
"5","5","retrieval","new_objects","257","Sandcastle.jpg","37","1","157"
"5","5","retrieval","old_objects","258","Toy_MrPotatoHeadjpg.jpg","37","0","26"
"5","5","retrieval","new_objects","259","Toy_Slinky.jpg","36","0","29"
"5","5","retrieval","new_objects","260","AlarmSystem.jpg","36","0","79"
"5","5","retrieval","new_objects","261","Cord_usb.jpg","36","0","1640"
"5","5","retrieval","old_objects","262","Telephone_DialAntique.jpg","36","1","150"
"5","5","retrieval","new_objects","263","Shed.jpg","36","0","236"
"5","5","retrieval","new_objects","264","Stroller.jpg","37","1","101"
"5","5","retrieval","new_objects","265","Buffalo.jpg","37","1","189"
"5","5","retrieval","new_objects","266","Airplane_Commercial.jpg","36","0","72"
"5","5","retrieval","old_objects","267","Bowl_Flour.jpg","36","1","73"
"5","5","retrieval","old_objects","268","Bag_Gift.jpg","37","0","282"
"5","5","retrieval","old_objects","269","Bowl_Cereal.jpg","37","0","314"
"5","5","retrieval","old_objects","270","Glass_bottle.jpg","37","0","257"
"5","5","retrieval","old_objects","271","Hat_Beanie.jpg","36","1","145"
"5","5","retrieval","new_objects","272","Stapler_Regular.jpg","36","0","287"
"5","5","retrieval","new_objects","273","Helmet_Soldier.jpg","36","0","263"
"5","5","retrieval","new_objects","274","JumpingJack.jpg","36","0","351"
"5","5","retrieval","new_objects","275","Chair_BeanBag.jpg","37","1","35"
"5","5","retrieval","old_objects","276","Jars_PetFood.jpg","37","0","221"
"5","5","retrieval","old_objects","277","Hat_Explorer.jpg","36","1","0"
"5","5","retrieval","old_objects","278","MoneyBill50.jpg","36","1","492"
"5","5","retrieval","old_objects","279","Mirror_Handheld.jpg","37","0","267"
"5","5","retrieval","new_objects","280","Boombox.jpg","36","0","91"
"5","5","retrieval","new_objects","281","Bird_Budgie.jpg","36","0","267"
"5","5","retrieval","old_objects","282","Sword.jpg","36","1","420"
"5","5","retrieval","new_objects","283","Makeup_Eyeshadow.jpg","36","0","462"
"5","5","retrieval","old_objects","284","Tray_Cafeteria.jpg","37","0","38"
"5","5","retrieval","old_objects","285","Toy_Christmastree.jpg","36","1","256"
"5","5","retrieval","new_objects","286","Dice.jpg","37","1","225"
"5","5","retrieval","old_objects","287","Bag_Garbage.jpg","37","0","27"
"5","5","retrieval","new_objects","288","Bag_Grains.jpg","36","0","94"
"5","5","retrieval","new_objects","289","ShoulderPads.jpg","37","1","150"
"5","5","retrieval","new_objects","290","Scooter.jpg","37","1","459"
"5","5","retrieval","new_objects","291","Box_Jewellery.jpg","37","1","411"
"5","5","retrieval","old_objects","292","Jar_JellyBeans.jpg","36","1","238"
"5","5","retrieval","old_objects","293","Ghost.jpg","36","1","336"
"5","5","retrieval","new_objects","294","Helmet_Motorcycle.jpg","36","0","134"
"5","5","retrieval","old_objects","295","IroningBoard.jpg","37","0","180"
"5","5","retrieval","old_objects","296","ShoeLace_Round.jpg","37","0","529"
"5","5","retrieval","old_objects","297","CigarCase.jpg","36","1","270"
"5","5","retrieval","new_objects","298","Nametag.jpg","37","1","70"
"5","5","retrieval","new_objects","299","Dynamite.jpg","36","0","343"
"5","5","retrieval","new_objects","300","PassionFruit.jpg","36","0","244"
"5","5","retrieval","old_objects","301","Gloves_Bicycle.jpg","36","1","374"
"5","5","retrieval","old_objects","302","Torpedo.jpg","37","0","202"
"5","5","retrieval","old_objects","303","Tape_Clear.jpg","37","0","381"
"5","5","retrieval","old_objects","304","Peppermill.jpg","36","1","329"
"5","5","retrieval","new_objects","306","Lock_Door.jpg","37","1","299"
"5","5","retrieval","old_objects","307","Lectern.jpg","36","1","83"
"5","5","retrieval","old_objects","308","GrillRack.jpg","36","1","259"
"5","5","retrieval","old_objects","309","Skirt_Long.jpg","36","1","252"
"5","5","retrieval","old_objects","310","Barometer.jpg","36","1","326"
"5","5","retrieval","old_objects","311","Booth_Carnival.jpg","37","0","156"
"5","5","retrieval","new_objects","312","MeterElectric.jpg","37","1","177"
"5","5","retrieval","new_objects","313","Spoons_Musical.jpg","36","0","645"
"5","5","retrieval","new_objects","314","DoorHandle.jpg","36","0","342"
"5","5","retrieval","old_objects","315","Toy_RockingHorseBeige.jpg","36","1","315"
"5","5","retrieval","new_objects","316","CompassCardinal.jpg","36","0","521"
"5","5","retrieval","old_objects","317","Pasta_Spaghetti.jpg","36","1","519"
"5","5","retrieval","old_objects","318","TestTube_Single.jpg","36","1","486"
"5","5","retrieval","new_objects","319","WaterCooler.jpg","37","1","301"
"5","5","retrieval","new_objects","320","Cracker_Saltine.jpg","36","0","196"
"5","5","retrieval","old_objects","321","CarLighter.jpg","36","1","776"
"5","5","retrieval","new_objects","322","BicycleGear.jpg","36","0","283"
"5","5","retrieval","old_objects","323","Popcorn.jpg","37","0","259"
"5","5","retrieval","old_objects","324","CashRegister_Antique.jpg","37","0","532"
"5","5","retrieval","new_objects","325","Car_Buggy.jpg","36","0","201"
"5","5","retrieval","new_objects","326","Headset.jpg","36","0","157"
"5","5","retrieval","new_objects","327","NewspaperStack.jpg","37","1","18"
"5","5","retrieval","old_objects","328","Blade_Tablesaw.jpg","37","0","1318"
"5","5","retrieval","old_objects","329","Wallet_ClosedBlack.jpg","36","1","930"
"5","5","retrieval","old_objects","330","PylonTraffic.jpg","36","1","415"
"5","5","retrieval","new_objects","331","Grenade.jpg","37","1","1201"
"5","5","retrieval","new_objects","332","PaintCan.jpg","36","0","34"
"5","5","retrieval","old_objects","333","Statue_ManHorse.jpg","36","1","245"
"5","5","retrieval","old_objects","334","Case_DVD.jpg","36","1","231"
"5","5","retrieval","new_objects","335","Wreath.jpg","37","1","73"
"5","5","retrieval","old_objects","336","CodeDoorLock.jpg","36","1","146"
"5","5","retrieval","old_objects","337","Bread_Melon.jpg","36","1","95"
"5","5","retrieval","old_objects","338","NailFiles.jpg","37","0","1007"
"5","5","retrieval","new_objects","339","Flower_Basket.jpg","36","0","136"
"5","5","retrieval","old_objects","340","Carbiner_Ascender.jpg","36","1","318"
"5","5","retrieval","old_objects","341","Chimpanzee.jpg","37","0","61"
"5","5","retrieval","new_objects","342","Origami_Ox.jpg","36","0","942"
"5","5","retrieval","new_objects","343","Ring_Plain.jpg","36","0","322"
"5","5","retrieval","old_objects","344","ShowerCap.jpg","36","1","313"
"5","5","retrieval","old_objects","345","Clock_Radio.jpg","37","0","176"
"5","5","retrieval","new_objects","346","Fossil.jpg","37","1","156"
"5","5","retrieval","old_objects","347","Horseshoe.jpg","36","1","105"
"5","5","retrieval","new_objects","348","BoogieBoard.jpg","36","0","96"
"5","5","retrieval","old_objects","349","BicyclePedal.jpg","37","0","49"
"5","5","retrieval","old_objects","350","ComputerKeyboard_F1.jpg","37","0","34"
"5","5","retrieval","new_objects","351","SelfieStick.jpg","36","0","12"
"5","5","retrieval","old_objects","352","DogSled.jpg","37","0","64"
"5","5","retrieval","old_objects","353","Playard.jpg","36","1","257"
"5","5","retrieval","new_objects","354","Mirror_Dental.jpg","37","1","306"
"5","5","retrieval","new_objects","355","Toy_Lizard.jpg","0","0","2000"
"5","5","demographics_block","gender","1","Toy_Lizard.jpg","male","1","26149"
"5","5","demographics_block","age","1","Toy_Lizard.jpg","27","1","26149"
"5","5","demographics_block","education","1","Toy_Lizard.jpg","18","1","26149"
"5","5","demographics_block","left_right_handed","2","Toy_Lizard.jpg","Right","1","12642"
"5","5","demographics_block","raceoption1","2","Toy_Lizard.jpg","","1","12642"
"5","5","demographics_block","raceoption2","2","Toy_Lizard.jpg","","1","12642"
"5","5","demographics_block","raceoption3","2","Toy_Lizard.jpg","","1","12642"
"5","5","demographics_block","raceoption4","2","Toy_Lizard.jpg","","1","12642"
"5","5","demographics_block","raceoption5","2","Toy_Lizard.jpg","","1","12642"
"5","5","demographics_block","raceoption6","2","Toy_Lizard.jpg","5","1","12642"
"5","5","demographics_block","raceoption7","2","Toy_Lizard.jpg","","1","12642"
"5","5","demographics_block","raceoption8","2","Toy_Lizard.jpg","","1","12642"
"5","5","demographics_block","raceoption9","2","Toy_Lizard.jpg","","1","12642"
"5","5","demographics_block","raceother","2","Toy_Lizard.jpg","","1","12642"
"5","5","demographics_block","raceother","2","Toy_Lizard.jpg","","1","12642"
"5","5","demographics_block","english_language","2","Toy_Lizard.jpg","Yes","1","12642"
"5","5","demographics_block","english_languageother","2","Toy_Lizard.jpg","","1","12642"
"5","5","demographics_block","eyesight","3","Toy_Lizard.jpg","Yes","1","5470"
"5","5","demographics_block","colorblind","3","Toy_Lizard.jpg","No","1","5470"
"5","5","worker_id_block","worker_id_textbox","1","Toy_Lizard.jpg","A36VE0W154IHO7","1","162892"
"4","4","encoding","encoding","1","CodeDoorLock.jpg","3","0","1994"
"4","4","encoding","encoding","2","Pottery.jpg","6","0","2060"
"4","4","encoding","encoding","3","Tuxedo.jpg","4","0","1020"
"4","4","encoding","encoding","4","Tricycle.jpg","4","0","1473"
"4","4","encoding","encoding","5","Torpedo.jpg","3","0","2146"
"4","4","encoding","encoding","6","Toaster_Antique.jpg","2","0","1538"
"4","4","encoding","encoding","7","TestTube_Single.jpg","2","0","1152"
"4","4","encoding","encoding","8","Gameboy.jpg","3","0","697"
"4","4","encoding","encoding","9","Hotdog_Weiner.jpg","2","0","1016"
"4","4","encoding","encoding","10","Hat_Explorer.jpg","2","0","927"
"4","4","encoding","encoding","11","Jars_PetFood.jpg","2","0","1006"
"4","4","encoding","encoding","12","Headphones.jpg","3","0","1365"
"4","4","encoding","encoding","13","Chair_High.jpg","3","0","1077"
"4","4","encoding","encoding","14","MixingGlass.jpg","2","0","1100"
"4","4","encoding","encoding","15","Truck_Box.jpg","0","0","3000"
"4","4","encoding","encoding","16","Candy_Lozenge.jpg","0","0","3000"
"4","4","encoding","encoding","17","Bag_Gift.jpg","0","0","3000"
"4","4","encoding","encoding","18","Phone_Public.jpg","2","0","649"
"4","4","encoding","encoding","19","Spoon_WoodenLight.jpg","2","0","657"
"4","4","encoding","encoding","20","LightBulb_Blue.jpg","2","0","481"
"4","4","encoding","encoding","21","Toy_MrPotatoHeadjpg.jpg","3","0","615"
"4","4","encoding","encoding","22","Chipmunk.jpg","2","0","1439"
"4","4","encoding","encoding","23","CashRegister_Antique.jpg","2","0","693"
"4","4","encoding","encoding","24","Carbiner_Ascender.jpg","2","0","1341"
"4","4","encoding","encoding","25","Towel.jpg","5","0","1764"
"4","4","encoding","encoding","26","Gun_Glue.jpg","4","0","1421"
"4","4","encoding","encoding","27","Case_CD.jpg","3","0","884"
"4","4","encoding","encoding","28","PylonTraffic.jpg","3","0","1313"
"4","4","encoding","encoding","29","Pants_Jeans.jpg","7","0","1824"
"4","4","encoding","encoding","30","Pasta_Spaghetti.jpg","0","0","3000"
"4","4","encoding","encoding","31","Statue_Head.jpg","3","0","999"
"4","4","encoding","encoding","32","Milkshake_Strawberry.jpg","2","0","1191"
"4","4","encoding","encoding","33","MilkPitcher.jpg","2","0","901"
"4","4","encoding","encoding","34","Pajamas.jpg","7","0","1341"
"4","4","encoding","encoding","35","Chair_Folding.jpg","2","0","1268"
"4","4","encoding","encoding","36","Rock_Mimetite.jpg","2","0","844"
"4","4","encoding","encoding","37","IroningBoard.jpg","3","0","563"
"4","4","encoding","encoding","38","SpongeScrubbing.jpg","2","0","403"
"4","4","encoding","encoding","39","Bowl_Pasta.jpg","2","0","553"
"4","4","encoding","encoding","40","Bird_Duck.jpg","2","0","752"
"4","4","encoding","encoding","41","Lion.jpg","3","0","758"
"4","4","encoding","encoding","42","Case_DVD.jpg","3","0","988"
"4","4","encoding","encoding","43","Glass_bottle.jpg","2","0","1021"
"4","4","encoding","encoding","44","Handbag.jpg","7","0","2221"
"4","4","encoding","encoding","45","Chimpanzee.jpg","4","0","1532"
"4","4","encoding","encoding","46","Clock_Grandfather.jpg","3","0","1116"
"4","4","encoding","encoding","47","Lectern.jpg","3","0","1562"
"4","4","encoding","encoding","48","Sandwich_Egg.jpg","4","0","1657"
"4","4","encoding","encoding","49","Cake_Birthday.jpg","0","0","3000"
"4","4","encoding","encoding","50","PowderProtein.jpg","0","0","3000"
"4","4","encoding","encoding","51","Blueberry.jpg","0","0","3000"
"4","4","encoding","encoding","52","DrainPlug.jpg","0","0","3000"
"4","4","encoding","encoding","53","Pyramid.jpg","0","0","3000"
"4","4","encoding","encoding","54","OrangeBlood.jpg","0","0","3000"
"4","4","encoding","encoding","55","Waffle.jpg","0","0","3000"
"4","4","encoding","encoding","56","SmokingPipe.jpg","0","0","3000"
"4","4","encoding","encoding","57","CigarCase.jpg","2","0","1401"
"4","4","encoding","encoding","58","Croissant.jpg","1","0","433"
"4","4","encoding","encoding","59","ColoringSet.jpg","2","0","894"
"4","4","encoding","encoding","60","Blade_Tablesaw.jpg","2","0","439"
"4","4","encoding","encoding","62","Pliers_NeedleNose.jpg","4","0","1370"
"4","4","encoding","encoding","63","VacuumHead.jpg","3","0","875"
"4","4","encoding","encoding","64","Jug_GallonWhite.jpg","2","0","1378"
"4","4","encoding","encoding","65","CarLighter.jpg","3","0","1048"
"4","4","encoding","encoding","66","Guitar_Electric.jpg","4","0","1143"
"4","4","encoding","encoding","67","Hoodie.jpg","7","0","1407"
"4","4","encoding","encoding","68","PostageStamps.jpg","4","0","1904"
"4","4","encoding","encoding","69","Bowl_Cereal.jpg","3","0","1149"
"4","4","encoding","encoding","70","Bag_Diaper.jpg","3","0","979"
"4","4","encoding","encoding","71","Cart_Janitor.jpg","2","0","1051"
"4","4","encoding","encoding","72","Bread_Carrot.jpg","3","0","1953"
"4","4","encoding","encoding","73","CandleSnuffer.jpg","3","0","1513"
"4","4","encoding","encoding","74","Button.jpg","3","0","1175"
"4","4","encoding","encoding","75","Shoes_Pumps.jpg","3","0","1174"
"4","4","encoding","encoding","76","BicyclePedal.jpg","2","0","894"
"4","4","encoding","encoding","77","Toy_RockingHorseBeige.jpg","2","0","709"
"4","4","encoding","encoding","78","Bag_Garbage.jpg","3","0","628"
"4","4","encoding","encoding","79","Barometer.jpg","3","0","747"
"4","4","encoding","encoding","80","Mirror_Handheld.jpg","2","0","819"
"4","4","encoding","encoding","81","Ghost.jpg","2","0","771"
"4","4","encoding","encoding","82","Bench_Black.jpg","3","0","1442"
"4","4","encoding","encoding","83","ChocolateBar_HalfUnwrapped.jpg","3","0","808"
"4","4","encoding","encoding","84","RiceCooker.jpg","3","0","1111"
"4","4","encoding","encoding","85","Kebab_Meat.jpg","5","0","2030"
"4","4","encoding","encoding","86","ContactLens.jpg","4","0","1433"
"4","4","encoding","encoding","87","AnsweringMachine.jpg","3","0","1935"
"4","4","encoding","encoding","88","Walker_Silver.jpg","3","0","911"
"4","4","encoding","encoding","89","NailFiles.jpg","2","0","1551"
"4","4","encoding","encoding","90","Toy_BearBrownPlushie.jpg","2","0","869"
"4","4","encoding","encoding","91","Can_Olives.jpg","2","0","1468"
"4","4","encoding","encoding","92","Gloves_Bicycle.jpg","2","0","220"
"4","4","encoding","encoding","93","Fan_Blades.jpg","2","0","1066"
"4","4","encoding","encoding","94","ShinPads.jpg","2","0","585"
"4","4","encoding","encoding","95","SnowGlobe.jpg","0","0","3000"
"4","4","encoding","encoding","96","ComputerKey_Escape.jpg","2","0","1230"
"4","4","encoding","encoding","97","Tray_Cafeteria.jpg","3","0","2540"
"4","4","encoding","encoding","98","Maraca.jpg","2","0","1949"
"4","4","encoding","encoding","99","Can_MilkAntique.jpg","3","0","1947"
"4","4","encoding","encoding","100","RibbonPin.jpg","3","0","994"
"4","4","encoding","encoding","101","Telephone_DialAntique.jpg","2","0","715"
"4","4","encoding","encoding","102","Phone_Military.jpg","2","0","1160"
"4","4","encoding","encoding","103","Box_Notepaper.jpg","2","0","1073"
"4","4","encoding","encoding","104","CertificateFramed.jpg","2","0","976"
"4","4","encoding","encoding","105","Barbecue_Charcoal.jpg","0","0","3000"
"4","4","encoding","encoding","106","Bread_Melon.jpg","2","0","2476"
"4","4","encoding","encoding","107","House_Stone.jpg","0","0","3000"
"4","4","encoding","encoding","108","Toy_Christmastree.jpg","0","0","3000"
"4","4","encoding","encoding","109","LicensePlate.jpg","3","0","2529"
"4","4","encoding","encoding","110","Lantern_Tea.jpg","4","0","737"
"4","4","encoding","encoding","111","Cymbals.jpg","0","0","3000"
"4","4","encoding","encoding","112","Chinchilla.jpg","0","0","3000"
"4","4","encoding","encoding","113","Cannister_Gas.jpg","0","0","3000"
"4","4","encoding","encoding","114","Giraffe.jpg","0","0","3000"
"4","4","encoding","encoding","115","Bird_Falcon.jpg","3","0","654"
"4","4","encoding","encoding","116","Crowbar.jpg","0","0","3000"
"4","4","encoding","encoding","117","Cage_Hamster.jpg","0","0","3000"
"4","4","encoding","encoding","118","Seal_animal.jpg","0","0","3000"
"4","4","encoding","encoding","119","Speakers_Theatre.jpg","0","0","3000"
"4","4","encoding","encoding","120","Jar_JellyBeans.jpg","0","0","3000"
"4","4","encoding","encoding","121","HairBand.jpg","0","0","3000"
"4","4","encoding","encoding","123","Hoverboard.jpg","0","0","3000"
"4","4","encoding","encoding","124","Makeup_Bag.jpg","0","0","3000"
"4","4","encoding","encoding","125","Exercise_Machine.jpg","0","0","3000"
"4","4","encoding","encoding","126","Hockey_Puck.jpg","0","0","3000"
"4","4","encoding","encoding","127","Bowl_Sugar.jpg","0","0","3000"
"4","4","encoding","encoding","128","Bowl_Glass.jpg","0","0","3000"
"4","4","encoding","encoding","129","Horseshoe.jpg","0","0","3000"
"4","4","encoding","encoding","130","DoorKnob.jpg","0","0","3000"
"4","4","encoding","encoding","131","ShowerCap.jpg","0","0","3000"
"4","4","encoding","encoding","132","Wallet_ClosedBlack.jpg","0","0","3000"
"4","4","encoding","encoding","133","ChainRusty.jpg","0","0","3000"
"4","4","encoding","encoding","134","Syringe_Blunt.jpg","0","0","3000"
"4","4","encoding","encoding","135","Statue_Man.jpg","0","0","3000"
"4","4","encoding","encoding","136","Skirt_Long.jpg","0","0","3000"
"4","4","encoding","encoding","137","PortaPotty.jpg","0","0","3000"
"4","4","encoding","encoding","138","Hat_Beanie.jpg","0","0","3000"
"4","4","encoding","encoding","139","ShoeLace_Round.jpg","0","0","3000"
"4","4","encoding","encoding","140","GrillRack.jpg","0","0","3000"
"4","4","encoding","encoding","141","Clock_Radio.jpg","0","0","3000"
"4","4","encoding","encoding","142","Harp.jpg","0","0","3000"
"4","4","encoding","encoding","143","EyeDrops.jpg","0","0","3000"
"4","4","encoding","encoding","144","Statue_ManHorse.jpg","0","0","3000"
"4","4","encoding","encoding","145","Gecko.jpg","0","0","3000"
"4","4","encoding","encoding","146","Swing_Child.jpg","0","0","3000"
"4","4","encoding","encoding","147","VinylRecord.jpg","0","0","3000"
"4","4","encoding","encoding","148","PowerDoorPushButton.jpg","0","0","3000"
"4","4","encoding","encoding","149","Pants_Firefighter.jpg","0","0","3000"
"4","4","encoding","encoding","150","SculptureMetalFish.jpg","0","0","3000"
"4","4","encoding","encoding","151","Briefcase_Silver.jpg","0","0","3000"
"4","4","encoding","encoding","152","ElasticBand.jpg","0","0","3000"
"4","4","encoding","encoding","153","TissueBox.jpg","0","0","3000"
"4","4","encoding","encoding","154","Playard.jpg","0","0","3000"
"4","4","encoding","encoding","155","Beaker.jpg","0","0","3000"
"4","4","encoding","encoding","156","JukeboxAntique.jpg","0","0","3000"
"4","4","encoding","encoding","157","BumperCar.jpg","0","0","3000"
"4","4","encoding","encoding","158","GutterAndDrainPipe.jpg","0","0","3000"
"4","4","encoding","encoding","159","Tape_Clear.jpg","0","0","3000"
"4","4","encoding","encoding","160","Sword.jpg","0","0","3000"
"4","4","encoding","encoding","161","Playdoh.jpg","0","0","3000"
"4","4","encoding","encoding","162","LightBulb_White.jpg","0","0","3000"
"4","4","encoding","encoding","163","Window.jpg","0","0","3000"
"4","4","encoding","encoding","164","Bowl_Flour.jpg","0","0","3000"
"4","4","encoding","encoding","165","ComputerKeyboard_F1.jpg","0","0","3000"
"4","4","encoding","encoding","166","Defribrillator.jpg","0","0","3000"
"4","4","encoding","encoding","167","Peppermill.jpg","0","0","3000"
"4","4","encoding","encoding","168","WaterGun.jpg","0","0","3000"
"4","4","encoding","encoding","169","AllTerrain.jpg","0","0","3000"
"4","4","encoding","encoding","170","Booth_Carnival.jpg","0","0","3000"
"4","4","encoding","encoding","171","Walkman.jpg","0","0","3000"
"4","4","encoding","encoding","172","Cannoli.jpg","0","0","3000"
"4","4","encoding","encoding","173","BottleOpener.jpg","0","0","3000"
"4","4","encoding","encoding","174","DogSled.jpg","0","0","3000"
"4","4","encoding","encoding","175","Popcorn.jpg","0","0","3000"
"4","4","encoding","encoding","176","Envelope_Letter.jpg","0","0","3000"
"4","4","encoding","encoding","177","MoneyBill50.jpg","0","0","3000"
"4","4","retrieval","old_objects","1","TestTube_Single.jpg","37","0","545"
"4","4","retrieval","new_objects","2","Pencil.jpg","37","1","274"
"4","4","retrieval","old_objects","3","IroningBoard.jpg","37","0","206"
"4","4","retrieval","new_objects","4","Bottle_CosmeticSpray.jpg","37","1","157"
"4","4","retrieval","new_objects","5","SelfieStick.jpg","37","1","60"
"4","4","retrieval","old_objects","6","Pajamas.jpg","36","1","98"
"4","4","retrieval","old_objects","7","Gloves_Bicycle.jpg","37","0","116"
"4","4","retrieval","old_objects","8","Bird_Duck.jpg","37","0","134"
"4","4","retrieval","new_objects","9","Pot_Crock.jpg","37","1","88"
"4","4","retrieval","old_objects","10","CandleSnuffer.jpg","36","1","11"
"4","4","retrieval","new_objects","11","Seeder.jpg","36","0","98"
"4","4","retrieval","new_objects","12","Puzzle_Piece.jpg","37","1","85"
"4","4","retrieval","old_objects","13","SpongeScrubbing.jpg","37","0","233"
"4","4","retrieval","old_objects","14","Lion.jpg","37","0","326"
"4","4","retrieval","new_objects","15","Fossil.jpg","36","0","241"
"4","4","retrieval","old_objects","16","Glass_bottle.jpg","37","0","109"
"4","4","retrieval","old_objects","17","GrillRack.jpg","37","0","383"
"4","4","retrieval","old_objects","18","Pottery.jpg","37","0","71"
"4","4","retrieval","new_objects","19","ShoulderPads.jpg","36","0","90"
"4","4","retrieval","old_objects","20","Rock_Mimetite.jpg","37","0","125"
"4","4","retrieval","new_objects","21","BicycleGear.jpg","37","1","63"
"4","4","retrieval","new_objects","22","Computer_ExpansionCard.jpg","36","0","307"
"4","4","retrieval","old_objects","23","Statue_Man.jpg","37","0","78"
"4","4","retrieval","new_objects","24","InflatableSleepingBag.jpg","36","0","209"
"4","4","retrieval","new_objects","25","Nail.jpg","36","0","128"
"4","4","retrieval","old_objects","26","Tape_Clear.jpg","36","1","33"
"4","4","retrieval","new_objects","27","Flute_Wooden.jpg","36","0","55"
"4","4","retrieval","old_objects","28","Tray_Cafeteria.jpg","36","1","43"
"4","4","retrieval","new_objects","29","Pouch_PotPourri.jpg","36","0","368"
"4","4","retrieval","new_objects","30","Chair_MedicalToilet.jpg","36","0","377"
"4","4","retrieval","new_objects","31","LampPost_ThreeBulbs.jpg","36","0","321"
"4","4","retrieval","old_objects","32","Can_MilkAntique.jpg","36","1","283"
"4","4","retrieval","old_objects","33","Crowbar.jpg","36","1","262"
"4","4","retrieval","new_objects","34","RollerCoaster.jpg","36","0","275"
"4","4","retrieval","new_objects","35","Umbrella_Retractable.jpg","37","1","31"
"4","4","retrieval","old_objects","36","Defribrillator.jpg","37","0","21"
"4","4","retrieval","new_objects","37","Radish.jpg","36","0","42"
"4","4","retrieval","new_objects","38","Box_WoodenClosed.jpg","37","1","255"
"4","4","retrieval","old_objects","39","Croissant.jpg","36","1","123"
"4","4","retrieval","old_objects","40","CashRegister_Antique.jpg","36","1","142"
"4","4","retrieval","old_objects","41","DoorKnob.jpg","36","1","14"
"4","4","retrieval","old_objects","42","Bird_Falcon.jpg","36","1","5"
"4","4","retrieval","new_objects","43","Cracker_Saltine.jpg","36","0","187"
"4","4","retrieval","old_objects","44","Cake_Birthday.jpg","36","1","123"
"4","4","retrieval","new_objects","45","Cage_Bird.jpg","36","0","556"
"4","4","retrieval","new_objects","46","Television.jpg","36","0","397"
"4","4","retrieval","new_objects","47","Box_Apples.jpg","36","0","324"
"4","4","retrieval","old_objects","48","Walkman.jpg","36","1","126"
"4","4","retrieval","new_objects","49","Mat_Bamboo.jpg","36","0","111"
"4","4","retrieval","new_objects","50","Weathervane.jpg","36","0","209"
"4","4","retrieval","old_objects","51","Syringe_Blunt.jpg","36","1","64"
"4","4","retrieval","old_objects","52","SmokingPipe.jpg","36","1","164"
"4","4","retrieval","old_objects","53","Jar_JellyBeans.jpg","37","0","53"
"4","4","retrieval","old_objects","54","House_Stone.jpg","36","1","217"
"4","4","retrieval","old_objects","55","MoneyBill50.jpg","37","0","136"
"4","4","retrieval","old_objects","56","Toy_MrPotatoHeadjpg.jpg","36","1","314"
"4","4","retrieval","old_objects","57","PowerDoorPushButton.jpg","36","1","116"
"4","4","retrieval","new_objects","58","Spraybottle.jpg","36","0","262"
"4","4","retrieval","new_objects","59","Lacrosse_Stick.jpg","37","1","83"
"4","4","retrieval","old_objects","60","ShowerCap.jpg","36","1","1062"
"4","4","retrieval","old_objects","62","Milkshake_Strawberry.jpg","36","1","145"
"4","4","retrieval","old_objects","63","Mirror_Handheld.jpg","37","0","83"
"4","4","retrieval","new_objects","64","Buffalo.jpg","37","1","118"
"4","4","retrieval","new_objects","65","Hourglass.jpg","36","0","168"
"4","4","retrieval","new_objects","66","Canteen.jpg","36","0","41"
"4","4","retrieval","old_objects","67","Truck_Box.jpg","36","1","94"
"4","4","retrieval","new_objects","68","Tire_Hollow.jpg","36","0","32"
"4","4","retrieval","new_objects","69","Box_Jewellery.jpg","36","0","1478"
"4","4","retrieval","new_objects","70","Stroboscope.jpg","37","1","194"
"4","4","retrieval","new_objects","71","Dice.jpg","36","0","305"
"4","4","retrieval","old_objects","72","RiceCooker.jpg","36","1","540"
"4","4","retrieval","new_objects","73","Sand.jpg","36","0","253"
"4","4","retrieval","new_objects","74","Speaker_OnStand.jpg","36","0","217"
"4","4","retrieval","old_objects","75","EyeDrops.jpg","36","1","104"
"4","4","retrieval","old_objects","76","ChocolateBar_HalfUnwrapped.jpg","36","1","282"
"4","4","retrieval","old_objects","77","Giraffe.jpg","36","1","231"
"4","4","retrieval","old_objects","78","BottleOpener.jpg","36","1","228"
"4","4","retrieval","new_objects","79","Keychain_Leather.jpg","36","0","210"
"4","4","retrieval","new_objects","80","Boat_Colourful.jpg","37","1","16"
"4","4","retrieval","old_objects","81","Chair_Folding.jpg","36","1","470"
"4","4","retrieval","old_objects","82","TissueBox.jpg","36","1","314"
"4","4","retrieval","old_objects","83","SculptureMetalFish.jpg","36","1","101"
"4","4","retrieval","old_objects","84","Bread_Melon.jpg","36","1","504"
"4","4","retrieval","new_objects","85","Origami_Ox.jpg","36","0","59"
"4","4","retrieval","new_objects","86","Toy_BearBlackPlastic.jpg","37","1","95"
"4","4","retrieval","new_objects","87","Crib_Basket.jpg","37","1","177"
"4","4","retrieval","old_objects","88","Playdoh.jpg","36","1","209"
"4","4","retrieval","new_objects","89","ChessPiece_Bishop.jpg","36","0","176"
"4","4","retrieval","new_objects","90","Fan_Straw.jpg","36","0","303"
"4","4","retrieval","new_objects","91","GogglesSwim.jpg","36","0","314"
"4","4","retrieval","new_objects","92","Wreath.jpg","36","0","68"
"4","4","retrieval","new_objects","93","Dolphine.jpg","37","1","24"
"4","4","retrieval","new_objects","94","AlarmSystem.jpg","37","1","174"
"4","4","retrieval","old_objects","95","PortaPotty.jpg","36","1","269"
"4","4","retrieval","new_objects","96","Ball_Disco.jpg","36","0","346"
"4","4","retrieval","new_objects","97","Bird_Budgie.jpg","37","1","19"
"4","4","retrieval","new_objects","98","DogTreat.jpg","37","1","216"
"4","4","retrieval","new_objects","99","RamAnimal.jpg","37","1","135"
"4","4","retrieval","old_objects","100","ContactLens.jpg","36","1","57"
"4","4","retrieval","new_objects","101","Camera_Digital.jpg","36","0","125"
"4","4","retrieval","new_objects","102","Distaff.jpg","37","1","30"
"4","4","retrieval","old_objects","103","PowderProtein.jpg","36","1","213"
"4","4","retrieval","old_objects","104","Jars_PetFood.jpg","37","0","98"
"4","4","retrieval","new_objects","105","CheeseSlicer.jpg","37","1","5"
"4","4","retrieval","new_objects","106","FuseBox.jpg","36","0","124"
"4","4","retrieval","new_objects","107","Tube_Paint.jpg","36","0","462"
"4","4","retrieval","old_objects","108","Phone_Public.jpg","36","1","50"
"4","4","retrieval","new_objects","109","Teapot.jpg","36","0","103"
"4","4","retrieval","new_objects","110","Steamroller.jpg","37","1","330"
"4","4","retrieval","old_objects","111","Cage_Hamster.jpg","37","0","147"
"4","4","retrieval","old_objects","112","Hoverboard.jpg","37","0","53"
"4","4","retrieval","old_objects","113","Blueberry.jpg","36","1","25"
