"group","subject","blockcode","trialcode","trialnum","values.stimulus","response","correct","latency"
"2","2","encoding","encoding","1","Chicken_Dinner.jpg","0","0","3000"
"2","2","encoding","encoding","2","Corkscrew.jpg","2","0","1835"
"2","2","encoding","encoding","3","Dragonfly.jpg","6","0","1899"
"2","2","encoding","encoding","4","Rock_Agate.jpg","6","0","1503"
"2","2","encoding","encoding","5","Box_Wine.jpg","1","0","2121"
"2","2","encoding","encoding","6","PeriodicTable.jpg","1","0","1805"
"2","2","encoding","encoding","7","TreeHouse.jpg","6","0","2663"
"2","2","encoding","encoding","8","Bird_Toucan.jpg","5","0","1706"
"2","2","encoding","encoding","9","FlintIgniter.jpg","3","0","1974"
"2","2","encoding","encoding","10","Rope_Manila.jpg","2","0","1383"
"2","2","encoding","encoding","11","SpiderWeb.jpg","2","0","1943"
"2","2","encoding","encoding","12","Backpack_Suitcase.jpg","5","0","2406"
"2","2","encoding","encoding","13","Tray_Medical.jpg","2","0","2185"
"2","2","encoding","encoding","14","Partition.jpg","4","0","2024"
"2","2","encoding","encoding","15","Oyster.jpg","6","0","1730"
"2","2","encoding","encoding","16","GiftBow.jpg","4","0","1739"
"2","2","encoding","encoding","17","Knife_Kitchen.jpg","3","0","1619"
"2","2","encoding","encoding","18","SundaeBanana.jpg","6","0","1784"
"2","2","encoding","encoding","19","Bag_Saline.jpg","2","0","2055"
"2","2","encoding","encoding","20","Box_FirstAidOpen.jpg","2","0","1342"
"2","2","encoding","encoding","21","Sink_Kitchen.jpg","1","0","1387"
"2","2","encoding","encoding","22","Shoes_WomenBoots.jpg","1","0","1306"
"2","2","encoding","encoding","23","Crab.jpg","7","0","2082"
"2","2","encoding","encoding","24","Rag.jpg","2","0","2226"
"2","2","encoding","encoding","25","Statue_Jesus.jpg","4","0","1869"
"2","2","encoding","encoding","26","Stick_Drum.jpg","1","0","2154"
"2","2","encoding","encoding","27","Cannon.jpg","4","0","1754"
"2","2","encoding","encoding","28","Drum_Conga.jpg","4","0","1391"
"2","2","encoding","encoding","29","Leek.jpg","4","0","1417"
"2","2","encoding","encoding","30","Guitar_Acoustic.jpg","4","0","1418"
"2","2","encoding","encoding","31","Bucket_Rusty.jpg","3","0","1567"
"2","2","encoding","encoding","32","Peeler.jpg","1","0","1412"
"2","2","encoding","encoding","33","Easel.jpg","1","0","1758"
"2","2","encoding","encoding","34","Autocreeper.jpg","4","0","2217"
"2","2","encoding","encoding","35","CoolingFan_Engine2.jpg","1","0","1738"
"2","2","encoding","encoding","36","Stepper.jpg","1","0","1873"
"2","2","encoding","encoding","37","ChalkLineTool.jpg","3","0","1822"
"2","2","encoding","encoding","38","Licorice.jpg","5","0","2279"
"2","2","encoding","encoding","39","Barrel_Upright.jpg","1","0","1587"
"2","2","encoding","encoding","40","Book_Paper.jpg","4","0","1771"
"2","2","encoding","encoding","41","Chair_Deck.jpg","2","0","2220"
"2","2","encoding","encoding","42","Boots_Hiking.jpg","1","0","1971"
"2","2","encoding","encoding","43","PickupTruck.jpg","5","0","1351"
"2","2","encoding","encoding","44","PagodaModel.jpg","2","0","1562"
"2","2","encoding","encoding","45","Mitt_Blue.jpg","1","0","1371"
"2","2","encoding","encoding","46","Boots_KneeHigh.jpg","3","0","1792"
"2","2","encoding","encoding","47","Cup_Latte.jpg","6","0","1910"
"2","2","encoding","encoding","48","Toy_Helicopter.jpg","2","0","1809"
"2","2","encoding","encoding","49","Pear_Yellow.jpg","1","0","1713"
"2","2","encoding","encoding","50","Bottle_Bleach.jpg","1","0","1735"
"2","2","encoding","encoding","51","Awning.jpg","3","0","1695"
"2","2","encoding","encoding","52","LintRemover.jpg","2","0","1746"
"2","2","encoding","encoding","53","Bucket_Ice.jpg","2","0","1793"
"2","2","encoding","encoding","54","Hammer_Reflex.jpg","2","0","1808"
"2","2","encoding","encoding","55","Faucet.jpg","2","0","1804"
"2","2","encoding","encoding","56","Lobster.jpg","6","0","1743"
"2","2","encoding","encoding","57","TowelRack_Metal.jpg","2","0","1986"
"2","2","encoding","encoding","58","GatedEntrance.jpg","1","0","2048"
"2","2","encoding","encoding","59","Carousel copy.jpg","2","0","1972"
"2","2","encoding","encoding","60","StreetSweeper.jpg","5","0","1814"
"2","2","encoding","encoding","62","Inukshuk.jpg","5","0","1506"
"2","2","encoding","encoding","63","Clock_Interior.jpg","6","0","2144"
"2","2","encoding","encoding","64","DogFood.jpg","2","0","1711"
"2","2","encoding","encoding","65","Oven.jpg","3","0","2362"
"2","2","encoding","encoding","66","Phone_Flip.jpg","5","0","2292"
"2","2","encoding","encoding","67","Chicken_FriedWing.jpg","4","0","2325"
"2","2","encoding","encoding","68","Stamp.jpg","3","0","1772"
"2","2","encoding","encoding","69","Toy_StackingRing.jpg","1","0","1802"
"2","2","encoding","encoding","70","MilkJug.jpg","1","0","1688"
"2","2","encoding","encoding","71","Bag_Camera.jpg","1","0","1083"
"2","2","encoding","encoding","72","Arch.jpg","4","0","1759"
"2","2","encoding","encoding","73","PocketKnife.jpg","3","0","1759"
"2","2","encoding","encoding","74","Bellows.jpg","2","0","1849"
"2","2","encoding","encoding","75","NailPolish.jpg","1","0","2106"
"2","2","encoding","encoding","76","Cougar.jpg","6","0","1754"
"2","2","encoding","encoding","77","Heelpad.jpg","1","0","2314"
"2","2","encoding","encoding","78","Bird_Parrot.jpg","3","0","1628"
"2","2","encoding","encoding","79","ComputerKeyboard_Backspace.jpg","1","0","1808"
"2","2","encoding","encoding","80","DentistOverheadLight.jpg","2","0","1729"
"2","2","encoding","encoding","81","Clock_Radioalarm.jpg","5","0","1510"
"2","2","encoding","encoding","82","Broom_Short.jpg","1","0","1806"
"2","2","encoding","encoding","83","Bottle_Blue.jpg","1","0","1782"
"2","2","encoding","encoding","84","Makeup_Mascara.jpg","1","0","1878"
"2","2","encoding","encoding","85","Spoons_MeasuringAttached.jpg","1","0","1563"
"2","2","encoding","encoding","86","PedestalGreek.jpg","1","0","1898"
"2","2","encoding","encoding","87","Mug_Travel.jpg","1","0","1664"
"2","2","encoding","encoding","88","CartonEggs.jpg","1","0","1655"
"2","2","encoding","encoding","89","Shrub_Cedar.jpg","4","0","1554"
"2","2","encoding","encoding","90","Box_Staples.jpg","1","0","1678"
"2","2","encoding","encoding","91","Sign_HumpBridgeAhead.jpg","1","0","1602"
"2","2","encoding","encoding","92","Avocado.jpg","1","0","1580"
"2","2","encoding","encoding","93","Pillow_Heart.jpg","1","0","1750"
"2","2","encoding","encoding","94","Quartz.jpg","1","0","1799"
"2","2","encoding","encoding","95","Shark_GreatWhite.jpg","4","0","1537"
"2","2","encoding","encoding","96","Bullet.jpg","4","0","1744"
"2","2","encoding","encoding","97","Toy_Motorcycle.jpg","1","0","1700"
"2","2","encoding","encoding","98","Dress_Party.jpg","1","0","1924"
"2","2","encoding","encoding","99","Golf_Club.jpg","4","0","1867"
"2","2","encoding","encoding","100","DentalFloss.jpg","1","0","2439"
"2","2","encoding","encoding","101","Toys_Lego.jpg","1","0","1713"
"2","2","encoding","encoding","102","TireRims.jpg","2","0","2195"
"2","2","encoding","encoding","103","Jar_Capers.jpg","2","0","2517"
"2","2","encoding","encoding","104","Vase_EarthToned.jpg","2","0","2266"
"2","2","encoding","encoding","105","Case_WoodenOrnate.jpg","5","0","2224"
"2","2","encoding","encoding","106","Tripod.jpg","1","0","2286"
"2","2","encoding","encoding","107","Brush_Toilet.jpg","1","0","1526"
"2","2","encoding","encoding","108","Hat_Sheriff.jpg","2","0","2390"
"2","2","encoding","encoding","109","Dresser.jpg","2","0","1442"
"2","2","encoding","encoding","110","Man.jpg","1","0","1809"
"2","2","encoding","encoding","111","BoxTrailer.jpg","1","0","1795"
"2","2","encoding","encoding","112","Walker_Blue.jpg","1","0","1784"
"2","2","encoding","encoding","113","Tray_Metal.jpg","1","0","1793"
"2","2","encoding","encoding","114","Stick_IceHockey.jpg","3","0","1614"
"2","2","encoding","encoding","115","Ship_Model.jpg","6","0","2192"
"2","2","encoding","encoding","116","Light_Studio.jpg","1","0","1868"
"2","2","encoding","encoding","117","Toy_PandaPlushie.jpg","1","0","1736"
"2","2","encoding","encoding","118","Bucket_WoodenLight.jpg","1","0","1734"
"2","2","encoding","encoding","119","DeepFryer.jpg","1","0","1898"
"2","2","encoding","encoding","120","Axe.jpg","3","0","1978"
"2","2","encoding","encoding","121","OnionRings.jpg","4","0","1920"
"2","2","encoding","encoding","123","Bucket_WoodenDark.jpg","3","0","1651"
"2","2","encoding","encoding","124","SolderingIron.jpg","2","0","1474"
"2","2","encoding","encoding","125","Ball_Tennis.jpg","1","0","1486"
"2","2","encoding","encoding","126","OvenElement.jpg","1","0","1358"
"2","2","encoding","encoding","127","Mask_African.jpg","4","0","1551"
"2","2","encoding","encoding","128","Condom.jpg","2","0","1999"
"2","2","encoding","encoding","129","Sandwich_Ham.jpg","3","0","2064"
"2","2","encoding","encoding","130","Lilypad.jpg","2","0","1588"
"2","2","encoding","encoding","131","CanOpener.jpg","1","0","1530"
"2","2","encoding","encoding","132","Toy_BlocksPlastic Colourful.jpg","1","0","1427"
"2","2","encoding","encoding","133","Pliers_SlipJoint.jpg","1","0","1510"
"2","2","encoding","encoding","134","Diode.jpg","1","0","1424"
"2","2","encoding","encoding","135","Noisemaker_Streamers.jpg","1","0","1665"
"2","2","encoding","encoding","136","Dolly.jpg","1","0","1496"
"2","2","encoding","encoding","137","Harmonica.jpg","1","0","1311"
"2","2","encoding","encoding","138","MonaLisa.jpg","3","0","2129"
"2","2","encoding","encoding","139","Bottle_Plastic.jpg","1","0","2000"
"2","2","encoding","encoding","140","Flowers_DryBouquet.jpg","1","0","2070"
"2","2","encoding","encoding","141","Seashell_AlternateTellin.jpg","1","0","1382"
"2","2","encoding","encoding","142","Tube_Glue.jpg","1","0","1806"
"2","2","encoding","encoding","143","Toolbox_Old.jpg","4","0","1784"
"2","2","encoding","encoding","144","TowerEiffel.jpg","5","0","1954"
"2","2","encoding","encoding","145","Lamp_TableWhite.jpg","1","0","1865"
"2","2","encoding","encoding","146","Flower_Sun.jpg","4","0","1794"
"2","2","encoding","encoding","147","Puzzle_Tree.jpg","1","0","1703"
"2","2","encoding","encoding","148","Sheep.jpg","1","0","1806"
"2","2","encoding","encoding","149","Toy_DinosaurTRex.jpg","5","0","1691"
"2","2","encoding","encoding","150","DVDPlayer.jpg","3","0","2389"
"2","2","encoding","encoding","151","Shorts_Sports.jpg","1","0","1930"
"2","2","encoding","encoding","152","Toy_RockingHorseBlack.jpg","1","0","1626"
"2","2","encoding","encoding","153","Toy_SandRake.jpg","1","0","1371"
"2","2","encoding","encoding","154","Toy_Shark.jpg","1","0","1451"
"2","2","encoding","encoding","155","GasBurner.jpg","2","0","1754"
"2","2","encoding","encoding","156","Toy_BeadMaze.jpg","1","0","2129"
"2","2","encoding","encoding","157","Cheque.jpg","0","0","3000"
"2","2","encoding","encoding","158","Candy_Caramel.jpg","2","0","1618"
"2","2","encoding","encoding","159","Pillow_Plaid.jpg","2","0","1598"
"2","2","encoding","encoding","160","Mailbox_Community.jpg","4","0","2411"
"2","2","encoding","encoding","161","Heater_Outdoor.jpg","2","0","2134"
"2","2","encoding","encoding","162","Machine_Bread.jpg","1","0","1791"
"2","2","encoding","encoding","163","Feet.jpg","4","0","2174"
"2","2","encoding","encoding","164","Archery_ArrowsBows.jpg","5","0","2254"
"2","2","encoding","encoding","165","Neckrest.jpg","1","0","1658"
"2","2","encoding","encoding","166","Origami_Boat.jpg","1","0","1790"
"2","2","encoding","encoding","167","WaterColorPaintset.jpg","1","0","1787"
"2","2","encoding","encoding","168","Key_Car.jpg","3","0","2048"
"2","2","encoding","encoding","169","Bone.jpg","1","0","1613"
"2","2","encoding","encoding","170","Keychain_Metal.jpg","1","0","1539"
"2","2","encoding","encoding","171","Lettuce_Romaine.jpg","4","0","1965"
"2","2","encoding","encoding","172","Milkshake_StrawberryStraw.jpg","5","0","1490"
"2","2","encoding","encoding","173","Platter_Vegetables.jpg","5","0","1975"
"2","2","encoding","encoding","174","Bagel.jpg","1","0","1697"
"2","2","encoding","encoding","175","Cheeseburger.jpg","6","0","1668"
"2","2","encoding","encoding","176","Mat_Car.jpg","1","0","1431"
"2","2","encoding","encoding","177","RadioactiveContainer.jpg","2","0","2195"
"2","2","retrieval","old_objects","1","Bucket_Rusty.jpg","37","0","1568"
"2","2","retrieval","old_objects","2","DogFood.jpg","37","0","1672"
"2","2","retrieval","new_objects","3","Gauge.jpg","37","1","1101"
"2","2","retrieval","new_objects","4","AirCompressor.jpg","37","1","1205"
"2","2","retrieval","new_objects","5","EspressoMachine.jpg","37","1","1045"
"2","2","retrieval","old_objects","6","Lamp_TableWhite.jpg","37","0","724"
"2","2","retrieval","new_objects","7","Toy_DogBall.jpg","37","1","1299"
"2","2","retrieval","old_objects","8","Statue_Jesus.jpg","37","0","1078"
"2","2","retrieval","old_objects","9","MilkJug.jpg","37","0","1001"
"2","2","retrieval","new_objects","10","Dill.jpg","37","1","1014"
"2","2","retrieval","old_objects","11","Toy_SandRake.jpg","36","1","1063"
"2","2","retrieval","old_objects","12","Seashell_AlternateTellin.jpg","37","0","932"
"2","2","retrieval","old_objects","13","TowerEiffel.jpg","36","1","1220"
"2","2","retrieval","new_objects","14","DoorBell.jpg","37","1","1016"
"2","2","retrieval","old_objects","15","Hat_Sheriff.jpg","36","1","1259"
"2","2","retrieval","new_objects","16","Tambourine.jpg","37","1","1034"
"2","2","retrieval","new_objects","17","Notepad.jpg","37","1","1019"
"2","2","retrieval","new_objects","18","Printer.jpg","37","1","1043"
"2","2","retrieval","old_objects","19","Cheque.jpg","36","1","850"
"2","2","retrieval","old_objects","20","Sign_HumpBridgeAhead.jpg","37","0","822"
"2","2","retrieval","old_objects","21","Stick_IceHockey.jpg","36","1","1079"
"2","2","retrieval","new_objects","22","Magnifying_Glass.jpg","37","1","804"
"2","2","retrieval","old_objects","23","Carousel copy.jpg","37","0","1035"
"2","2","retrieval","new_objects","24","Pear_Green.jpg","36","0","1103"
"2","2","retrieval","old_objects","25","Partition.jpg","37","0","1061"
"2","2","retrieval","old_objects","26","Toy_BlocksPlastic Colourful.jpg","37","0","1137"
"2","2","retrieval","new_objects","27","ComputerMouse.jpg","37","1","891"
"2","2","retrieval","old_objects","28","Rag.jpg","36","1","936"
"2","2","retrieval","old_objects","29","Dolly.jpg","36","1","1053"
"2","2","retrieval","old_objects","30","Bagel.jpg","36","1","777"
"2","2","retrieval","new_objects","31","Grape.jpg","37","1","761"
"2","2","retrieval","old_objects","32","Bottle_Plastic.jpg","37","0","1027"
"2","2","retrieval","new_objects","33","DryRack_Clothes.jpg","37","1","796"
"2","2","retrieval","old_objects","34","CartonEggs.jpg","36","1","824"
"2","2","retrieval","new_objects","35","Outhouse.jpg","37","1","953"
"2","2","retrieval","old_objects","36","Sandwich_Ham.jpg","36","1","940"
"2","2","retrieval","old_objects","37","TireRims.jpg","37","0","983"
"2","2","retrieval","old_objects","38","Box_Staples.jpg","37","0","1031"
"2","2","retrieval","old_objects","39","Man.jpg","37","0","840"
"2","2","retrieval","new_objects","40","Wontons.jpg","37","1","1067"
"2","2","retrieval","new_objects","41","Trunk.jpg","37","1","824"
"2","2","retrieval","new_objects","42","PoliceTape.jpg","37","1","974"
"2","2","retrieval","new_objects","43","Crib_Standard.jpg","37","1","960"
"2","2","retrieval","old_objects","44","Toy_StackingRing.jpg","37","0","944"
"2","2","retrieval","old_objects","45","Faucet.jpg","37","0","1322"
"2","2","retrieval","old_objects","46","StreetSweeper.jpg","37","0","857"
"2","2","retrieval","old_objects","47","Machine_Bread.jpg","37","0","1131"
"2","2","retrieval","new_objects","48","PizzaCutter.jpg","37","1","967"
"2","2","retrieval","new_objects","49","Glove_Rubber.jpg","37","1","1064"
"2","2","retrieval","old_objects","50","Milkshake_StrawberryStraw.jpg","36","1","758"
"2","2","retrieval","new_objects","51","Clip_Chip.jpg","36","0","1031"
"2","2","retrieval","new_objects","52","Backhoe.jpg","36","0","927"
"2","2","retrieval","new_objects","53","Ruler_Triangle.jpg","37","1","766"
"2","2","retrieval","new_objects","54","Embosser.jpg","37","1","978"
"2","2","retrieval","new_objects","55","Toblerone.jpg","37","1","888"
"2","2","retrieval","old_objects","56","Mitt_Blue.jpg","36","1","892"
"2","2","retrieval","old_objects","57","Lobster.jpg","36","1","852"
"2","2","retrieval","old_objects","58","Toy_Helicopter.jpg","36","1","1026"
"2","2","retrieval","old_objects","59","WaterColorPaintset.jpg","37","0","987"
"2","2","retrieval","old_objects","60","Arch.jpg","36","1","1003"
"2","2","retrieval","old_objects","62","Pear_Yellow.jpg","36","1","1049"
"2","2","retrieval","old_objects","63","Condom.jpg","36","1","821"
"2","2","retrieval","new_objects","64","Handcuffs.jpg","36","0","1117"
"2","2","retrieval","new_objects","65","Fencing_HelmetSwords.jpg","37","1","958"
"2","2","retrieval","new_objects","66","ShearsGarden.jpg","37","1","1195"
"2","2","retrieval","new_objects","67","Film_Roll.jpg","37","1","1019"
"2","2","retrieval","old_objects","68","Licorice.jpg","36","1","936"
"2","2","retrieval","new_objects","69","Mop.jpg","37","1","1013"
"2","2","retrieval","old_objects","70","Jar_Capers.jpg","36","1","791"
"2","2","retrieval","old_objects","71","Rock_Agate.jpg","36","1","894"
"2","2","retrieval","new_objects","72","Cauliflower.jpg","36","0","991"
"2","2","retrieval","old_objects","73","Ship_Model.jpg","36","1","1171"
"2","2","retrieval","new_objects","74","Bottle_Champagne.jpg","37","1","828"
"2","2","retrieval","new_objects","75","Necklace_Black.jpg","37","1","875"
"2","2","retrieval","new_objects","76","Hulahoop.jpg","37","1","773"
"2","2","retrieval","new_objects","77","Spool_Thread.jpg","37","1","791"
"2","2","retrieval","old_objects","78","Tube_Glue.jpg","37","0","767"
"2","2","retrieval","old_objects","79","NailPolish.jpg","36","1","866"
"2","2","retrieval","old_objects","80","Pillow_Plaid.jpg","37","0","833"
"2","2","retrieval","old_objects","81","Barrel_Upright.jpg","36","1","786"
"2","2","retrieval","old_objects","82","Noisemaker_Streamers.jpg","37","0","706"
"2","2","retrieval","old_objects","83","Bird_Parrot.jpg","36","1","805"
"2","2","retrieval","new_objects","84","Makeup_Compact.jpg","37","1","968"
"2","2","retrieval","old_objects","85","Pillow_Heart.jpg","36","1","918"
"2","2","retrieval","old_objects","86","Bucket_WoodenLight.jpg","36","1","833"
"2","2","retrieval","new_objects","87","Apple_Candy.jpg","37","1","831"
"2","2","retrieval","old_objects","88","Mailbox_Community.jpg","37","0","896"
"2","2","retrieval","old_objects","89","Autocreeper.jpg","36","1","1290"
"2","2","retrieval","new_objects","90","DryingMachine.jpg","37","1","1280"
"2","2","retrieval","new_objects","91","Mask_Viking.jpg","37","1","1155"
"2","2","retrieval","new_objects","92","Compact_Powder.jpg","37","1","1315"
"2","2","retrieval","old_objects","93","Oyster.jpg","36","1","863"
"2","2","retrieval","old_objects","94","PagodaModel.jpg","36","1","843"
"2","2","retrieval","new_objects","95","Bottle_Wine.jpg","36","0","1057"
"2","2","retrieval","old_objects","96","Shoes_WomenBoots.jpg","36","1","801"
"2","2","retrieval","old_objects","97","Tripod.jpg","36","1","968"
"2","2","retrieval","old_objects","98","Bellows.jpg","36","1","1016"
"2","2","retrieval","new_objects","99","Egg_Chocolate.jpg","37","1","844"
"2","2","retrieval","new_objects","100","MonkeyPuppet.jpg","37","1","895"
"2","2","retrieval","new_objects","101","Mirror_Carside.jpg","37","1","889"
"2","2","retrieval","new_objects","102","Clothespin_Red.jpg","36","0","979"
"2","2","retrieval","old_objects","103","Bone.jpg","36","1","831"
"2","2","retrieval","old_objects","104","Toy_Shark.jpg","37","0","926"
"2","2","retrieval","old_objects","105","Boots_Hiking.jpg","36","1","1005"
"2","2","retrieval","old_objects","106","CoolingFan_Engine2.jpg","36","1","1074"
"2","2","retrieval","new_objects","107","Guacamole.jpg","37","1","880"
"2","2","retrieval","new_objects","108","Screw.jpg","37","1","853"
"2","2","retrieval","new_objects","109","Match.jpg","37","1","834"
"2","2","retrieval","old_objects","110","Chair_Deck.jpg","37","0","742"
"2","2","retrieval","new_objects","111","Drum_Ramadan.jpg","36","0","826"
"2","2","retrieval","new_objects","112","Tray_Muffin.jpg","37","1","781"
"2","2","retrieval","new_objects","113","Weights_Dumbells.jpg","37","1","709"
"2","2","retrieval","old_objects","114","Rope_Manila.jpg","36","1","758"
"2","2","retrieval","old_objects","115","Tray_Metal.jpg","37","0","697"
"2","2","retrieval","old_objects","116","DVDPlayer.jpg","36","1","950"
"2","2","retrieval","new_objects","117","Lynx.jpg","37","1","818"
"2","2","retrieval","old_objects","118","Toy_DinosaurTRex.jpg","36","1","905"
"2","2","retrieval","old_objects","119","Toolbox_Old.jpg","36","1","788"
"2","2","retrieval","new_objects","120","Lychee.jpg","36","0","1026"
"2","2","retrieval","old_objects","121","Guitar_Acoustic.jpg","36","1","1033"
"2","2","retrieval","old_objects","123","TreeHouse.jpg","36","1","848"
"2","2","retrieval","old_objects","124","Brush_Toilet.jpg","37","0","963"
"2","2","retrieval","new_objects","125","Mailbox_Antique.jpg","37","1","845"
"2","2","retrieval","old_objects","126","Stick_Drum.jpg","36","1","817"
"2","2","retrieval","new_objects","127","Brush_Shoe.jpg","37","1","856"
"2","2","retrieval","old_objects","128","FlintIgniter.jpg","36","1","1286"
"2","2","retrieval","old_objects","129","Dragonfly.jpg","36","1","846"
"2","2","retrieval","new_objects","130","Sink_Bathroom.jpg","37","1","1034"
"2","2","retrieval","old_objects","131","GiftBow.jpg","36","1","1332"
"2","2","retrieval","old_objects","132","Ball_Tennis.jpg","36","1","846"
"2","2","retrieval","new_objects","133","SafetyPin.jpg","37","1","885"
"2","2","retrieval","new_objects","134","Box_Vials.jpg","37","1","852"
"2","2","retrieval","new_objects","135","Dress_Blue.jpg","37","1","790"
"2","2","retrieval","new_objects","136","DiaperChangingStation.jpg","37","1","1535"
"2","2","retrieval","old_objects","137","Origami_Boat.jpg","37","0","814"
"2","2","retrieval","old_objects","138","Toy_PandaPlushie.jpg","37","0","797"
"2","2","retrieval","old_objects","139","Shark_GreatWhite.jpg","36","1","886"
"2","2","retrieval","new_objects","140","PaintBrushAndPallette.jpg","36","0","972"
"2","2","retrieval","old_objects","141","Backpack_Suitcase.jpg","36","1","835"
"2","2","retrieval","new_objects","142","Dress_Cocktail.jpg","37","1","911"
"2","2","retrieval","old_objects","143","Toys_Lego.jpg","36","1","1079"
"2","2","retrieval","new_objects","144","Case_Pencil.jpg","37","1","828"
"2","2","retrieval","old_objects","145","SpiderWeb.jpg","37","0","1414"
"2","2","retrieval","new_objects","146","Mug_Ceramic.jpg","36","0","967"
"2","2","retrieval","new_objects","147","Belt.jpg","37","1","888"
"2","2","retrieval","new_objects","148","Fuse.jpg","37","1","875"
"2","2","retrieval","old_objects","149","Case_WoodenOrnate.jpg","36","1","880"
"2","2","retrieval","old_objects","150","Clock_Interior.jpg","36","1","1075"
"2","2","retrieval","new_objects","151","Nutcracker.jpg","37","1","865"
"2","2","retrieval","old_objects","152","Candy_Caramel.jpg","36","1","894"
"2","2","retrieval","old_objects","153","Shrub_Cedar.jpg","37","0","1094"
"2","2","retrieval","old_objects","154","Lilypad.jpg","37","0","868"
"2","2","retrieval","new_objects","155","Glass_Beer.jpg","37","1","859"
"2","2","retrieval","old_objects","156","Toy_Motorcycle.jpg","37","0","778"
"2","2","retrieval","new_objects","157","Jack.jpg","36","0","1004"
"2","2","retrieval","old_objects","158","Box_FirstAidOpen.jpg","36","1","1009"
"2","2","retrieval","old_objects","159","Makeup_Mascara.jpg","36","1","805"
"2","2","retrieval","new_objects","160","TeethMould.jpg","36","0","1146"
"2","2","retrieval","new_objects","161","Stingray.jpg","37","1","909"
"2","2","retrieval","old_objects","162","Crab.jpg","36","1","776"
"2","2","retrieval","new_objects","163","Switch_LightWhite.jpg","37","1","879"
"2","2","retrieval","old_objects","164","Inukshuk.jpg","37","0","1179"
"2","2","retrieval","new_objects","165","Snake_Cobra.jpg","37","1","861"
"2","2","retrieval","old_objects","166","Mat_Car.jpg","36","1","1001"
"2","2","retrieval","new_objects","167","Sign_Wetfloor.jpg","37","1","970"
"2","2","retrieval","new_objects","168","Camera_Antique.jpg","37","1","966"
"2","2","retrieval","new_objects","169","Grill_Electric.jpg","36","0","924"
"2","2","retrieval","new_objects","170","Snowboard.jpg","37","1","1171"
"2","2","retrieval","new_objects","171","Bottle_Baby.jpg","37","1","860"
"2","2","retrieval","new_objects","172","Plate_Wooden.jpg","37","1","869"
"2","2","retrieval","old_objects","173","Pliers_SlipJoint.jpg","36","1","930"
"2","2","retrieval","new_objects","174","Trumpet.jpg","37","1","947"
"2","2","retrieval","old_objects","175","Flowers_DryBouquet.jpg","37","0","941"
"2","2","retrieval","new_objects","176","DivingBoard.jpg","37","1","867"
"2","2","retrieval","old_objects","177","Bag_Saline.jpg","36","1","1238"
"2","2","retrieval","old_objects","178","Phone_Flip.jpg","36","1","932"
"2","2","retrieval","old_objects","179","Broom_Short.jpg","36","1","906"
"2","2","retrieval","old_objects","180","Feet.jpg","36","1","745"
"2","2","retrieval","old_objects","181","Heelpad.jpg","36","1","958"
"2","2","retrieval","old_objects","182","DentistOverheadLight.jpg","37","0","876"
"2","2","retrieval","new_objects","184","Cinnamonroll.jpg","37","1","941"
"2","2","retrieval","new_objects","185","PotatoMasher_Grate.jpg","37","1","928"
"2","2","retrieval","new_objects","186","Horn_Hunting.jpg","37","1","765"
"2","2","retrieval","new_objects","187","DartBoard.jpg","37","1","806"
"2","2","retrieval","old_objects","188","Stamp.jpg","36","1","1425"
"2","2","retrieval","old_objects","189","Key_Car.jpg","36","1","1032"
"2","2","retrieval","old_objects","190","LintRemover.jpg","37","0","876"
"2","2","retrieval","new_objects","191","Swan.jpg","36","0","968"
"2","2","retrieval","old_objects","192","Sink_Kitchen.jpg","37","0","1150"
"2","2","retrieval","old_objects","193","Easel.jpg","37","0","1235"
"2","2","retrieval","new_objects","194","GingerbreadMan.jpg","37","1","938"
"2","2","retrieval","new_objects","195","Toy_Witch.jpg","37","1","822"
"2","2","retrieval","new_objects","196","ToothPaste.jpg","37","1","954"
"2","2","retrieval","new_objects","197","Bottle_Spray.jpg","36","0","993"
"2","2","retrieval","old_objects","198","Walker_Blue.jpg","37","0","907"
"2","2","retrieval","old_objects","199","Cougar.jpg","36","1","811"
"2","2","retrieval","old_objects","200","Clock_Radioalarm.jpg","36","1","1196"
"2","2","retrieval","new_objects","201","Toy_DonkeyPlastic.jpg","37","1","923"
"2","2","retrieval","new_objects","202","Paddle_Bread.jpg","37","1","1214"
"2","2","retrieval","new_objects","203","Motorcycle.jpg","37","1","856"
"2","2","retrieval","old_objects","204","PeriodicTable.jpg","36","1","852"
"2","2","retrieval","old_objects","205","Platter_Vegetables.jpg","36","1","740"
"2","2","retrieval","old_objects","206","SolderingIron.jpg","36","1","1160"
"2","2","retrieval","new_objects","207","Shoes_Snow.jpg","37","1","1202"
"2","2","retrieval","old_objects","208","Cup_Latte.jpg","36","1","838"
"2","2","retrieval","new_objects","209","Squid_Pink.jpg","37","1","1171"
"2","2","retrieval","new_objects","210","LifeJacket_Orangejpg.jpg","36","0","921"
"2","2","retrieval","old_objects","211","Quartz.jpg","36","1","927"
"2","2","retrieval","old_objects","212","Toy_BeadMaze.jpg","37","0","1084"
"2","2","retrieval","new_objects","213","Toy_RobotClassic.jpg","37","1","832"
"2","2","retrieval","old_objects","214","Heater_Outdoor.jpg","37","0","800"
"2","2","retrieval","old_objects","215","Hammer_Reflex.jpg","37","0","757"
"2","2","retrieval","new_objects","216","RiceRaw.jpg","37","1","807"
"2","2","retrieval","new_objects","217","DusterFeather.jpg","37","1","872"
"2","2","retrieval","old_objects","218","Chicken_Dinner.jpg","36","1","1060"
"2","2","retrieval","new_objects","219","Perfume.jpg","37","1","797"
"2","2","retrieval","old_objects","220","PickupTruck.jpg","36","1","1166"
"2","2","retrieval","new_objects","221","Hottub.jpg","37","1","936"
"2","2","retrieval","new_objects","222","Crayon_Green.jpg","37","1","848"
"2","2","retrieval","new_objects","223","Plate_Children.jpg","37","1","706"
"2","2","retrieval","old_objects","224","Bird_Toucan.jpg","36","1","881"
"2","2","retrieval","new_objects","225","Toy_FigurineEngineer.jpg","37","1","782"
"2","2","retrieval","old_objects","226","Spoons_MeasuringAttached.jpg","37","0","1205"
"2","2","retrieval","new_objects","227","PencilSharpener.jpg","37","1","849"
"2","2","retrieval","old_objects","228","Dress_Party.jpg","37","0","963"
"2","2","retrieval","new_objects","229","Bus_School.jpg","37","1","1039"
"2","2","retrieval","old_objects","230","Chicken_FriedWing.jpg","36","1","799"
"2","2","retrieval","new_objects","231","Table_Pool.jpg","37","1","998"
"2","2","retrieval","old_objects","232","Mug_Travel.jpg","36","1","1348"
"2","2","retrieval","old_objects","233","TowelRack_Metal.jpg","37","0","885"
"2","2","retrieval","old_objects","234","ChalkLineTool.jpg","37","0","940"
"2","2","retrieval","new_objects","235","FireHydrant.jpg","37","1","801"
"2","2","retrieval","new_objects","236","Scissors.jpg","37","1","1088"
"2","2","retrieval","new_objects","237","Thermos_Decorated.jpg","37","1","802"
"2","2","retrieval","old_objects","238","Light_Studio.jpg","37","0","1128"
"2","2","retrieval","old_objects","239","GasBurner.jpg","37","0","811"
"2","2","retrieval","old_objects","240","ComputerKeyboard_Backspace.jpg","36","1","844"
"2","2","retrieval","new_objects","241","Pretzel_Knot.jpg","37","1","969"
"2","2","retrieval","new_objects","242","Strainer_Tea.jpg","37","1","890"
"2","2","retrieval","new_objects","243","Toy_FigurineSwing.jpg","37","1","946"
"2","2","retrieval","new_objects","245","DayPlanner.jpg","37","1","766"
"2","2","retrieval","new_objects","246","Chairs_Stacked.jpg","37","1","901"
"2","2","retrieval","new_objects","247","Crackers_Ritz.jpg","37","1","847"
"2","2","retrieval","new_objects","248","Bugle.jpg","37","1","1127"
"2","2","retrieval","new_objects","249","AngleGrinder.jpg","37","1","1003"
"2","2","retrieval","old_objects","250","Box_Wine.jpg","36","1","875"
"2","2","retrieval","new_objects","251","Origami_Bird.jpg","37","1","845"
"2","2","retrieval","old_objects","252","Axe.jpg","36","1","1268"
"2","2","retrieval","new_objects","253","Candle_ChristmasDecor.jpg","37","1","813"
"2","2","retrieval","new_objects","254","Jar_Strawberry.jpg","37","1","1008"
"2","2","retrieval","new_objects","255","Clave.jpg","37","1","986"
"2","2","retrieval","old_objects","256","Knife_Kitchen.jpg","36","1","928"
"2","2","retrieval","new_objects","257","ShakerShekere.jpg","37","1","734"
"2","2","retrieval","old_objects","258","Cheeseburger.jpg","36","1","775"
"2","2","retrieval","new_objects","259","Pen_Calligraphy.jpg","37","1","698"
"2","2","retrieval","new_objects","260","Ambulance.jpg","36","0","1114"
"2","2","retrieval","old_objects","261","DeepFryer.jpg","36","1","1395"
"2","2","retrieval","old_objects","262","Oven.jpg","36","1","837"
"2","2","retrieval","new_objects","263","Skates.jpg","36","0","1554"
"2","2","retrieval","old_objects","264","Archery_ArrowsBows.jpg","36","1","1002"
"2","2","retrieval","old_objects","265","Neckrest.jpg","36","1","1018"
"2","2","retrieval","old_objects","266","Vase_EarthToned.jpg","36","1","965"
"2","2","retrieval","old_objects","267","Harmonica.jpg","37","0","914"
"2","2","retrieval","old_objects","268","Avocado.jpg","37","0","1108"
"2","2","retrieval","new_objects","269","Cross.jpg","37","1","1185"
"2","2","retrieval","new_objects","270","LampPost_WhiteOrnate.jpg","37","1","1084"
"2","2","retrieval","old_objects","271","CanOpener.jpg","37","0","1129"
"2","2","retrieval","new_objects","272","Bicycle_Kids.jpg","36","0","1114"
"2","2","retrieval","new_objects","273","Bag_Groceries.jpg","37","1","951"
"2","2","retrieval","new_objects","274","Battery_AA.jpg","37","1","754"
"2","2","retrieval","old_objects","275","Book_Paper.jpg","36","1","1199"
"2","2","retrieval","new_objects","276","ShoppingCart.jpg","37","1","1025"
"2","2","retrieval","old_objects","277","Sheep.jpg","37","0","1024"
"2","2","retrieval","new_objects","278","Branches_Campfire.jpg","37","1","773"
"2","2","retrieval","new_objects","279","Toy_Lion.jpg","37","1","666"
"2","2","retrieval","new_objects","280","WateringCan_Antique.jpg","37","1","822"
"2","2","retrieval","new_objects","281","Hook_Ceiling.jpg","37","1","838"
"2","2","retrieval","old_objects","282","Leek.jpg","36","1","866"
"2","2","retrieval","new_objects","283","Box_FirstAid.jpg","37","1","729"
"2","2","retrieval","old_objects","284","Bullet.jpg","36","1","846"
"2","2","retrieval","old_objects","285","Stepper.jpg","37","0","910"
"2","2","retrieval","old_objects","286","Cannon.jpg","36","1","1330"
"2","2","retrieval","old_objects","287","OvenElement.jpg","37","0","768"
"2","2","retrieval","new_objects","288","BridgeWooden.jpg","37","1","956"
"2","2","retrieval","old_objects","289","Golf_Club.jpg","37","0","844"
"2","2","retrieval","new_objects","290","Clamp_Screw.jpg","37","1","988"
"2","2","retrieval","old_objects","291","Toy_RockingHorseBlack.jpg","37","0","1124"
"2","2","retrieval","new_objects","292","SeatBuckle.jpg","37","1","854"
"2","2","retrieval","new_objects","293","ToothBrush.jpg","37","1","950"
"2","2","retrieval","new_objects","294","Light_Fixtures.jpg","37","1","947"
"2","2","retrieval","new_objects","295","Staircase_Straight.jpg","37","1","823"
"2","2","retrieval","old_objects","296","Peeler.jpg","37","0","810"
"2","2","retrieval","old_objects","297","Mask_African.jpg","37","0","880"
"2","2","retrieval","old_objects","298","Corkscrew.jpg","37","0","845"
"2","2","retrieval","new_objects","299","Exercise_Stretch.jpg","37","1","814"
"2","2","retrieval","new_objects","300","Pipe_Pitch.jpg","37","1","909"
"2","2","retrieval","new_objects","301","Leaf_Clover.jpg","37","1","991"
"2","2","retrieval","old_objects","302","PedestalGreek.jpg","37","0","967"
"2","2","retrieval","old_objects","303","MonaLisa.jpg","36","1","868"
"2","2","retrieval","old_objects","304","Drum_Conga.jpg","36","1","816"
"2","2","retrieval","old_objects","306","Bag_Camera.jpg","36","1","900"
"2","2","retrieval","old_objects","307","DentalFloss.jpg","37","0","1109"
"2","2","retrieval","new_objects","308","Crossbow.jpg","37","1","1009"
"2","2","retrieval","old_objects","309","Bucket_WoodenDark.jpg","36","1","991"
"2","2","retrieval","old_objects","310","RadioactiveContainer.jpg","36","1","897"
"2","2","retrieval","new_objects","311","Lettuce_GreenLeaf.jpg","37","1","849"
"2","2","retrieval","new_objects","312","Plate_Ceramic.jpg","36","0","1227"
"2","2","retrieval","new_objects","313","Socks_Baby.jpg","37","1","811"
"2","2","retrieval","new_objects","314","Toy_Wooden rings.jpg","37","1","927"
"2","2","retrieval","old_objects","315","Bucket_Ice.jpg","37","0","947"
"2","2","retrieval","new_objects","316","PlayerFootball.jpg","37","1","784"
"2","2","retrieval","new_objects","317","Lantern_TeaBox.jpg","37","1","1097"
"2","2","retrieval","new_objects","318","WaterHeater.jpg","37","1","851"
"2","2","retrieval","old_objects","319","Awning.jpg","36","1","959"
"2","2","retrieval","old_objects","320","Puzzle_Tree.jpg","37","0","1206"
"2","2","retrieval","new_objects","321","ChewingGum.jpg","37","1","929"
"2","2","retrieval","new_objects","322","Pot_FlowerClay.jpg","37","1","1040"
"2","2","retrieval","new_objects","323","CementFinisher.jpg","36","0","930"
"2","2","retrieval","old_objects","324","Flower_Sun.jpg","37","0","819"
"2","2","retrieval","new_objects","325","TurkeyDinner.jpg","37","1","1165"
"2","2","retrieval","new_objects","326","FloorTile.jpg","37","1","866"
"2","2","retrieval","old_objects","327","Diode.jpg","37","0","780"
"2","2","retrieval","new_objects","328","Car_Sedan.jpg","37","1","757"
"2","2","retrieval","old_objects","329","Bottle_Blue.jpg","36","1","933"
"2","2","retrieval","new_objects","330","Flashlight.jpg","37","1","924"
"2","2","retrieval","old_objects","331","Lettuce_Romaine.jpg","36","1","866"
"2","2","retrieval","new_objects","332","Balcony.jpg","37","1","834"
"2","2","retrieval","new_objects","333","Toy_Train.jpg","37","1","870"
"2","2","retrieval","old_objects","334","SundaeBanana.jpg","36","1","890"
"2","2","retrieval","new_objects","335","Plum.jpg","37","1","1066"
"2","2","retrieval","new_objects","336","ChalkboardEraser.jpg","36","0","1164"
"2","2","retrieval","new_objects","337","Pliers_ViceGrip.jpg","37","1","791"
"2","2","retrieval","old_objects","338","Dresser.jpg","36","1","1161"
"2","2","retrieval","new_objects","339","Ruler_Wooden.jpg","37","1","928"
"2","2","retrieval","old_objects","340","Boots_KneeHigh.jpg","37","0","1048"
"2","2","retrieval","old_objects","341","PocketKnife.jpg","36","1","989"
"2","2","retrieval","old_objects","342","Tray_Medical.jpg","36","1","899"
"2","2","retrieval","old_objects","343","Keychain_Metal.jpg","37","0","1083"
"2","2","retrieval","new_objects","344","PharoahReplica.jpg","37","1","1012"
"2","2","retrieval","new_objects","345","Candy_Cane.jpg","36","0","989"
"2","2","retrieval","new_objects","346","Tetrahedron.jpg","37","1","811"
"2","2","retrieval","new_objects","347","Snail.jpg","36","0","1340"
"2","2","retrieval","old_objects","348","GatedEntrance.jpg","37","0","922"
"2","2","retrieval","old_objects","349","Shorts_Sports.jpg","36","1","874"
"2","2","retrieval","new_objects","350","Scroll.jpg","37","1","1135"
"2","2","retrieval","new_objects","351","Crutches.jpg","37","1","899"
"2","2","retrieval","old_objects","352","OnionRings.jpg","36","1","876"
"2","2","retrieval","old_objects","353","BoxTrailer.jpg","37","0","995"
"2","2","retrieval","new_objects","354","Caterpillar.jpg","37","1","872"
"2","2","retrieval","old_objects","355","Bottle_Bleach.jpg","37","0","707"
"2","2","demographics_block","gender","1","Bottle_Bleach.jpg","male","1","14112"
"2","2","demographics_block","age","1","Bottle_Bleach.jpg","26","1","14112"
"2","2","demographics_block","education","1","Bottle_Bleach.jpg","12","1","14112"
"2","2","demographics_block","left_right_handed","2","Bottle_Bleach.jpg","Right","1","6927"
"2","2","demographics_block","raceoption1","2","Bottle_Bleach.jpg","","1","6927"
"2","2","demographics_block","raceoption2","2","Bottle_Bleach.jpg","","1","6927"
"2","2","demographics_block","raceoption3","2","Bottle_Bleach.jpg","2","1","6927"
"2","2","demographics_block","raceoption4","2","Bottle_Bleach.jpg","","1","6927"
"2","2","demographics_block","raceoption5","2","Bottle_Bleach.jpg","","1","6927"
"2","2","demographics_block","raceoption6","2","Bottle_Bleach.jpg","","1","6927"
"2","2","demographics_block","raceoption7","2","Bottle_Bleach.jpg","","1","6927"
"2","2","demographics_block","raceoption8","2","Bottle_Bleach.jpg","","1","6927"
"2","2","demographics_block","raceoption9","2","Bottle_Bleach.jpg","","1","6927"
"2","2","demographics_block","raceother","2","Bottle_Bleach.jpg","","1","6927"
"2","2","demographics_block","raceother","2","Bottle_Bleach.jpg","","1","6927"
"2","2","demographics_block","english_language","2","Bottle_Bleach.jpg","Yes","1","6927"
"2","2","demographics_block","english_languageother","2","Bottle_Bleach.jpg","","1","6927"
"2","2","demographics_block","eyesight","3","Bottle_Bleach.jpg","Yes","1","4338"
"2","2","demographics_block","colorblind","3","Bottle_Bleach.jpg","No","1","4338"
"2","2","worker_id_block","worker_id_textbox","1","Bottle_Bleach.jpg","A2RVFMCKSSEHDV","1","4892"
"4","4","encoding","encoding","1","Clock_Radioalarm.jpg","3","0","1845"
"4","4","encoding","encoding","2","Lamp_TableWhite.jpg","1","0","1612"
"4","4","encoding","encoding","3","PagodaModel.jpg","2","0","1730"
"4","4","encoding","encoding","4","Backpack_Suitcase.jpg","1","0","1384"
"4","4","encoding","encoding","5","OvenElement.jpg","1","0","1473"
"4","4","encoding","encoding","6","DeepFryer.jpg","1","0","1022"
"4","4","encoding","encoding","7","Flower_Sun.jpg","3","0","1487"
"4","4","encoding","encoding","8","Heater_Outdoor.jpg","1","0","1574"
"4","4","encoding","encoding","9","Lobster.jpg","2","0","1952"
"4","4","encoding","encoding","10","Arch.jpg","2","0","2124"
"4","4","encoding","encoding","11","Oven.jpg","1","0","1353"
"4","4","encoding","encoding","12","Pillow_Plaid.jpg","1","0","865"
"4","4","encoding","encoding","13","Stepper.jpg","1","0","1062"
"4","4","encoding","encoding","14","Sink_Kitchen.jpg","1","0","795"
"4","4","encoding","encoding","15","Machine_Bread.jpg","1","0","1054"
"4","4","encoding","encoding","16","Bucket_Rusty.jpg","0","0","3000"
"4","4","encoding","encoding","17","Sandwich_Ham.jpg","1","0","984"
"4","4","encoding","encoding","18","Hat_Sheriff.jpg","1","0","943"
"4","4","encoding","encoding","19","StreetSweeper.jpg","1","0","788"
"4","4","encoding","encoding","20","Bag_Camera.jpg","1","0","692"
"4","4","encoding","encoding","21","Walker_Blue.jpg","1","0","699"
"4","4","encoding","encoding","22","Bone.jpg","1","0","942"
"4","4","encoding","encoding","23","Toy_PandaPlushie.jpg","3","0","2405"
"4","4","encoding","encoding","24","Toy_RockingHorseBlack.jpg","3","0","1040"
"4","4","encoding","encoding","25","Pear_Yellow.jpg","1","0","2015"
"4","4","encoding","encoding","26","MilkJug.jpg","1","0","954"
"4","4","encoding","encoding","27","Mask_African.jpg","2","0","1534"
"4","4","encoding","encoding","28","SundaeBanana.jpg","6","0","2686"
"4","4","encoding","encoding","29","Toy_StackingRing.jpg","2","0","1894"
"4","4","encoding","encoding","30","Guitar_Acoustic.jpg","1","0","1442"
"4","4","encoding","encoding","31","Oyster.jpg","1","0","1702"
"4","4","encoding","encoding","32","ChalkLineTool.jpg","1","0","1152"
"4","4","encoding","encoding","33","PocketKnife.jpg","0","0","3000"
"4","4","encoding","encoding","34","SpiderWeb.jpg","3","0","2972"
"4","4","encoding","encoding","35","Knife_Kitchen.jpg","3","0","2077"
"4","4","encoding","encoding","36","Peeler.jpg","1","0","2172"
"4","4","encoding","encoding","37","Ball_Tennis.jpg","1","0","876"
"4","4","encoding","encoding","38","DentistOverheadLight.jpg","1","0","882"
"4","4","encoding","encoding","39","Platter_Vegetables.jpg","4","0","2084"
"4","4","encoding","encoding","40","Cheeseburger.jpg","5","0","1849"
"4","4","encoding","encoding","41","Bucket_WoodenLight.jpg","1","0","1158"
"4","4","encoding","encoding","42","GatedEntrance.jpg","1","0","902"
"4","4","encoding","encoding","43","Bird_Parrot.jpg","6","0","1831"
"4","4","encoding","encoding","44","Awning.jpg","1","0","1196"
"4","4","encoding","encoding","45","RadioactiveContainer.jpg","2","0","1954"
"4","4","encoding","encoding","46","Avocado.jpg","2","0","1960"
"4","4","encoding","encoding","47","Brush_Toilet.jpg","1","0","1240"
"4","4","encoding","encoding","48","Bullet.jpg","2","0","2206"
"4","4","encoding","encoding","49","Toy_Shark.jpg","3","0","1781"
"4","4","encoding","encoding","50","Corkscrew.jpg","1","0","1444"
"4","4","encoding","encoding","51","Key_Car.jpg","1","0","916"
"4","4","encoding","encoding","52","Licorice.jpg","1","0","721"
"4","4","encoding","encoding","53","Bellows.jpg","1","0","792"
"4","4","encoding","encoding","54","Bag_Saline.jpg","1","0","1012"
"4","4","encoding","encoding","55","Hammer_Reflex.jpg","1","0","1053"
"4","4","encoding","encoding","56","Case_WoodenOrnate.jpg","3","0","1572"
"4","4","encoding","encoding","57","WaterColorPaintset.jpg","4","0","1571"
"4","4","encoding","encoding","58","Flowers_DryBouquet.jpg","5","0","1795"
"4","4","encoding","encoding","59","OnionRings.jpg","5","0","1862"
"4","4","encoding","encoding","60","Chair_Deck.jpg","1","0","1673"
"4","4","encoding","encoding","62","Drum_Conga.jpg","0","0","3000"
"4","4","encoding","encoding","63","Easel.jpg","1","0","2318"
"4","4","encoding","encoding","64","DVDPlayer.jpg","1","0","988"
"4","4","encoding","encoding","65","Autocreeper.jpg","1","0","789"
"4","4","encoding","encoding","66","Bottle_Bleach.jpg","1","0","859"
"4","4","encoding","encoding","67","Dolly.jpg","1","0","687"
"4","4","encoding","encoding","68","Man.jpg","3","0","2464"
"4","4","encoding","encoding","69","Chicken_Dinner.jpg","4","0","2064"
"4","4","encoding","encoding","70","Puzzle_Tree.jpg","5","0","2130"
"4","4","encoding","encoding","71","Boots_Hiking.jpg","1","0","1448"
"4","4","encoding","encoding","72","Lilypad.jpg","3","0","1813"
"4","4","encoding","encoding","73","Partition.jpg","5","0","1864"
"4","4","encoding","encoding","74","LintRemover.jpg","1","0","1504"
"4","4","encoding","encoding","75","Vase_EarthToned.jpg","3","0","1596"
"4","4","encoding","encoding","76","Harmonica.jpg","1","0","1015"
"4","4","encoding","encoding","77","Milkshake_StrawberryStraw.jpg","7","0","2882"
"4","4","encoding","encoding","78","Tray_Medical.jpg","1","0","1206"
"4","4","encoding","encoding","79","Rope_Manila.jpg","1","0","1159"
"4","4","encoding","encoding","80","Mat_Car.jpg","1","0","750"
"4","4","encoding","encoding","81","Statue_Jesus.jpg","3","0","2759"
"4","4","encoding","encoding","82","PickupTruck.jpg","3","0","2234"
"4","4","encoding","encoding","83","CanOpener.jpg","1","0","1129"
"4","4","encoding","encoding","84","Axe.jpg","1","0","788"
"4","4","encoding","encoding","85","PeriodicTable.jpg","3","0","2991"
"4","4","encoding","encoding","86","ComputerKeyboard_Backspace.jpg","1","0","1455"
"4","4","encoding","encoding","87","CartonEggs.jpg","1","0","758"
"4","4","encoding","encoding","88","Stick_IceHockey.jpg","1","0","673"
"4","4","encoding","encoding","89","Seashell_AlternateTellin.jpg","3","0","2446"
"4","4","encoding","encoding","90","Keychain_Metal.jpg","1","0","1319"
"4","4","encoding","encoding","91","Toy_SandRake.jpg","1","0","806"
"4","4","encoding","encoding","92","Neckrest.jpg","1","0","1242"
"4","4","encoding","encoding","93","SolderingIron.jpg","1","0","657"
"4","4","encoding","encoding","94","Toy_Motorcycle.jpg","2","0","2033"
"4","4","encoding","encoding","95","Quartz.jpg","0","0","3000"
"4","4","encoding","encoding","96","Cup_Latte.jpg","5","0","2349"
"4","4","encoding","encoding","97","CoolingFan_Engine2.jpg","1","0","1283"
"4","4","encoding","encoding","98","Bucket_Ice.jpg","1","0","534"
"4","4","encoding","encoding","99","Inukshuk.jpg","3","0","1800"
"4","4","encoding","encoding","100","Noisemaker_Streamers.jpg","5","0","1499"
"4","4","encoding","encoding","101","Pillow_Heart.jpg","3","0","2385"
"4","4","encoding","encoding","102","Dragonfly.jpg","6","0","1947"
"4","4","encoding","encoding","103","Bottle_Blue.jpg","1","0","1268"
"4","4","encoding","encoding","104","Mitt_Blue.jpg","1","0","739"
"4","4","encoding","encoding","105","Bucket_WoodenDark.jpg","1","0","628"
"4","4","encoding","encoding","106","Toolbox_Old.jpg","1","0","727"
"4","4","encoding","encoding","107","MonaLisa.jpg","4","0","1968"
"4","4","encoding","encoding","108","Spoons_MeasuringAttached.jpg","1","0","810"
"4","4","encoding","encoding","109","Barrel_Upright.jpg","1","0","854"
"4","4","encoding","encoding","110","Lettuce_Romaine.jpg","1","0","1228"
"4","4","encoding","encoding","111","Toy_BlocksPlastic Colourful.jpg","3","0","1550"
"4","4","encoding","encoding","112","Archery_ArrowsBows.jpg","1","0","894"
"4","4","encoding","encoding","113","Makeup_Mascara.jpg","1","0","1007"
"4","4","encoding","encoding","114","Chicken_FriedWing.jpg","1","0","2060"
"4","4","encoding","encoding","115","Toy_BeadMaze.jpg","3","0","1490"
"4","4","encoding","encoding","116","DentalFloss.jpg","1","0","1172"
"4","4","encoding","encoding","117","Boots_KneeHigh.jpg","1","0","1134"
"4","4","encoding","encoding","118","Tray_Metal.jpg","1","0","648"
"4","4","encoding","encoding","119","GasBurner.jpg","1","0","1143"
"4","4","encoding","encoding","120","Cheque.jpg","1","0","1104"
"4","4","encoding","encoding","121","Tripod.jpg","1","0","748"
"4","4","encoding","encoding","123","Sheep.jpg","5","0","1814"
"4","4","encoding","encoding","124","Box_Staples.jpg","1","0","1095"
"4","4","encoding","encoding","125","Shrub_Cedar.jpg","3","0","1986"
"4","4","encoding","encoding","126","Book_Paper.jpg","1","0","1560"
"4","4","encoding","encoding","127","Box_Wine.jpg","1","0","793"
"4","4","encoding","encoding","128","Condom.jpg","1","0","1252"
"4","4","encoding","encoding","129","Jar_Capers.jpg","1","0","982"
"4","4","encoding","encoding","130","Mailbox_Community.jpg","1","0","1548"
"4","4","encoding","encoding","131","FlintIgniter.jpg","1","0","878"
"4","4","encoding","encoding","132","Golf_Club.jpg","1","0","590"
"4","4","encoding","encoding","133","PedestalGreek.jpg","4","0","2249"
"4","4","encoding","encoding","134","Rag.jpg","1","0","2448"
"4","4","encoding","encoding","135","Crab.jpg","3","0","1962"
"4","4","encoding","encoding","136","Stick_Drum.jpg","1","0","1626"
"4","4","encoding","encoding","137","Bottle_Plastic.jpg","1","0","730"
"4","4","encoding","encoding","138","Faucet.jpg","1","0","916"
"4","4","encoding","encoding","139","Broom_Short.jpg","1","0","653"
"4","4","encoding","encoding","140","DogFood.jpg","1","0","1041"
"4","4","encoding","encoding","141","TowerEiffel.jpg","5","0","2418"
"4","4","encoding","encoding","142","Cougar.jpg","6","0","1653"
"4","4","encoding","encoding","143","Shorts_Sports.jpg","1","0","1020"
"4","4","encoding","encoding","144","Pliers_SlipJoint.jpg","1","0","601"
"4","4","encoding","encoding","145","Origami_Boat.jpg","1","0","968"
"4","4","encoding","encoding","146","Bagel.jpg","5","0","2335"
"4","4","encoding","encoding","147","Mug_Travel.jpg","1","0","1860"
"4","4","encoding","encoding","148","Carousel copy.jpg","4","0","1398"
"4","4","encoding","encoding","149","Shark_GreatWhite.jpg","5","0","1923"
"4","4","encoding","encoding","150","Heelpad.jpg","1","0","1529"
"4","4","encoding","encoding","151","Diode.jpg","1","0","581"
"4","4","encoding","encoding","152","Rock_Agate.jpg","5","0","1651"
"4","4","encoding","encoding","153","Toys_Lego.jpg","4","0","1781"
"4","4","encoding","encoding","154","GiftBow.jpg","2","0","1651"
"4","4","encoding","encoding","155","Sign_HumpBridgeAhead.jpg","1","0","1304"
"4","4","encoding","encoding","156","Tube_Glue.jpg","1","0","707"
"4","4","encoding","encoding","157","Bird_Toucan.jpg","6","0","1706"
"4","4","encoding","encoding","158","Dresser.jpg","4","0","1943"
"4","4","encoding","encoding","159","Stamp.jpg","1","0","1277"
"4","4","encoding","encoding","160","Ship_Model.jpg","3","0","1602"
"4","4","encoding","encoding","161","TowelRack_Metal.jpg","1","0","923"
"4","4","encoding","encoding","162","Shoes_WomenBoots.jpg","3","0","1996"
"4","4","encoding","encoding","163","NailPolish.jpg","2","0","1317"
"4","4","encoding","encoding","164","Leek.jpg","1","0","861"
"4","4","encoding","encoding","165","Box_FirstAidOpen.jpg","1","0","1032"
"4","4","encoding","encoding","166","Phone_Flip.jpg","0","0","3000"
"4","4","encoding","encoding","167","BoxTrailer.jpg","1","0","1250"
"4","4","encoding","encoding","168","Candy_Caramel.jpg","5","0","2350"
"4","4","encoding","encoding","169","Clock_Interior.jpg","1","0","2238"
"4","4","encoding","encoding","170","TireRims.jpg","1","0","578"
"4","4","encoding","encoding","171","Light_Studio.jpg","1","0","652"
"4","4","encoding","encoding","172","TreeHouse.jpg","5","0","2030"
"4","4","encoding","encoding","173","Cannon.jpg","3","0","1537"
"4","4","encoding","encoding","174","Toy_Helicopter.jpg","4","0","1974"
"4","4","encoding","encoding","175","Dress_Party.jpg","7","0","1926"
"4","4","encoding","encoding","176","Feet.jpg","1","0","1534"
"4","4","encoding","encoding","177","Toy_DinosaurTRex.jpg","3","0","1314"
"4","4","retrieval","new_objects","1","Pliers_ViceGrip.jpg","36","0","873"
"4","4","retrieval","new_objects","2","Shoes_Snow.jpg","37","1","901"
"4","4","retrieval","new_objects","3","LampPost_WhiteOrnate.jpg","37","1","896"
"4","4","retrieval","old_objects","4","Awning.jpg","36","1","893"
"4","4","retrieval","old_objects","5","Toys_Lego.jpg","36","1","539"
"4","4","retrieval","old_objects","6","Toy_PandaPlushie.jpg","36","1","811"
"4","4","retrieval","old_objects","7","Condom.jpg","36","1","621"
"4","4","retrieval","old_objects","8","FlintIgniter.jpg","36","1","716"
"4","4","retrieval","old_objects","9","Toy_Shark.jpg","36","1","722"
"4","4","retrieval","old_objects","10","Oven.jpg","36","1","593"
"4","4","retrieval","new_objects","11","Strainer_Tea.jpg","37","1","933"
"4","4","retrieval","new_objects","12","Belt.jpg","37","1","922"
"4","4","retrieval","new_objects","13","Swan.jpg","37","1","717"
"4","4","retrieval","old_objects","14","Partition.jpg","36","1","582"
"4","4","retrieval","old_objects","15","Mat_Car.jpg","36","1","658"
"4","4","retrieval","old_objects","16","Bucket_WoodenLight.jpg","36","1","541"
"4","4","retrieval","new_objects","17","Pen_Calligraphy.jpg","37","1","814"
"4","4","retrieval","new_objects","18","Handcuffs.jpg","36","0","861"
"4","4","retrieval","new_objects","19","Outhouse.jpg","37","1","1087"
"4","4","retrieval","old_objects","20","Key_Car.jpg","37","0","624"
"4","4","retrieval","new_objects","21","Ruler_Wooden.jpg","37","1","1011"
"4","4","retrieval","new_objects","22","Crayon_Green.jpg","37","1","874"
"4","4","retrieval","old_objects","23","CoolingFan_Engine2.jpg","36","1","736"
"4","4","retrieval","old_objects","24","DentalFloss.jpg","36","1","709"
"4","4","retrieval","new_objects","25","Tetrahedron.jpg","37","1","676"
"4","4","retrieval","old_objects","26","GatedEntrance.jpg","36","1","720"
"4","4","retrieval","old_objects","27","Toy_BeadMaze.jpg","36","1","669"
"4","4","retrieval","old_objects","28","Bellows.jpg","36","1","644"
"4","4","retrieval","old_objects","29","Dress_Party.jpg","36","1","570"
"4","4","retrieval","old_objects","30","OnionRings.jpg","36","1","576"
"4","4","retrieval","new_objects","31","DivingBoard.jpg","37","1","918"
"4","4","retrieval","new_objects","32","Candle_ChristmasDecor.jpg","37","1","597"
"4","4","retrieval","new_objects","33","Embosser.jpg","37","1","737"
"4","4","retrieval","old_objects","34","TireRims.jpg","36","1","558"
"4","4","retrieval","old_objects","35","DeepFryer.jpg","36","1","722"
"4","4","retrieval","old_objects","36","Box_Wine.jpg","36","1","612"
"4","4","retrieval","old_objects","37","Flowers_DryBouquet.jpg","36","1","690"
"4","4","retrieval","new_objects","38","Plate_Ceramic.jpg","37","1","685"
"4","4","retrieval","old_objects","39","Corkscrew.jpg","36","1","836"
"4","4","retrieval","old_objects","40","Bag_Camera.jpg","36","1","636"
"4","4","retrieval","old_objects","41","Puzzle_Tree.jpg","36","1","556"
"4","4","retrieval","old_objects","42","Toy_Helicopter.jpg","36","1","546"
"4","4","retrieval","new_objects","43","Candy_Cane.jpg","37","1","593"
"4","4","retrieval","old_objects","44","CartonEggs.jpg","36","1","596"
"4","4","retrieval","old_objects","45","Flower_Sun.jpg","36","1","659"
"4","4","retrieval","new_objects","46","Guacamole.jpg","37","1","646"
"4","4","retrieval","new_objects","47","Motorcycle.jpg","37","1","765"
"4","4","retrieval","new_objects","48","SafetyPin.jpg","37","1","601"
"4","4","retrieval","new_objects","49","Toy_DonkeyPlastic.jpg","37","1","667"
"4","4","retrieval","new_objects","50","Lynx.jpg","36","0","669"
"4","4","retrieval","new_objects","51","Exercise_Stretch.jpg","37","1","857"
"4","4","retrieval","old_objects","52","Makeup_Mascara.jpg","36","1","708"
"4","4","retrieval","new_objects","53","Snake_Cobra.jpg","37","1","830"
"4","4","retrieval","new_objects","54","RiceRaw.jpg","37","1","645"
"4","4","retrieval","old_objects","55","Autocreeper.jpg","36","1","932"
"4","4","retrieval","new_objects","56","Makeup_Compact.jpg","37","1","681"
"4","4","retrieval","new_objects","57","Light_Fixtures.jpg","37","1","772"
"4","4","retrieval","old_objects","58","DogFood.jpg","36","1","613"
"4","4","retrieval","new_objects","59","BridgeWooden.jpg","37","1","590"
"4","4","retrieval","new_objects","60","Match.jpg","37","1","777"
"4","4","retrieval","old_objects","62","Easel.jpg","36","1","946"
"4","4","retrieval","new_objects","63","DiaperChangingStation.jpg","37","1","621"
"4","4","retrieval","old_objects","64","Boots_Hiking.jpg","36","1","578"
"4","4","retrieval","old_objects","65","Tripod.jpg","36","1","533"
"4","4","retrieval","new_objects","66","Bottle_Spray.jpg","37","1","688"
"4","4","retrieval","old_objects","67","Harmonica.jpg","37","0","804"
"4","4","retrieval","new_objects","68","PotatoMasher_Grate.jpg","37","1","803"
"4","4","retrieval","new_objects","69","Drum_Ramadan.jpg","36","0","638"
"4","4","retrieval","old_objects","70","Case_WoodenOrnate.jpg","36","1","591"
"4","4","retrieval","new_objects","71","PizzaCutter.jpg","37","1","722"
"4","4","retrieval","old_objects","72","Noisemaker_Streamers.jpg","36","1","692"
"4","4","retrieval","new_objects","73","Flashlight.jpg","37","1","695"
"4","4","retrieval","new_objects","74","PharoahReplica.jpg","37","1","788"
"4","4","retrieval","new_objects","75","Leaf_Clover.jpg","37","1","663"
"4","4","retrieval","new_objects","76","Spool_Thread.jpg","37","1","651"
"4","4","retrieval","new_objects","77","Ruler_Triangle.jpg","36","0","681"
"4","4","retrieval","old_objects","78","Seashell_AlternateTellin.jpg","36","1","651"
"4","4","retrieval","new_objects","79","DayPlanner.jpg","37","1","613"
"4","4","retrieval","old_objects","80","Toy_Motorcycle.jpg","36","1","723"
"4","4","retrieval","new_objects","81","Pipe_Pitch.jpg","37","1","584"
"4","4","retrieval","new_objects","82","Crib_Standard.jpg","37","1","669"
"4","4","retrieval","new_objects","83","Cross.jpg","37","1","606"
"4","4","retrieval","new_objects","84","Lettuce_GreenLeaf.jpg","37","1","789"
"4","4","retrieval","new_objects","85","Compact_Powder.jpg","37","1","876"
"4","4","retrieval","old_objects","86","MonaLisa.jpg","36","1","560"
"4","4","retrieval","old_objects","87","Cup_Latte.jpg","36","1","572"
"4","4","retrieval","old_objects","88","Clock_Radioalarm.jpg","36","1","656"
"4","4","retrieval","old_objects","89","Candy_Caramel.jpg","36","1","619"
"4","4","retrieval","old_objects","90","SolderingIron.jpg","36","1","745"
"4","4","retrieval","old_objects","91","OvenElement.jpg","36","1","668"
"4","4","retrieval","old_objects","92","Archery_ArrowsBows.jpg","36","1","593"
"4","4","retrieval","old_objects","93","Box_FirstAidOpen.jpg","36","1","744"
"4","4","retrieval","old_objects","94","Bucket_Rusty.jpg","37","0","848"
"4","4","retrieval","new_objects","95","Bottle_Champagne.jpg","37","1","1008"
"4","4","retrieval","old_objects","96","Heater_Outdoor.jpg","36","1","756"
"4","4","retrieval","new_objects","97","Paddle_Bread.jpg","37","1","799"
"4","4","retrieval","old_objects","98","Dolly.jpg","36","1","610"
"4","4","retrieval","old_objects","99","WaterColorPaintset.jpg","37","0","694"
"4","4","retrieval","old_objects","100","Cannon.jpg","36","1","663"
"4","4","retrieval","new_objects","101","Mug_Ceramic.jpg","37","1","685"
"4","4","retrieval","old_objects","102","Toy_SandRake.jpg","36","1","672"
"4","4","retrieval","old_objects","103","PocketKnife.jpg","36","1","591"
"4","4","retrieval","old_objects","104","Stamp.jpg","36","1","569"
"4","4","retrieval","new_objects","105","GingerbreadMan.jpg","37","1","661"
"4","4","retrieval","old_objects","106","MilkJug.jpg","36","1","665"
"4","4","retrieval","new_objects","107","Bicycle_Kids.jpg","36","0","767"
"4","4","retrieval","old_objects","108","Sheep.jpg","36","1","560"
"4","4","retrieval","new_objects","109","Jar_Strawberry.jpg","37","1","611"
"4","4","retrieval","old_objects","110","Neckrest.jpg","36","1","717"
"4","4","retrieval","old_objects","111","Sign_HumpBridgeAhead.jpg","36","1","799"
"4","4","retrieval","new_objects","112","Case_Pencil.jpg","37","1","570"
"4","4","retrieval","new_objects","113","Grill_Electric.jpg","36","0","633"
"4","4","retrieval","new_objects","114","Brush_Shoe.jpg","37","1","699"
"4","4","retrieval","old_objects","115","Oyster.jpg","36","1","554"
"4","4","retrieval","new_objects","116","Grape.jpg","37","1","616"
"4","4","retrieval","old_objects","117","Man.jpg","36","1","551"
"4","4","retrieval","old_objects","118","GiftBow.jpg","36","1","569"
"4","4","retrieval","old_objects","119","Barrel_Upright.jpg","36","1","568"
"4","4","retrieval","new_objects","120","WaterHeater.jpg","36","0","778"
"4","4","retrieval","old_objects","121","Chicken_Dinner.jpg","36","1","774"
"4","4","retrieval","new_objects","123","SeatBuckle.jpg","36","0","635"
"4","4","retrieval","old_objects","124","Box_Staples.jpg","36","1","708"
"4","4","retrieval","old_objects","125","Toy_StackingRing.jpg","36","1","696"
"4","4","retrieval","new_objects","126","Perfume.jpg","37","1","597"
"4","4","retrieval","new_objects","127","Crutches.jpg","36","0","841"
"4","4","retrieval","new_objects","128","DryingMachine.jpg","36","0","599"
"4","4","retrieval","new_objects","129","Notepad.jpg","36","0","934"
"4","4","retrieval","old_objects","130","Dragonfly.jpg","36","1","647"
"4","4","retrieval","new_objects","131","Bottle_Baby.jpg","37","1","622"
"4","4","retrieval","old_objects","132","Bottle_Blue.jpg","36","1","677"
"4","4","retrieval","old_objects","133","Vase_EarthToned.jpg","36","1","695"
"4","4","retrieval","new_objects","134","Toy_Lion.jpg","37","1","616"
"4","4","retrieval","new_objects","135","Toy_Train.jpg","36","0","833"
"4","4","retrieval","old_objects","136","Bullet.jpg","36","1","702"
"4","4","retrieval","new_objects","137","DryRack_Clothes.jpg","37","1","650"
"4","4","retrieval","new_objects","138","ChalkboardEraser.jpg","37","1","1062"
"4","4","retrieval","new_objects","139","Sink_Bathroom.jpg","37","1","649"
"4","4","retrieval","old_objects","140","Feet.jpg","36","1","565"
"4","4","retrieval","old_objects","141","Bird_Toucan.jpg","36","1","557"
"4","4","retrieval","old_objects","142","Crab.jpg","36","1","531"
"4","4","retrieval","old_objects","143","Cheque.jpg","36","1","601"
"4","4","retrieval","old_objects","144","Mug_Travel.jpg","36","1","553"
"4","4","retrieval","new_objects","145","TeethMould.jpg","37","1","710"
"4","4","retrieval","old_objects","146","Pillow_Plaid.jpg","36","1","741"
"4","4","retrieval","new_objects","147","Screw.jpg","37","1","751"
"4","4","retrieval","old_objects","148","Chicken_FriedWing.jpg","37","0","594"
"4","4","retrieval","new_objects","149","Mailbox_Antique.jpg","37","1","867"
"4","4","retrieval","new_objects","150","Hook_Ceiling.jpg","37","1","773"
"4","4","retrieval","old_objects","151","Broom_Short.jpg","36","1","586"
"4","4","retrieval","old_objects","152","Platter_Vegetables.jpg","36","1","531"
"4","4","retrieval","new_objects","153","Necklace_Black.jpg","37","1","591"
"4","4","retrieval","old_objects","154","Phone_Flip.jpg","36","1","636"
"4","4","retrieval","new_objects","155","ToothPaste.jpg","37","1","583"
"4","4","retrieval","new_objects","156","Magnifying_Glass.jpg","37","1","700"
"4","4","retrieval","new_objects","157","EspressoMachine.jpg","37","1","1009"
"4","4","retrieval","new_objects","158","TurkeyDinner.jpg","37","1","785"
"4","4","retrieval","old_objects","159","Shrub_Cedar.jpg","36","1","660"
"4","4","retrieval","old_objects","160","Milkshake_StrawberryStraw.jpg","36","1","578"
"4","4","retrieval","old_objects","161","Carousel copy.jpg","36","1","530"
"4","4","retrieval","new_objects","162","Mop.jpg","37","1","755"
"4","4","retrieval","new_objects","163","PoliceTape.jpg","37","1","726"
"4","4","retrieval","new_objects","164","Socks_Baby.jpg","37","1","720"
"4","4","retrieval","old_objects","165","Inukshuk.jpg","36","1","625"
"4","4","retrieval","old_objects","166","Boots_KneeHigh.jpg","36","1","548"
"4","4","retrieval","new_objects","167","Clamp_Screw.jpg","36","0","1141"
"4","4","retrieval","old_objects","168","PeriodicTable.jpg","36","1","653"
"4","4","retrieval","new_objects","169","FireHydrant.jpg","37","1","614"
"4","4","retrieval","new_objects","170","Staircase_Straight.jpg","37","1","633"
"4","4","retrieval","new_objects","171","CementFinisher.jpg","37","1","1068"
"4","4","retrieval","old_objects","172","CanOpener.jpg","36","1","671"
"4","4","retrieval","new_objects","173","ChewingGum.jpg","37","1","598"
"4","4","retrieval","new_objects","174","Backhoe.jpg","37","1","737"
"4","4","retrieval","new_objects","175","Wontons.jpg","36","0","618"
"4","4","retrieval","old_objects","176","TreeHouse.jpg","36","1","577"
"4","4","retrieval","new_objects","177","Toy_DogBall.jpg","37","1","585"
"4","4","retrieval","old_objects","178","Tray_Medical.jpg","36","1","599"
"4","4","retrieval","old_objects","179","Toy_RockingHorseBlack.jpg","36","1","555"
"4","4","retrieval","new_objects","180","Car_Sedan.jpg","37","1","591"
"4","4","retrieval","new_objects","181","Apple_Candy.jpg","37","1","646"
"4","4","retrieval","old_objects","182","GasBurner.jpg","36","1","609"
"4","4","retrieval","new_objects","184","Bus_School.jpg","37","1","558"
"4","4","retrieval","new_objects","185","Mask_Viking.jpg","37","1","677"
"4","4","retrieval","new_objects","186","Gauge.jpg","36","0","761"
"4","4","retrieval","old_objects","187","TowerEiffel.jpg","36","1","556"
"4","4","retrieval","old_objects","188","Pliers_SlipJoint.jpg","36","1","546"
"4","4","retrieval","new_objects","189","Bugle.jpg","37","1","811"
"4","4","retrieval","new_objects","190","Box_Vials.jpg","37","1","844"
"4","4","retrieval","new_objects","191","Table_Pool.jpg","37","1","643"
"4","4","retrieval","new_objects","192","Glove_Rubber.jpg","37","1","858"
"4","4","retrieval","new_objects","193","Tambourine.jpg","37","1","709"
"4","4","retrieval","new_objects","194","Bottle_Wine.jpg","37","1","716"
"4","4","retrieval","new_objects","195","DoorBell.jpg","37","1","650"
"4","4","retrieval","new_objects","196","Jack.jpg","36","0","932"
"4","4","retrieval","old_objects","197","Diode.jpg","36","1","582"
"4","4","retrieval","new_objects","198","Switch_LightWhite.jpg","37","1","561"
"4","4","retrieval","old_objects","199","PickupTruck.jpg","36","1","682"
"4","4","retrieval","new_objects","200","Toy_FigurineSwing.jpg","37","1","643"
"4","4","retrieval","new_objects","201","Origami_Bird.jpg","37","1","785"
"4","4","retrieval","new_objects","202","Printer.jpg","37","1","862"
"4","4","retrieval","old_objects","203","Spoons_MeasuringAttached.jpg","36","1","664"
"4","4","retrieval","old_objects","204","RadioactiveContainer.jpg","36","1","633"
"4","4","retrieval","old_objects","205","Golf_Club.jpg","36","1","578"
"4","4","retrieval","new_objects","206","Battery_AA.jpg","36","0","781"
"4","4","retrieval","new_objects","207","Camera_Antique.jpg","37","1","809"
"4","4","retrieval","old_objects","208","SundaeBanana.jpg","36","1","1133"
"4","4","retrieval","new_objects","209","Dress_Cocktail.jpg","37","1","826"
"4","4","retrieval","old_objects","210","Shark_GreatWhite.jpg","36","1","627"
"4","4","retrieval","old_objects","211","Brush_Toilet.jpg","36","1","685"
"4","4","retrieval","new_objects","212","AirCompressor.jpg","37","1","929"
"4","4","retrieval","new_objects","213","PlayerFootball.jpg","37","1","706"
"4","4","retrieval","new_objects","214","Dress_Blue.jpg","37","1","976"
"4","4","retrieval","new_objects","215","Scissors.jpg","37","1","727"
"4","4","retrieval","new_objects","216","MonkeyPuppet.jpg","37","1","707"
"4","4","retrieval","old_objects","217","Lobster.jpg","36","1","585"
"4","4","retrieval","new_objects","218","AngleGrinder.jpg","36","0","622"
"4","4","retrieval","new_objects","219","DusterFeather.jpg","36","0","1248"
"4","4","retrieval","old_objects","220","Licorice.jpg","36","1","770"
"4","4","retrieval","old_objects","221","Chair_Deck.jpg","36","1","677"
"4","4","retrieval","old_objects","222","Cougar.jpg","36","1","635"
"4","4","retrieval","new_objects","223","Cinnamonroll.jpg","37","1","744"
"4","4","retrieval","old_objects","224","BoxTrailer.jpg","36","1","848"
"4","4","retrieval","old_objects","225","Axe.jpg","36","1","607"
"4","4","retrieval","old_objects","226","Sink_Kitchen.jpg","36","1","619"
"4","4","retrieval","old_objects","227","Backpack_Suitcase.jpg","36","1","664"
"4","4","retrieval","old_objects","228","Bottle_Plastic.jpg","36","1","595"
"4","4","retrieval","new_objects","229","FloorTile.jpg","37","1","604"
"4","4","retrieval","old_objects","230","Ship_Model.jpg","36","1","634"
"4","4","retrieval","new_objects","231","Toy_Wooden rings.jpg","36","0","961"
"4","4","retrieval","new_objects","232","Trunk.jpg","37","1","839"
"4","4","retrieval","new_objects","233","Horn_Hunting.jpg","36","0","865"
"4","4","retrieval","old_objects","234","Tray_Metal.jpg","36","1","694"
"4","4","retrieval","old_objects","235","PedestalGreek.jpg","36","1","572"
"4","4","retrieval","new_objects","236","Pretzel_Knot.jpg","36","0","972"
"4","4","retrieval","old_objects","237","Origami_Boat.jpg","36","1","794"
"4","4","retrieval","old_objects","238","Pillow_Heart.jpg","36","1","664"
"4","4","retrieval","new_objects","239","Crossbow.jpg","36","0","771"
"4","4","retrieval","new_objects","240","Clip_Chip.jpg","37","1","826"
"4","4","retrieval","new_objects","241","Box_FirstAid.jpg","37","1","916"
"4","4","retrieval","new_objects","242","Snail.jpg","37","1","773"
"4","4","retrieval","old_objects","243","Guitar_Acoustic.jpg","36","1","647"
"4","4","retrieval","old_objects","245","Bucket_Ice.jpg","37","0","898"
"4","4","retrieval","new_objects","246","Clave.jpg","37","1","771"
"4","4","retrieval","old_objects","247","Peeler.jpg","36","1","612"
"4","4","retrieval","new_objects","248","Scroll.jpg","37","1","694"
"4","4","retrieval","new_objects","249","LifeJacket_Orangejpg.jpg","37","1","748"
"4","4","retrieval","old_objects","250","ChalkLineTool.jpg","36","1","775"
"4","4","retrieval","old_objects","251","TowelRack_Metal.jpg","36","1","618"
"4","4","retrieval","old_objects","252","Bottle_Bleach.jpg","36","1","635"
"4","4","retrieval","old_objects","253","Stepper.jpg","36","1","706"
"4","4","retrieval","old_objects","254","Tube_Glue.jpg","36","1","563"
"4","4","retrieval","old_objects","255","Lilypad.jpg","36","1","685"
"4","4","retrieval","old_objects","256","DVDPlayer.jpg","36","1","766"
"4","4","retrieval","new_objects","257","Toy_Witch.jpg","37","1","753"
"4","4","retrieval","old_objects","258","Machine_Bread.jpg","36","1","600"
"4","4","retrieval","old_objects","259","Bucket_WoodenDark.jpg","36","1","544"
"4","4","retrieval","new_objects","260","ShearsGarden.jpg","36","0","610"
"4","4","retrieval","old_objects","261","Stick_Drum.jpg","36","1","706"
"4","4","retrieval","new_objects","262","Hulahoop.jpg","37","1","535"
"4","4","retrieval","new_objects","263","Film_Roll.jpg","37","1","618"
"4","4","retrieval","new_objects","264","Lantern_TeaBox.jpg","37","1","762"
"4","4","retrieval","new_objects","265","Sign_Wetfloor.jpg","37","1","668"
"4","4","retrieval","new_objects","266","ComputerMouse.jpg","37","1","646"
"4","4","retrieval","new_objects","267","Toy_RobotClassic.jpg","37","1","676"
"4","4","retrieval","old_objects","268","Bone.jpg","36","1","623"
"4","4","retrieval","old_objects","269","Mitt_Blue.jpg","37","0","596"
"4","4","retrieval","old_objects","270","Statue_Jesus.jpg","36","1","1102"
"4","4","retrieval","new_objects","271","Cauliflower.jpg","37","1","625"
"4","4","retrieval","new_objects","272","Skates.jpg","37","1","650"
"4","4","retrieval","new_objects","273","Fencing_HelmetSwords.jpg","37","1","670"
"4","4","retrieval","new_objects","274","Plum.jpg","37","1","944"
"4","4","retrieval","new_objects","275","Egg_Chocolate.jpg","37","1","717"
"4","4","retrieval","new_objects","276","ShakerShekere.jpg","37","1","617"
"4","4","retrieval","old_objects","277","Lettuce_Romaine.jpg","36","1","643"
"4","4","retrieval","old_objects","278","Book_Paper.jpg","36","1","620"
"4","4","retrieval","old_objects","279","Hammer_Reflex.jpg","37","0","680"
"4","4","retrieval","old_objects","280","Shoes_WomenBoots.jpg","36","1","612"
"4","4","retrieval","new_objects","281","Bag_Groceries.jpg","37","1","644"
"4","4","retrieval","old_objects","282","Leek.jpg","36","1","757"
"4","4","retrieval","new_objects","283","WateringCan_Antique.jpg","36","0","864"
"4","4","retrieval","new_objects","284","Toblerone.jpg","37","1","610"
"4","4","retrieval","new_objects","285","Trumpet.jpg","37","1","698"
"4","4","retrieval","old_objects","286","StreetSweeper.jpg","36","1","813"
"4","4","retrieval","old_objects","287","Mask_African.jpg","36","1","616"
"4","4","retrieval","old_objects","288","Rock_Agate.jpg","36","1","584"
"4","4","retrieval","new_objects","289","Balcony.jpg","36","0","811"
"4","4","retrieval","new_objects","290","PaintBrushAndPallette.jpg","37","1","695"
"4","4","retrieval","new_objects","291","Snowboard.jpg","36","0","728"
"4","4","retrieval","old_objects","292","Bagel.jpg","36","1","504"
"4","4","retrieval","new_objects","293","Fuse.jpg","37","1","717"
"4","4","retrieval","new_objects","294","Clothespin_Red.jpg","37","1","727"
"4","4","retrieval","new_objects","295","Hottub.jpg","37","1","692"
"4","4","retrieval","old_objects","296","Knife_Kitchen.jpg","36","1","518"
"4","4","retrieval","new_objects","297","Weights_Dumbells.jpg","37","1","682"
"4","4","retrieval","new_objects","298","Squid_Pink.jpg","37","1","851"
"4","4","retrieval","new_objects","299","Tray_Muffin.jpg","37","1","631"
"4","4","retrieval","old_objects","300","Stick_IceHockey.jpg","36","1","743"
"4","4","retrieval","new_objects","301","PencilSharpener.jpg","37","1","672"
"4","4","retrieval","old_objects","302","Bird_Parrot.jpg","36","1","608"
"4","4","retrieval","old_objects","303","Clock_Interior.jpg","36","1","671"
"4","4","retrieval","old_objects","304","Shorts_Sports.jpg","36","1","643"
"4","4","retrieval","old_objects","306","Toy_BlocksPlastic Colourful.jpg","36","1","545"
"4","4","retrieval","old_objects","307","Light_Studio.jpg","37","0","621"
"4","4","retrieval","old_objects","308","Toy_DinosaurTRex.jpg","36","1","540"
"4","4","retrieval","old_objects","309","Avocado.jpg","36","1","639"
"4","4","retrieval","old_objects","310","Rag.jpg","36","1","562"
"4","4","retrieval","old_objects","311","Walker_Blue.jpg","36","1","685"
"4","4","retrieval","new_objects","312","Crackers_Ritz.jpg","37","1","737"
"4","4","retrieval","new_objects","313","Thermos_Decorated.jpg","37","1","699"
"4","4","retrieval","new_objects","314","Chairs_Stacked.jpg","37","1","562"
"4","4","retrieval","new_objects","315","Glass_Beer.jpg","36","0","688"
"4","4","retrieval","old_objects","316","Rope_Manila.jpg","36","1","583"
"4","4","retrieval","new_objects","317","Ambulance.jpg","36","0","899"
"4","4","retrieval","new_objects","318","DartBoard.jpg","37","1","698"
"4","4","retrieval","old_objects","319","Cheeseburger.jpg","36","1","605"
"4","4","retrieval","new_objects","320","Caterpillar.jpg","37","1","761"
"4","4","retrieval","old_objects","321","Jar_Capers.jpg","36","1","899"
"4","4","retrieval","new_objects","322","Nutcracker.jpg","37","1","743"
"4","4","retrieval","old_objects","323","Sandwich_Ham.jpg","36","1","881"
"4","4","retrieval","new_objects","324","Stingray.jpg","37","1","681"
"4","4","retrieval","old_objects","325","DentistOverheadLight.jpg","36","1","826"
"4","4","retrieval","old_objects","326","Heelpad.jpg","36","1","581"
"4","4","retrieval","old_objects","327","NailPolish.jpg","36","1","575"
"4","4","retrieval","new_objects","328","Dill.jpg","37","1","620"
"4","4","retrieval","new_objects","329","ShoppingCart.jpg","37","1","695"
"4","4","retrieval","old_objects","330","Ball_Tennis.jpg","36","1","592"
"4","4","retrieval","new_objects","331","Toy_FigurineEngineer.jpg","36","0","659"
"4","4","retrieval","old_objects","332","Dresser.jpg","36","1","636"
"4","4","retrieval","old_objects","333","Quartz.jpg","36","1","804"
"4","4","retrieval","old_objects","334","Bag_Saline.jpg","36","1","931"
"4","4","retrieval","old_objects","335","Mailbox_Community.jpg","36","1","630"
"4","4","retrieval","new_objects","336","Pot_FlowerClay.jpg","37","1","677"
"4","4","retrieval","new_objects","337","Branches_Campfire.jpg","37","1","710"
"4","4","retrieval","old_objects","338","ComputerKeyboard_Backspace.jpg","36","1","781"
"4","4","retrieval","old_objects","339","PagodaModel.jpg","36","1","538"
"4","4","retrieval","old_objects","340","Hat_Sheriff.jpg","37","0","632"
"4","4","retrieval","old_objects","341","Lamp_TableWhite.jpg","36","1","561"
"4","4","retrieval","new_objects","342","Mirror_Carside.jpg","37","1","735"
"4","4","retrieval","old_objects","343","Faucet.jpg","36","1","655"
"4","4","retrieval","old_objects","344","LintRemover.jpg","36","1","630"
"4","4","retrieval","new_objects","345","Plate_Wooden.jpg","36","0","863"
"4","4","retrieval","old_objects","346","Keychain_Metal.jpg","36","1","632"
"4","4","retrieval","new_objects","347","Pear_Green.jpg","36","0","809"
"4","4","retrieval","old_objects","348","Drum_Conga.jpg","36","1","771"
"4","4","retrieval","old_objects","349","Arch.jpg","36","1","608"
"4","4","retrieval","old_objects","350","Toolbox_Old.jpg","36","1","648"
"4","4","retrieval","new_objects","351","ToothBrush.jpg","37","1","828"
"4","4","retrieval","new_objects","352","Lychee.jpg","36","0","1096"
"4","4","retrieval","new_objects","353","Plate_Children.jpg","37","1","890"
"4","4","retrieval","old_objects","354","SpiderWeb.jpg","0","0","2000"
"4","4","retrieval","old_objects","355","Pear_Yellow.jpg","36","1","1024"
"4","4","demographics_block","gender","1","Pear_Yellow.jpg","female","1","19167"
"4","4","demographics_block","age","1","Pear_Yellow.jpg","48","1","19167"
"4","4","demographics_block","education","1","Pear_Yellow.jpg","12","1","19167"
"4","4","demographics_block","left_right_handed","2","Pear_Yellow.jpg","Right","1","9810"
"4","4","demographics_block","raceoption1","2","Pear_Yellow.jpg","0","1","9810"
"4","4","demographics_block","raceoption2","2","Pear_Yellow.jpg","","1","9810"
"4","4","demographics_block","raceoption3","2","Pear_Yellow.jpg","","1","9810"
"4","4","demographics_block","raceoption4","2","Pear_Yellow.jpg","","1","9810"
"4","4","demographics_block","raceoption5","2","Pear_Yellow.jpg","","1","9810"
"4","4","demographics_block","raceoption6","2","Pear_Yellow.jpg","","1","9810"
"4","4","demographics_block","raceoption7","2","Pear_Yellow.jpg","","1","9810"
"4","4","demographics_block","raceoption8","2","Pear_Yellow.jpg","","1","9810"
"4","4","demographics_block","raceoption9","2","Pear_Yellow.jpg","","1","9810"
"4","4","demographics_block","raceother","2","Pear_Yellow.jpg","","1","9810"
"4","4","demographics_block","raceother","2","Pear_Yellow.jpg","","1","9810"
"4","4","demographics_block","english_language","2","Pear_Yellow.jpg","Yes","1","9810"
"4","4","demographics_block","english_languageother","2","Pear_Yellow.jpg","","1","9810"
"4","4","demographics_block","eyesight","3","Pear_Yellow.jpg","Yes","1","8178"
"4","4","demographics_block","colorblind","3","Pear_Yellow.jpg","No","1","8178"
"4","4","worker_id_block","worker_id_textbox","1","Pear_Yellow.jpg","A2G7XPM051Q1XB","1","57993"
"6","6","encoding","encoding","1","Bucket_Ice.jpg","2","0","2692"
"6","6","encoding","encoding","2","PeriodicTable.jpg","4","0","2576"
"6","6","encoding","encoding","3","Bottle_Blue.jpg","1","0","1899"
"6","6","encoding","encoding","4","Cannon.jpg","3","0","2262"
"6","6","encoding","encoding","5","Hammer_Reflex.jpg","1","0","2073"
"6","6","encoding","encoding","6","TowerEiffel.jpg","4","0","2498"
"6","6","encoding","encoding","7","Shorts_Sports.jpg","1","0","1709"
"6","6","encoding","encoding","8","Feet.jpg","3","0","2816"
"6","6","encoding","encoding","9","Origami_Boat.jpg","1","0","1715"
"6","6","encoding","encoding","10","Bottle_Bleach.jpg","1","0","1814"
"6","6","encoding","encoding","11","Stick_Drum.jpg","1","0","1957"
"6","6","encoding","encoding","12","Box_Wine.jpg","1","0","1721"
"6","6","encoding","encoding","13","Book_Paper.jpg","0","0","3000"
"6","6","encoding","encoding","14","Arch.jpg","1","0","2127"
"6","6","encoding","encoding","15","Lilypad.jpg","2","0","1883"
"6","6","encoding","encoding","16","MonaLisa.jpg","3","0","2037"
"6","6","encoding","encoding","17","Clock_Radioalarm.jpg","1","0","1904"
"6","6","encoding","encoding","18","Toy_BlocksPlastic Colourful.jpg","1","0","1683"
"6","6","encoding","encoding","19","DentistOverheadLight.jpg","1","0","1669"
"6","6","encoding","encoding","20","Neckrest.jpg","2","0","2905"
"6","6","encoding","encoding","21","Toy_DinosaurTRex.jpg","1","0","2676"
"6","6","encoding","encoding","22","Machine_Bread.jpg","2","0","2102"
"6","6","encoding","encoding","23","Rock_Agate.jpg","5","0","2494"
"6","6","encoding","encoding","24","Stick_IceHockey.jpg","1","0","1617"
"6","6","encoding","encoding","25","Cup_Latte.jpg","1","0","2134"
"6","6","encoding","encoding","26","Candy_Caramel.jpg","4","0","2192"
"6","6","encoding","encoding","27","Licorice.jpg","1","0","2001"
"6","6","encoding","encoding","28","Quartz.jpg","5","0","1670"
"6","6","encoding","encoding","29","Bottle_Plastic.jpg","0","0","3000"
"6","6","encoding","encoding","30","Heater_Outdoor.jpg","3","0","2626"
"6","6","encoding","encoding","31","PedestalGreek.jpg","1","0","1579"
"6","6","encoding","encoding","32","Golf_Club.jpg","1","0","1645"
"6","6","encoding","encoding","33","Walker_Blue.jpg","1","0","2905"
"6","6","encoding","encoding","34","Shoes_WomenBoots.jpg","1","0","1822"
"6","6","encoding","encoding","35","TowelRack_Metal.jpg","1","0","1892"
"6","6","encoding","encoding","36","Mask_African.jpg","4","0","2409"
"6","6","encoding","encoding","37","Boots_KneeHigh.jpg","1","0","1725"
"6","6","encoding","encoding","38","Bagel.jpg","3","0","1802"
"6","6","encoding","encoding","39","PickupTruck.jpg","3","0","2398"
"6","6","encoding","encoding","40","Shark_GreatWhite.jpg","4","0","2274"
"6","6","encoding","encoding","41","OvenElement.jpg","2","0","2037"
"6","6","encoding","encoding","42","Harmonica.jpg","3","0","2179"
"6","6","encoding","encoding","43","DVDPlayer.jpg","2","0","2092"
"6","6","encoding","encoding","44","PocketKnife.jpg","1","0","2701"
"6","6","encoding","encoding","45","Heelpad.jpg","1","0","2516"
"6","6","encoding","encoding","46","Man.jpg","1","0","2247"
"6","6","encoding","encoding","47","BoxTrailer.jpg","1","0","1571"
"6","6","encoding","encoding","48","GasBurner.jpg","1","0","1830"
"6","6","encoding","encoding","49","Awning.jpg","1","0","1489"
"6","6","encoding","encoding","50","NailPolish.jpg","1","0","1612"
"6","6","encoding","encoding","51","Boots_Hiking.jpg","2","0","2039"
"6","6","encoding","encoding","52","Lettuce_Romaine.jpg","1","0","2307"
"6","6","encoding","encoding","53","Toy_RockingHorseBlack.jpg","2","0","2781"
"6","6","encoding","encoding","54","Flowers_DryBouquet.jpg","1","0","2528"
"6","6","encoding","encoding","55","GatedEntrance.jpg","3","0","2931"
"6","6","encoding","encoding","56","SolderingIron.jpg","1","0","1627"
"6","6","encoding","encoding","57","Toolbox_Old.jpg","1","0","1479"
"6","6","encoding","encoding","58","TireRims.jpg","1","0","1835"
"6","6","encoding","encoding","59","Bone.jpg","1","0","1406"
"6","6","encoding","encoding","60","DentalFloss.jpg","1","0","935"
"6","6","encoding","encoding","62","Bullet.jpg","3","0","2353"
"6","6","encoding","encoding","63","Chair_Deck.jpg","1","0","1568"
"6","6","encoding","encoding","64","Cheque.jpg","1","0","2222"
"6","6","encoding","encoding","65","Toy_StackingRing.jpg","1","0","1862"
"6","6","encoding","encoding","66","Shrub_Cedar.jpg","0","0","3000"
"6","6","encoding","encoding","67","Crab.jpg","1","0","2618"
"6","6","encoding","encoding","68","Statue_Jesus.jpg","1","0","1551"
"6","6","encoding","encoding","69","WaterColorPaintset.jpg","1","0","2306"
"6","6","encoding","encoding","70","Pliers_SlipJoint.jpg","1","0","2198"
"6","6","encoding","encoding","71","RadioactiveContainer.jpg","0","0","3000"
"6","6","encoding","encoding","72","Seashell_AlternateTellin.jpg","1","0","1978"
"6","6","encoding","encoding","73","Sink_Kitchen.jpg","1","0","2064"
"6","6","encoding","encoding","74","TreeHouse.jpg","1","0","2517"
"6","6","encoding","encoding","75","Backpack_Suitcase.jpg","1","0","1867"
"6","6","encoding","encoding","76","Brush_Toilet.jpg","1","0","1853"
"6","6","encoding","encoding","77","Bag_Camera.jpg","1","0","1952"
"6","6","encoding","encoding","78","Sandwich_Ham.jpg","1","0","2043"
"6","6","encoding","encoding","79","Milkshake_StrawberryStraw.jpg","4","0","2660"
"6","6","encoding","encoding","80","Vase_EarthToned.jpg","2","0","2833"
"6","6","encoding","encoding","81","LintRemover.jpg","0","0","3000"
"6","6","encoding","encoding","82","Stepper.jpg","1","0","1318"
"6","6","encoding","encoding","83","Bellows.jpg","1","0","2249"
"6","6","encoding","encoding","84","Broom_Short.jpg","1","0","2236"
"6","6","encoding","encoding","85","Case_WoodenOrnate.jpg","1","0","2871"
"6","6","encoding","encoding","86","SundaeBanana.jpg","0","0","3000"
"6","6","encoding","encoding","87","Bag_Saline.jpg","1","0","1356"
"6","6","encoding","encoding","88","Ship_Model.jpg","1","0","1701"
"6","6","encoding","encoding","89","Toy_BeadMaze.jpg","1","0","2473"
"6","6","encoding","encoding","90","Lobster.jpg","3","0","2397"
"6","6","encoding","encoding","91","Cougar.jpg","4","0","2415"
"6","6","encoding","encoding","92","Chicken_Dinner.jpg","0","0","3000"
"6","6","encoding","encoding","93","Tube_Glue.jpg","1","0","1218"
"6","6","encoding","encoding","94","Tray_Medical.jpg","1","0","1736"
"6","6","encoding","encoding","95","Knife_Kitchen.jpg","1","0","1596"
"6","6","encoding","encoding","96","Rope_Manila.jpg","1","0","1341"
"6","6","encoding","encoding","97","Toy_Shark.jpg","1","0","2178"
"6","6","encoding","encoding","98","Peeler.jpg","1","0","2652"
"6","6","encoding","encoding","99","Partition.jpg","1","0","2781"
"6","6","encoding","encoding","100","Lamp_TableWhite.jpg","1","0","2444"
"6","6","encoding","encoding","101","Toy_PandaPlushie.jpg","1","0","1863"
"6","6","encoding","encoding","102","GiftBow.jpg","1","0","1098"
"6","6","encoding","encoding","103","Jar_Capers.jpg","2","0","2011"
"6","6","encoding","encoding","104","Makeup_Mascara.jpg","1","0","1895"
"6","6","encoding","encoding","105","MilkJug.jpg","1","0","2050"
"6","6","encoding","encoding","106","Autocreeper.jpg","1","0","2701"
"6","6","encoding","encoding","107","StreetSweeper.jpg","1","0","2287"
"6","6","encoding","encoding","108","Chicken_FriedWing.jpg","1","0","2244"
"6","6","encoding","encoding","109","Easel.jpg","1","0","1751"
"6","6","encoding","encoding","110","Mat_Car.jpg","1","0","1451"
"6","6","encoding","encoding","111","SpiderWeb.jpg","1","0","1558"
"6","6","encoding","encoding","112","Axe.jpg","1","0","1728"
"6","6","encoding","encoding","113","Toys_Lego.jpg","1","0","2114"
"6","6","encoding","encoding","114","Flower_Sun.jpg","3","0","2512"
"6","6","encoding","encoding","115","Condom.jpg","1","0","2581"
"6","6","encoding","encoding","116","Dolly.jpg","1","0","1774"
"6","6","encoding","encoding","117","Dresser.jpg","1","0","2208"
"6","6","encoding","encoding","118","Bucket_Rusty.jpg","1","0","2019"
"6","6","encoding","encoding","119","Spoons_MeasuringAttached.jpg","1","0","1517"
"6","6","encoding","encoding","120","Box_FirstAidOpen.jpg","1","0","1497"
"6","6","encoding","encoding","121","Platter_Vegetables.jpg","3","0","2281"
"6","6","encoding","encoding","123","Bird_Toucan.jpg","3","0","2546"
"6","6","encoding","encoding","124","ChalkLineTool.jpg","1","0","1765"
"6","6","encoding","encoding","125","Pear_Yellow.jpg","1","0","2303"
"6","6","encoding","encoding","126","ComputerKeyboard_Backspace.jpg","1","0","1803"
"6","6","encoding","encoding","127","Leek.jpg","1","0","2102"
"6","6","encoding","encoding","128","Puzzle_Tree.jpg","3","0","1944"
"6","6","encoding","encoding","129","Hat_Sheriff.jpg","3","0","2555"
"6","6","encoding","encoding","130","Guitar_Acoustic.jpg","5","0","2773"
"6","6","encoding","encoding","131","Sign_HumpBridgeAhead.jpg","1","0","2304"
"6","6","encoding","encoding","132","CanOpener.jpg","1","0","2051"
"6","6","encoding","encoding","133","Oyster.jpg","1","0","2134"
"6","6","encoding","encoding","134","Bucket_WoodenLight.jpg","1","0","1681"
"6","6","encoding","encoding","135","Sheep.jpg","3","0","2162"
"6","6","encoding","encoding","136","DogFood.jpg","1","0","2503"
"6","6","encoding","encoding","137","Archery_ArrowsBows.jpg","2","0","2301"
"6","6","encoding","encoding","138","Drum_Conga.jpg","0","0","3000"
"6","6","encoding","encoding","139","Pillow_Plaid.jpg","1","0","2979"
"6","6","encoding","encoding","140","Phone_Flip.jpg","1","0","2184"
"6","6","encoding","encoding","141","Box_Staples.jpg","1","0","1730"
"6","6","encoding","encoding","142","Barrel_Upright.jpg","1","0","2165"
"6","6","encoding","encoding","143","Noisemaker_Streamers.jpg","3","0","2289"
"6","6","encoding","encoding","144","CartonEggs.jpg","2","0","2434"
"6","6","encoding","encoding","145","DeepFryer.jpg","2","0","2747"
"6","6","encoding","encoding","146","OnionRings.jpg","4","0","2734"
"6","6","encoding","encoding","147","Clock_Interior.jpg","1","0","2913"
"6","6","encoding","encoding","148","Tray_Metal.jpg","1","0","1782"
"6","6","encoding","encoding","149","PagodaModel.jpg","3","0","1999"
"6","6","encoding","encoding","150","Inukshuk.jpg","1","0","2017"
"6","6","encoding","encoding","151","Corkscrew.jpg","1","0","2405"
"6","6","encoding","encoding","152","Pillow_Heart.jpg","2","0","2431"
"6","6","encoding","encoding","153","Cheeseburger.jpg","7","0","2472"
"6","6","encoding","encoding","154","Stamp.jpg","1","0","2222"
"6","6","encoding","encoding","155","FlintIgniter.jpg","1","0","2409"
"6","6","encoding","encoding","156","Light_Studio.jpg","1","0","2283"
"6","6","encoding","encoding","157","CoolingFan_Engine2.jpg","1","0","2426"
"6","6","encoding","encoding","158","Mug_Travel.jpg","1","0","1424"
"6","6","encoding","encoding","159","Rag.jpg","1","0","1476"
"6","6","encoding","encoding","160","Diode.jpg","1","0","1268"
"6","6","encoding","encoding","161","Carousel copy.jpg","2","0","2869"
"6","6","encoding","encoding","162","Dragonfly.jpg","0","0","3000"
"6","6","encoding","encoding","163","Oven.jpg","1","0","2606"
"6","6","encoding","encoding","164","Toy_SandRake.jpg","1","0","2783"
"6","6","encoding","encoding","165","Key_Car.jpg","1","0","1987"
"6","6","encoding","encoding","166","Faucet.jpg","1","0","1395"
"6","6","encoding","encoding","167","Bucket_WoodenDark.jpg","1","0","1722"
"6","6","encoding","encoding","168","Bird_Parrot.jpg","5","0","2445"
"6","6","encoding","encoding","169","Toy_Motorcycle.jpg","2","0","2072"
"6","6","encoding","encoding","170","Avocado.jpg","4","0","2580"
"6","6","encoding","encoding","171","Mailbox_Community.jpg","1","0","2030"
"6","6","encoding","encoding","172","Keychain_Metal.jpg","1","0","1888"
"6","6","encoding","encoding","173","Tripod.jpg","1","0","1876"
"6","6","encoding","encoding","174","Mitt_Blue.jpg","1","0","2143"
"6","6","encoding","encoding","175","Toy_Helicopter.jpg","1","0","1507"
"6","6","encoding","encoding","176","Dress_Party.jpg","3","0","2582"
"6","6","encoding","encoding","177","Ball_Tennis.jpg","1","0","2800"
"6","6","retrieval","new_objects","1","Crayon_Green.jpg","37","1","1232"
"6","6","retrieval","old_objects","2","Bucket_WoodenDark.jpg","36","1","891"
"6","6","retrieval","old_objects","3","Barrel_Upright.jpg","36","1","684"
"6","6","retrieval","new_objects","4","Stingray.jpg","37","1","766"
"6","6","retrieval","new_objects","5","CementFinisher.jpg","37","1","1005"
"6","6","retrieval","old_objects","6","Tube_Glue.jpg","36","1","921"
"6","6","retrieval","new_objects","7","Match.jpg","37","1","905"
"6","6","retrieval","old_objects","8","Bucket_Rusty.jpg","37","0","1194"
"6","6","retrieval","new_objects","9","Scroll.jpg","36","0","942"
"6","6","retrieval","new_objects","10","Ruler_Triangle.jpg","37","1","1333"
"6","6","retrieval","new_objects","11","Bottle_Champagne.jpg","37","1","1100"
"6","6","retrieval","old_objects","12","Boots_KneeHigh.jpg","36","1","900"
"6","6","retrieval","new_objects","13","Clamp_Screw.jpg","36","0","1365"
"6","6","retrieval","old_objects","14","CoolingFan_Engine2.jpg","36","1","1234"
"6","6","retrieval","old_objects","15","Autocreeper.jpg","36","1","1278"
"6","6","retrieval","old_objects","16","Chicken_Dinner.jpg","36","1","1406"
"6","6","retrieval","new_objects","17","LampPost_WhiteOrnate.jpg","36","0","1563"
"6","6","retrieval","old_objects","18","Flowers_DryBouquet.jpg","37","0","1712"
"6","6","retrieval","new_objects","19","Bottle_Spray.jpg","36","0","1551"
"6","6","retrieval","new_objects","20","Motorcycle.jpg","37","1","1229"
"6","6","retrieval","new_objects","21","Toy_RobotClassic.jpg","37","1","1289"
"6","6","retrieval","new_objects","22","Socks_Baby.jpg","37","1","1354"
"6","6","retrieval","new_objects","23","SeatBuckle.jpg","36","0","1328"
"6","6","retrieval","old_objects","24","Hammer_Reflex.jpg","36","1","1295"
"6","6","retrieval","new_objects","25","LifeJacket_Orangejpg.jpg","37","1","1295"
"6","6","retrieval","new_objects","26","Ruler_Wooden.jpg","37","1","1271"
"6","6","retrieval","old_objects","27","Bird_Parrot.jpg","36","1","865"
"6","6","retrieval","old_objects","28","Bagel.jpg","36","1","827"
"6","6","retrieval","old_objects","29","Mat_Car.jpg","37","0","1191"
"6","6","retrieval","new_objects","30","Snail.jpg","36","0","980"
"6","6","retrieval","old_objects","31","Milkshake_StrawberryStraw.jpg","36","1","1241"
"6","6","retrieval","new_objects","32","Hulahoop.jpg","36","0","1820"
"6","6","retrieval","old_objects","33","Ball_Tennis.jpg","36","1","959"
"6","6","retrieval","new_objects","34","Crib_Standard.jpg","37","1","1109"
"6","6","retrieval","new_objects","35","Drum_Ramadan.jpg","37","1","1613"
"6","6","retrieval","old_objects","36","Toy_SandRake.jpg","36","1","841"
"6","6","retrieval","new_objects","37","Trumpet.jpg","37","1","1076"
"6","6","retrieval","new_objects","38","Ambulance.jpg","37","1","1309"
"6","6","retrieval","new_objects","39","Leaf_Clover.jpg","37","1","1093"
"6","6","retrieval","old_objects","40","DVDPlayer.jpg","36","1","1014"
"6","6","retrieval","new_objects","41","Snowboard.jpg","37","1","1442"
"6","6","retrieval","new_objects","42","Bag_Groceries.jpg","37","1","1348"
"6","6","retrieval","old_objects","43","Lettuce_Romaine.jpg","36","1","851"
"6","6","retrieval","new_objects","44","Snake_Cobra.jpg","37","1","1317"
"6","6","retrieval","new_objects","45","MonkeyPuppet.jpg","37","1","1069"
"6","6","retrieval","new_objects","46","Film_Roll.jpg","37","1","1319"
"6","6","retrieval","new_objects","47","Tetrahedron.jpg","37","1","1382"
"6","6","retrieval","new_objects","48","Outhouse.jpg","37","1","1044"
"6","6","retrieval","old_objects","49","Toolbox_Old.jpg","36","1","1054"
"6","6","retrieval","old_objects","50","Licorice.jpg","36","1","872"
"6","6","retrieval","new_objects","51","Bottle_Wine.jpg","36","0","1267"
"6","6","retrieval","old_objects","52","MonaLisa.jpg","36","1","1012"
"6","6","retrieval","old_objects","53","Pillow_Plaid.jpg","36","1","1248"
"6","6","retrieval","old_objects","54","Dragonfly.jpg","36","1","1243"
"6","6","retrieval","new_objects","55","Brush_Shoe.jpg","37","1","1117"
"6","6","retrieval","old_objects","56","Golf_Club.jpg","36","1","1117"
"6","6","retrieval","new_objects","57","WateringCan_Antique.jpg","36","0","1613"
"6","6","retrieval","new_objects","58","PlayerFootball.jpg","37","1","1056"
"6","6","retrieval","old_objects","59","Avocado.jpg","36","1","867"
"6","6","retrieval","old_objects","60","Sheep.jpg","36","1","1597"
"6","6","retrieval","old_objects","62","Faucet.jpg","36","1","960"
"6","6","retrieval","new_objects","63","Box_Vials.jpg","37","1","989"
"6","6","retrieval","old_objects","64","Clock_Radioalarm.jpg","37","0","1507"
"6","6","retrieval","old_objects","65","Condom.jpg","36","1","955"
"6","6","retrieval","old_objects","66","DeepFryer.jpg","36","1","874"
"6","6","retrieval","new_objects","67","Toy_Lion.jpg","37","1","1228"
"6","6","retrieval","old_objects","68","Machine_Bread.jpg","36","1","710"
"6","6","retrieval","new_objects","69","Toy_FigurineSwing.jpg","37","1","823"
"6","6","retrieval","old_objects","70","Puzzle_Tree.jpg","36","1","1043"
"6","6","retrieval","old_objects","71","Mitt_Blue.jpg","36","1","1047"
"6","6","retrieval","new_objects","72","ShoppingCart.jpg","37","1","913"
"6","6","retrieval","old_objects","73","Clock_Interior.jpg","36","1","913"
"6","6","retrieval","old_objects","74","Toy_DinosaurTRex.jpg","36","1","1049"
"6","6","retrieval","old_objects","75","CartonEggs.jpg","36","1","860"
"6","6","retrieval","old_objects","76","GiftBow.jpg","37","0","926"
"6","6","retrieval","old_objects","77","MilkJug.jpg","36","1","926"
"6","6","retrieval","new_objects","78","Battery_AA.jpg","37","1","886"
"6","6","retrieval","old_objects","79","Diode.jpg","37","0","1415"
"6","6","retrieval","new_objects","80","ShakerShekere.jpg","37","1","1115"
"6","6","retrieval","new_objects","81","DusterFeather.jpg","36","0","1586"
"6","6","retrieval","old_objects","82","DentalFloss.jpg","36","1","1551"
"6","6","retrieval","new_objects","83","Necklace_Black.jpg","37","1","957"
"6","6","retrieval","new_objects","84","TeethMould.jpg","37","1","1092"
"6","6","retrieval","old_objects","85","Sink_Kitchen.jpg","36","1","877"
"6","6","retrieval","new_objects","86","Caterpillar.jpg","37","1","879"
"6","6","retrieval","old_objects","87","PickupTruck.jpg","36","1","1024"
"6","6","retrieval","old_objects","88","Partition.jpg","36","1","1364"
"6","6","retrieval","old_objects","89","Oyster.jpg","36","1","953"
"6","6","retrieval","new_objects","90","FloorTile.jpg","37","1","920"
"6","6","retrieval","new_objects","91","Shoes_Snow.jpg","36","0","1296"
"6","6","retrieval","old_objects","92","Peeler.jpg","36","1","1224"
"6","6","retrieval","old_objects","93","Cheeseburger.jpg","36","1","1156"
"6","6","retrieval","new_objects","94","Paddle_Bread.jpg","36","0","971"
"6","6","retrieval","old_objects","95","Chair_Deck.jpg","36","1","736"
"6","6","retrieval","old_objects","96","Corkscrew.jpg","36","1","857"
"6","6","retrieval","new_objects","97","Crackers_Ritz.jpg","37","1","1019"
"6","6","retrieval","old_objects","98","Toy_BlocksPlastic Colourful.jpg","36","1","831"
"6","6","retrieval","new_objects","99","Origami_Bird.jpg","36","0","1114"
"6","6","retrieval","new_objects","100","Pipe_Pitch.jpg","37","1","1107"
"6","6","retrieval","old_objects","101","WaterColorPaintset.jpg","37","0","1147"
"6","6","retrieval","new_objects","102","Toy_Train.jpg","37","1","1321"
"6","6","retrieval","new_objects","103","Hottub.jpg","37","1","1521"
"6","6","retrieval","old_objects","104","DentistOverheadLight.jpg","36","1","1169"
"6","6","retrieval","old_objects","105","Man.jpg","36","1","918"
"6","6","retrieval","new_objects","106","Branches_Campfire.jpg","37","1","1406"
"6","6","retrieval","old_objects","107","GatedEntrance.jpg","36","1","1250"
"6","6","retrieval","old_objects","108","Dress_Party.jpg","36","1","893"
"6","6","retrieval","new_objects","109","DiaperChangingStation.jpg","37","1","1533"
"6","6","retrieval","new_objects","110","Bus_School.jpg","37","1","1252"
