"group","subject","blockcode","trialcode","trialnum","values.stimulus","response","correct","latency"
"3","3","encoding","encoding","1","Boat_Sail.jpg","1","0","1241"
"3","3","encoding","encoding","2","Goat.jpg","1","0","1081"
"3","3","encoding","encoding","3","Jar_Canopic.jpg","1","0","967"
"3","3","encoding","encoding","4","Bird_Hen.jpg","1","0","1206"
"3","3","encoding","encoding","5","Costume_Wizard.jpg","1","0","1470"
"3","3","encoding","encoding","6","EnglishMuffin.jpg","1","0","806"
"3","3","encoding","encoding","7","JuicerCitrus.jpg","1","0","1013"
"3","3","encoding","encoding","8","TestTube_MultipleAndRack.jpg","1","0","1241"
"3","3","encoding","encoding","9","Heater_Infrared.jpg","1","0","1573"
"3","3","encoding","encoding","10","RAMchip.jpg","1","0","1389"
"3","3","encoding","encoding","11","Hat_Cowboy.jpg","1","0","846"
"3","3","encoding","encoding","12","Mask_Happy.jpg","1","0","845"
"3","3","encoding","encoding","13","Chicken_Raw.jpg","1","0","676"
"3","3","encoding","encoding","14","Brace_Back.jpg","1","0","1242"
"3","3","encoding","encoding","15","Stick_Stirring.jpg","1","0","1054"
"3","3","encoding","encoding","16","BicycleOdometer.jpg","1","0","772"
"3","3","encoding","encoding","17","WagonPilgrim.jpg","1","0","670"
"3","3","encoding","encoding","18","Candy_Chocolate.jpg","6","0","1872"
"3","3","encoding","encoding","19","PuppetTheatre_BlueRed.jpg","1","0","1451"
"3","3","encoding","encoding","20","DentalProbe.jpg","1","0","1009"
"3","3","encoding","encoding","21","Camera_Security.jpg","1","0","725"
"3","3","encoding","encoding","22","PaperCutter.jpg","1","0","803"
"3","3","encoding","encoding","23","Bleachers.jpg","1","0","835"
"3","3","encoding","encoding","24","Dreidel.jpg","1","0","714"
"3","3","encoding","encoding","25","Starfish.jpg","1","0","1282"
"3","3","encoding","encoding","26","ControlPanel.jpg","1","0","1086"
"3","3","encoding","encoding","27","KitchenTools.jpg","1","0","745"
"3","3","encoding","encoding","28","WalkieTalkie_Yellow.jpg","1","0","665"
"3","3","encoding","encoding","29","Binoculars.jpg","1","0","778"
"3","3","encoding","encoding","30","Switch_LightBlack.jpg","1","0","705"
"3","3","encoding","encoding","31","Slide.jpg","1","0","850"
"3","3","encoding","encoding","32","Hockey_Equipment.jpg","1","0","1115"
"3","3","encoding","encoding","33","Plunger.jpg","1","0","640"
"3","3","encoding","encoding","34","SoapBottle.jpg","1","0","1221"
"3","3","encoding","encoding","35","BicycleChain.jpg","1","0","567"
"3","3","encoding","encoding","36","Jetski.jpg","1","0","730"
"3","3","encoding","encoding","37","Nuts_Pecan.jpg","1","0","1055"
"3","3","encoding","encoding","38","Statue_SouthAmerican.jpg","1","0","654"
"3","3","encoding","encoding","39","Bed_Hospital.jpg","1","0","567"
"3","3","encoding","encoding","40","Hat_Police.jpg","1","0","664"
"3","3","encoding","encoding","41","Decoration_WallOrnament.jpg","0","0","3000"
"3","3","encoding","encoding","42","Stove_Propane.jpg","1","0","1087"
"3","3","encoding","encoding","43","Abacus.jpg","1","0","1044"
"3","3","encoding","encoding","44","Bolt.jpg","1","0","677"
"3","3","encoding","encoding","45","BloodpPresureCuff.jpg","1","0","606"
"3","3","encoding","encoding","46","ElectricOutlet.jpg","1","0","764"
"3","3","encoding","encoding","47","ThreeHolePunch.jpg","1","0","601"
"3","3","encoding","encoding","48","Sign_NoParking.jpg","1","0","674"
"3","3","encoding","encoding","49","Cactus.jpg","1","0","598"
"3","3","encoding","encoding","50","Toy_BlocksWoodenPlain.jpg","1","0","556"
"3","3","encoding","encoding","51","Gazebo.jpg","1","0","539"
"3","3","encoding","encoding","52","Statue_VirginMary.jpg","1","0","936"
"3","3","encoding","encoding","53","Kiwi.jpg","1","0","1283"
"3","3","encoding","encoding","54","ChiliFlakes.jpg","1","0","1085"
"3","3","encoding","encoding","55","Pineapple.jpg","5","0","1531"
"3","3","encoding","encoding","56","BasketballHoop.jpg","2","0","1500"
"3","3","encoding","encoding","57","TotemPole.jpg","1","0","1251"
"3","3","encoding","encoding","58","CraneMachine.jpg","1","0","697"
"3","3","encoding","encoding","59","Table_Side.jpg","1","0","618"
"3","3","encoding","encoding","60","Box_Floral.jpg","1","0","770"
"3","3","encoding","encoding","62","Bed_QueenSize.jpg","1","0","1591"
"3","3","encoding","encoding","63","Cannister_GasVintage.jpg","1","0","467"
"3","3","encoding","encoding","64","PaintRollTray.jpg","1","0","899"
"3","3","encoding","encoding","65","Cake_Wedding.jpg","1","0","635"
"3","3","encoding","encoding","66","WashingMachine.jpg","1","0","642"
"3","3","encoding","encoding","67","Hammock.jpg","1","0","683"
"3","3","encoding","encoding","68","Garlic_Clove.jpg","1","0","786"
"3","3","encoding","encoding","69","Castle_Model.jpg","1","0","622"
"3","3","encoding","encoding","70","PenHolder.jpg","1","0","753"
"3","3","encoding","encoding","71","Sign_Open.jpg","1","0","977"
"3","3","encoding","encoding","72","IceCream_Chocolate.jpg","0","0","3000"
"3","3","encoding","encoding","73","Door_Green.jpg","1","0","869"
"3","3","encoding","encoding","74","Hat_Baseball.jpg","1","0","1296"
"3","3","encoding","encoding","75","MannequinHead.jpg","1","0","799"
"3","3","encoding","encoding","76","WatermelonSlice.jpg","1","0","1353"
"3","3","encoding","encoding","77","Toy_LambPlushie.jpg","1","0","748"
"3","3","encoding","encoding","78","Shoes_Mould.jpg","1","0","819"
"3","3","encoding","encoding","79","TeethModel.jpg","1","0","759"
"3","3","encoding","encoding","80","Container_RedPlastic.jpg","1","0","537"
"3","3","encoding","encoding","81","PaintSprayer.jpg","1","0","790"
"3","3","encoding","encoding","82","HardDrive.jpg","1","0","668"
"3","3","encoding","encoding","83","BicycleWheelRusty.jpg","1","0","665"
"3","3","encoding","encoding","84","Toy_TrailerAirport.jpg","1","0","647"
"3","3","encoding","encoding","85","TortillaChip.jpg","1","0","1366"
"3","3","encoding","encoding","86","Mousetrap.jpg","1","0","725"
"3","3","encoding","encoding","87","Glass_Martini.jpg","1","0","578"
"3","3","encoding","encoding","88","Fireplace_Outdoor.jpg","1","0","572"
"3","3","encoding","encoding","89","PaintRoller.jpg","1","0","616"
"3","3","encoding","encoding","90","BicycleBrake.jpg","1","0","735"
"3","3","encoding","encoding","91","Caribou.jpg","1","0","863"
"3","3","encoding","encoding","92","Acorn.jpg","1","0","771"
"3","3","encoding","encoding","93","Vase_Decorative.jpg","1","0","621"
"3","3","encoding","encoding","94","Hippopotamus.jpg","1","0","644"
"3","3","encoding","encoding","95","Snowpea.jpg","1","0","1023"
"3","3","encoding","encoding","96","BicycleWheel.jpg","1","0","686"
"3","3","encoding","encoding","97","Earring_Hoop.jpg","1","0","755"
"3","3","encoding","encoding","98","Jet.jpg","1","0","583"
"3","3","encoding","encoding","99","Stove_Camping.jpg","1","0","617"
"3","3","encoding","encoding","100","Bottle_Oil.jpg","1","0","740"
"3","3","encoding","encoding","101","Bowl_Lemons.jpg","1","0","1223"
"3","3","encoding","encoding","102","FortuneCookie.jpg","1","0","1602"
"3","3","encoding","encoding","103","Clippers_Glass.jpg","1","0","884"
"3","3","encoding","encoding","104","Shorts_Plaid.jpg","1","0","972"
"3","3","encoding","encoding","105","Flower_Hibiscus.jpg","1","0","831"
"3","3","encoding","encoding","106","fries.jpg","6","0","1913"
"3","3","encoding","encoding","107","Light_Siren.jpg","1","0","1021"
"3","3","encoding","encoding","108","Drum_Bongos.jpg","1","0","758"
"3","3","encoding","encoding","109","Brush_Winter.jpg","1","0","594"
"3","3","encoding","encoding","110","Keys_Bunch.jpg","1","0","783"
"3","3","encoding","encoding","111","Pacifier.jpg","1","0","689"
"3","3","encoding","encoding","112","FuzzyDice.jpg","1","0","751"
"3","3","encoding","encoding","113","Lunchbox.jpg","1","0","647"
"3","3","encoding","encoding","114","Mitt_Oven.jpg","1","0","811"
"3","3","encoding","encoding","115","Hedgehog.jpg","1","0","724"
"3","3","encoding","encoding","116","Thumbtack.jpg","1","0","734"
"3","3","encoding","encoding","117","Bomb.jpg","1","0","614"
"3","3","encoding","encoding","118","Pouch_Red.jpg","1","0","880"
"3","3","encoding","encoding","119","Desk_Office.jpg","1","0","662"
"3","3","encoding","encoding","120","Carabiner_Orange.jpg","1","0","590"
"3","3","encoding","encoding","121","WaterWell.jpg","1","0","1101"
"3","3","encoding","encoding","123","Eraser.jpg","1","0","1134"
"3","3","encoding","encoding","124","PenStand.jpg","1","0","1020"
"3","3","encoding","encoding","125","Megaphone.jpg","1","0","676"
"3","3","encoding","encoding","126","KeyHook_Occupied.jpg","1","0","723"
"3","3","encoding","encoding","127","Dropper.jpg","1","0","942"
"3","3","encoding","encoding","128","Ginger.jpg","1","0","768"
"3","3","encoding","encoding","129","Arch_Triomphe.jpg","1","0","930"
"3","3","encoding","encoding","130","GoldNugget.jpg","1","0","1043"
"3","3","encoding","encoding","131","Socks_Winter.jpg","1","0","757"
"3","3","encoding","encoding","132","Boat_Dinghy.jpg","1","0","764"
"3","3","encoding","encoding","133","Stethoscope.jpg","1","0","610"
"3","3","encoding","encoding","134","Trophy.jpg","1","0","707"
"3","3","encoding","encoding","135","Wardrobe.jpg","1","0","601"
"3","3","encoding","encoding","136","HDMIConnector.jpg","1","0","605"
"3","3","encoding","encoding","137","House_Rural.jpg","1","0","603"
"3","3","encoding","encoding","138","Squid_Orange.jpg","1","0","739"
"3","3","encoding","encoding","139","OnionRed.jpg","1","0","895"
"3","3","encoding","encoding","140","Teardrop.jpg","1","0","989"
"3","3","encoding","encoding","141","GuineaPig.jpg","5","0","1348"
"3","3","encoding","encoding","142","Squash_Pumpkin.jpg","1","0","908"
"3","3","encoding","encoding","143","Piano_Keyboard.jpg","1","0","582"
"3","3","encoding","encoding","144","HorseshoeCrab.jpg","1","0","758"
"3","3","encoding","encoding","145","Toy_DollOffice.jpg","1","0","981"
"3","3","encoding","encoding","146","Fork_Fondue.jpg","1","0","602"
"3","3","encoding","encoding","147","Toy_JackInTheBox.jpg","1","0","941"
"3","3","encoding","encoding","148","Telescope.jpg","1","0","715"
"3","3","encoding","encoding","149","SolderingWire.jpg","1","0","649"
"3","3","encoding","encoding","150","Butterfly.jpg","1","0","835"
"3","3","encoding","encoding","151","Bread_Roll.jpg","1","0","1116"
"3","3","encoding","encoding","152","Sashimi.jpg","1","0","1310"
"3","3","encoding","encoding","153","Brace_Leg.jpg","1","0","590"
"3","3","encoding","encoding","154","Cheesegrater_Handheld.jpg","1","0","646"
"3","3","encoding","encoding","155","Shirt_SportsJersey.jpg","1","0","712"
"3","3","encoding","encoding","156","HerbsInBag.jpg","1","0","727"
"3","3","encoding","encoding","157","Toy_Ladybug.jpg","1","0","838"
"3","3","encoding","encoding","158","SoundMixer_White.jpg","1","0","729"
"3","3","encoding","encoding","159","CookieCutter_Tree.jpg","1","0","783"
"3","3","encoding","encoding","160","Monitor.jpg","1","0","613"
"3","3","encoding","encoding","161","ClothCoaster.jpg","1","0","677"
"3","3","encoding","encoding","162","Truck_Army.jpg","1","0","766"
"3","3","encoding","encoding","163","Toy_BlocksMultiShape.jpg","1","0","731"
"3","3","encoding","encoding","164","DogLeash.jpg","1","0","874"
"3","3","encoding","encoding","165","Toy_GasPump.jpg","1","0","640"
"3","3","encoding","encoding","166","Egg_Cup.jpg","1","0","2420"
"3","3","encoding","encoding","167","CarJack.jpg","1","0","689"
"3","3","encoding","encoding","168","Bag_Gym.jpg","1","0","671"
"3","3","encoding","encoding","169","Chair_Rocking.jpg","1","0","596"
"3","3","encoding","encoding","170","Star.jpg","1","0","471"
"3","3","encoding","encoding","171","AlcoholBar.jpg","1","0","551"
"3","3","encoding","encoding","172","WateringCan_PlasticDarkGreen.jpg","1","0","522"
"3","3","encoding","encoding","173","Sign_SpeedLimit30.jpg","1","0","561"
"3","3","encoding","encoding","174","Table_Saw.jpg","1","0","565"
"3","3","encoding","encoding","175","Scoop_IceCream.jpg","1","0","687"
"3","3","encoding","encoding","176","Leaf_Green.jpg","1","0","1763"
"3","3","encoding","encoding","177","NintendoWii.jpg","1","0","1061"
"3","3","retrieval","old_objects","1","Eraser.jpg","36","1","648"
"3","3","retrieval","new_objects","2","Toolbox_RedOpen.jpg","37","1","784"
"3","3","retrieval","new_objects","3","Hook_Double.jpg","37","1","645"
"3","3","retrieval","old_objects","4","SolderingWire.jpg","36","1","665"
"3","3","retrieval","new_objects","5","LeafBlower.jpg","37","1","772"
"3","3","retrieval","new_objects","6","BikiniTop.jpg","37","1","535"
"3","3","retrieval","new_objects","7","Cable_JumpStart.jpg","37","1","966"
"3","3","retrieval","old_objects","8","Star.jpg","36","1","595"
"3","3","retrieval","new_objects","9","PencilCase.jpg","37","1","642"
"3","3","retrieval","old_objects","10","Candy_Chocolate.jpg","36","1","569"
"3","3","retrieval","old_objects","11","Toy_BlocksMultiShape.jpg","36","1","691"
"3","3","retrieval","old_objects","12","Shoes_Mould.jpg","36","1","726"
"3","3","retrieval","old_objects","13","ControlPanel.jpg","36","1","1015"
"3","3","retrieval","new_objects","14","Lens_Camera.jpg","37","1","864"
"3","3","retrieval","new_objects","15","Toy_ElephantPlastic.jpg","37","1","727"
"3","3","retrieval","old_objects","16","Arch_Triomphe.jpg","36","1","984"
"3","3","retrieval","new_objects","17","MannequinBust.jpg","37","1","762"
"3","3","retrieval","new_objects","18","Car_Totalled.jpg","37","1","675"
"3","3","retrieval","old_objects","19","Thumbtack.jpg","36","1","776"
"3","3","retrieval","new_objects","20","Box_Chocolate.jpg","36","0","969"
"3","3","retrieval","old_objects","21","Toy_TrailerAirport.jpg","37","0","838"
"3","3","retrieval","old_objects","22","TeethModel.jpg","36","1","641"
"3","3","retrieval","new_objects","23","Milkshake_Chocolate.jpg","36","0","844"
"3","3","retrieval","old_objects","24","Squash_Pumpkin.jpg","36","1","592"
"3","3","retrieval","old_objects","25","Goat.jpg","36","1","706"
"3","3","retrieval","new_objects","26","Toy_RaceTrack.jpg","37","1","733"
"3","3","retrieval","old_objects","27","DentalProbe.jpg","36","1","590"
"3","3","retrieval","old_objects","28","Drum_Bongos.jpg","36","1","889"
"3","3","retrieval","old_objects","29","NintendoWii.jpg","37","0","1035"
"3","3","retrieval","old_objects","30","Bleachers.jpg","36","1","1337"
"3","3","retrieval","new_objects","31","Tickets_Blank.jpg","36","0","790"
"3","3","retrieval","new_objects","32","Jug_Milk.jpg","37","1","694"
"3","3","retrieval","new_objects","33","Box_WoodenOpen.jpg","37","1","642"
"3","3","retrieval","old_objects","34","TestTube_MultipleAndRack.jpg","36","1","597"
"3","3","retrieval","old_objects","35","Cactus.jpg","37","0","713"
"3","3","retrieval","old_objects","36","Statue_SouthAmerican.jpg","36","1","622"
"3","3","retrieval","old_objects","37","Shorts_Plaid.jpg","37","0","558"
"3","3","retrieval","new_objects","38","Colosseum.jpg","37","1","691"
"3","3","retrieval","new_objects","39","Leaf_Yellow.jpg","37","1","673"
"3","3","retrieval","old_objects","40","HDMIConnector.jpg","36","1","607"
"3","3","retrieval","old_objects","41","Decoration_WallOrnament.jpg","36","1","617"
"3","3","retrieval","old_objects","42","WalkieTalkie_Yellow.jpg","36","1","592"
"3","3","retrieval","old_objects","43","fries.jpg","36","1","625"
"3","3","retrieval","new_objects","44","Airplane_Small.jpg","37","1","688"
"3","3","retrieval","new_objects","45","Van.jpg","37","1","624"
"3","3","retrieval","new_objects","46","Leg.jpg","37","1","596"
"3","3","retrieval","old_objects","47","Binoculars.jpg","36","1","570"
"3","3","retrieval","old_objects","48","Sign_NoParking.jpg","36","1","509"
"3","3","retrieval","new_objects","49","Candle_Blue.jpg","37","1","676"
"3","3","retrieval","new_objects","50","MemoPaperSpike.jpg","37","1","598"
"3","3","retrieval","old_objects","51","Toy_DollOffice.jpg","36","1","537"
"3","3","retrieval","new_objects","52","PuppetTheatre_WhiteGold.jpg","37","1","742"
"3","3","retrieval","new_objects","53","Toy_Moose.jpg","37","1","632"
"3","3","retrieval","old_objects","54","Flower_Hibiscus.jpg","37","0","573"
"3","3","retrieval","old_objects","55","Cheesegrater_Handheld.jpg","36","1","684"
"3","3","retrieval","old_objects","56","Bread_Roll.jpg","36","1","544"
"3","3","retrieval","new_objects","57","CarSeat.jpg","37","1","793"
"3","3","retrieval","new_objects","58","IceCrusher.jpg","37","1","943"
"3","3","retrieval","new_objects","59","Truck_Tanker.jpg","37","1","644"
"3","3","retrieval","new_objects","60","Garbage_GreenBin.jpg","37","1","852"
"3","3","retrieval","old_objects","62","Bed_Hospital.jpg","36","1","664"
"3","3","retrieval","old_objects","63","Costume_Wizard.jpg","36","1","600"
"3","3","retrieval","old_objects","64","WagonPilgrim.jpg","37","0","624"
"3","3","retrieval","old_objects","65","Trophy.jpg","36","1","617"
"3","3","retrieval","old_objects","66","GoldNugget.jpg","36","1","669"
"3","3","retrieval","new_objects","67","Tractor_Orange.jpg","37","1","596"
"3","3","retrieval","new_objects","68","Clam.jpg","37","1","783"
"3","3","retrieval","new_objects","69","Envelope_Manila.jpg","36","0","748"
"3","3","retrieval","new_objects","70","Pig.jpg","37","1","732"
"3","3","retrieval","old_objects","71","Statue_VirginMary.jpg","36","1","667"
"3","3","retrieval","new_objects","72","Canister_Tea.jpg","37","1","753"
"3","3","retrieval","old_objects","73","Clippers_Glass.jpg","37","0","639"
"3","3","retrieval","old_objects","74","GuineaPig.jpg","36","1","564"
"3","3","retrieval","old_objects","75","ClothCoaster.jpg","36","1","1084"
"3","3","retrieval","old_objects","76","BicycleWheelRusty.jpg","37","0","703"
"3","3","retrieval","new_objects","77","Drum_Set.jpg","37","1","918"
"3","3","retrieval","new_objects","78","Pickaxe.jpg","36","0","799"
"3","3","retrieval","new_objects","79","Necklace_Pearl.jpg","37","1","771"
"3","3","retrieval","old_objects","80","Keys_Bunch.jpg","36","1","609"
"3","3","retrieval","new_objects","81","Table_Poker.jpg","37","1","685"
"3","3","retrieval","new_objects","82","Toy_BearBluePlushie.jpg","37","1","679"
"3","3","retrieval","old_objects","83","Pacifier.jpg","36","1","695"
"3","3","retrieval","new_objects","84","Table_Magazine.jpg","37","1","801"
"3","3","retrieval","new_objects","85","HandMixer.jpg","37","1","735"
"3","3","retrieval","old_objects","86","Lunchbox.jpg","37","0","745"
"3","3","retrieval","new_objects","87","Almond.jpg","37","1","750"
"3","3","retrieval","new_objects","88","Kangaroo_WithJoey.jpg","37","1","845"
"3","3","retrieval","new_objects","89","Brush_Makeup.jpg","37","1","677"
"3","3","retrieval","old_objects","90","Dropper.jpg","36","1","660"
"3","3","retrieval","old_objects","91","FortuneCookie.jpg","36","1","596"
"3","3","retrieval","old_objects","92","Bowl_Lemons.jpg","36","1","722"
"3","3","retrieval","new_objects","93","Gorilla.jpg","37","1","613"
"3","3","retrieval","old_objects","94","Boat_Dinghy.jpg","36","1","816"
"3","3","retrieval","old_objects","95","Toy_Ladybug.jpg","36","1","649"
"3","3","retrieval","new_objects","96","DrillBit.jpg","37","1","699"
"3","3","retrieval","new_objects","97","Stove_WithOven.jpg","37","1","775"
"3","3","retrieval","old_objects","98","Desk_Office.jpg","36","1","965"
"3","3","retrieval","old_objects","99","Bed_QueenSize.jpg","36","1","675"
"3","3","retrieval","old_objects","100","PaintSprayer.jpg","36","1","875"
"3","3","retrieval","new_objects","101","House_CeramicGingerbread.jpg","37","1","642"
"3","3","retrieval","new_objects","102","Clip_Binder.jpg","37","1","994"
"3","3","retrieval","new_objects","103","Triangle.jpg","37","1","1089"
"3","3","retrieval","old_objects","104","TotemPole.jpg","37","0","877"
"3","3","retrieval","new_objects","105","CoffeeGrinder.jpg","36","0","785"
"3","3","retrieval","new_objects","106","Watch.jpg","36","0","596"
"3","3","retrieval","old_objects","107","PuppetTheatre_BlueRed.jpg","36","1","631"
"3","3","retrieval","new_objects","108","Spider.jpg","37","1","608"
"3","3","retrieval","new_objects","109","Seashell_RoseMurex.jpg","36","0","946"
"3","3","retrieval","old_objects","110","BicycleOdometer.jpg","36","1","630"
"3","3","retrieval","new_objects","111","Napkin_Holder.jpg","37","1","748"
"3","3","retrieval","new_objects","112","Ball_Basketball.jpg","37","1","1031"
"3","3","retrieval","old_objects","113","BasketballHoop.jpg","36","1","661"
"3","3","retrieval","new_objects","114","Exercise_Stepper.jpg","36","0","867"
"3","3","retrieval","old_objects","115","PenStand.jpg","36","1","574"
"3","3","retrieval","new_objects","116","Microwave.jpg","36","0","1129"
"3","3","retrieval","old_objects","117","Glass_Martini.jpg","37","0","912"
"3","3","retrieval","old_objects","118","AlcoholBar.jpg","37","0","860"
"3","3","retrieval","old_objects","119","Vase_Decorative.jpg","36","1","730"
"3","3","retrieval","new_objects","120","Shoe_Sneaker.jpg","37","1","721"
"3","3","retrieval","new_objects","121","Mixer_Hand.jpg","37","1","746"
"3","3","retrieval","old_objects","123","Earring_Hoop.jpg","36","1","766"
"3","3","retrieval","old_objects","124","MannequinHead.jpg","36","1","780"
"3","3","retrieval","old_objects","125","Hat_Cowboy.jpg","37","0","652"
"3","3","retrieval","new_objects","126","Tap.jpg","37","1","777"
"3","3","retrieval","new_objects","127","Stone_AncientWriting.jpg","37","1","787"
"3","3","retrieval","new_objects","128","Whip.jpg","37","1","759"
"3","3","retrieval","old_objects","129","Jar_Canopic.jpg","36","1","726"
"3","3","retrieval","old_objects","130","Table_Saw.jpg","36","1","932"
"3","3","retrieval","old_objects","131","Brace_Leg.jpg","36","1","640"
"3","3","retrieval","old_objects","132","Telescope.jpg","37","0","970"
"3","3","retrieval","new_objects","133","Piano_Upright.jpg","36","0","689"
"3","3","retrieval","old_objects","134","Container_RedPlastic.jpg","36","1","559"
"3","3","retrieval","new_objects","135","Cup_Bathroom.jpg","36","0","780"
"3","3","retrieval","new_objects","136","Bowl_Fruits.jpg","37","1","750"
"3","3","retrieval","new_objects","137","Jar_Empty.jpg","37","1","1062"
"3","3","retrieval","old_objects","138","Hippopotamus.jpg","36","1","639"
"3","3","retrieval","old_objects","139","SoundMixer_White.jpg","36","1","576"
"3","3","retrieval","old_objects","140","Mousetrap.jpg","36","1","710"
"3","3","retrieval","old_objects","141","BloodpPresureCuff.jpg","0","0","2000"
"3","3","retrieval","new_objects","142","Magnet_Three.jpg","37","1","677"
"3","3","retrieval","old_objects","143","HerbsInBag.jpg","36","1","986"
"3","3","retrieval","old_objects","144","Abacus.jpg","36","1","777"
"3","3","retrieval","new_objects","145","Briefcase_Leather.jpg","37","1","1114"
"3","3","retrieval","old_objects","146","Door_Green.jpg","37","0","1333"
"3","3","retrieval","new_objects","147","Toy_WoodenPlainSingle.jpg","37","1","1381"
"3","3","retrieval","new_objects","148","PhoneJack.jpg","37","1","1399"
"3","3","retrieval","old_objects","149","SoapBottle.jpg","36","1","710"
"3","3","retrieval","new_objects","150","Cheesegrater_Box.jpg","37","1","1330"
"3","3","retrieval","old_objects","151","Mitt_Oven.jpg","36","1","713"
"3","3","retrieval","new_objects","152","Comb.jpg","37","1","1400"
"3","3","retrieval","new_objects","153","Bench_Wooden.jpg","37","1","911"
"3","3","retrieval","old_objects","154","Light_Siren.jpg","36","1","554"
"3","3","retrieval","new_objects","155","Chest.jpg","37","1","766"
"3","3","retrieval","new_objects","156","PictureFrame.jpg","37","1","540"
"3","3","retrieval","new_objects","157","ToothbrushHolder.jpg","37","1","558"
"3","3","retrieval","new_objects","158","Cane_Wooden.jpg","37","1","646"
"3","3","retrieval","old_objects","159","Socks_Winter.jpg","36","1","595"
"3","3","retrieval","new_objects","160","Toy_DollHomeMade.jpg","37","1","587"
"3","3","retrieval","new_objects","161","Book_Leather.jpg","37","1","543"
"3","3","retrieval","old_objects","162","Chicken_Raw.jpg","36","1","570"
"3","3","retrieval","new_objects","163","Flower_Tulip.jpg","37","1","576"
"3","3","retrieval","old_objects","164","CarJack.jpg","36","1","597"
"3","3","retrieval","old_objects","165","Stick_Stirring.jpg","36","1","576"
"3","3","retrieval","old_objects","166","PaintRollTray.jpg","36","1","621"
"3","3","retrieval","new_objects","167","Cow.jpg","37","1","603"
"3","3","retrieval","old_objects","168","Hat_Police.jpg","36","1","514"
"3","3","retrieval","new_objects","169","Shovel_Sandbox.jpg","37","1","702"
"3","3","retrieval","old_objects","170","RAMchip.jpg","36","1","519"
"3","3","retrieval","old_objects","171","Hammock.jpg","36","1","578"
"3","3","retrieval","new_objects","172","CoffeeLid.jpg","37","1","732"
"3","3","retrieval","old_objects","173","PaintRoller.jpg","37","0","682"
"3","3","retrieval","new_objects","174","SofaAntique.jpg","37","1","752"
"3","3","retrieval","new_objects","175","Cologne.jpg","36","0","649"
"3","3","retrieval","new_objects","176","Mask_Ski.jpg","36","0","582"
"3","3","retrieval","old_objects","177","OnionRed.jpg","36","1","510"
"3","3","retrieval","new_objects","178","Cord_Ethernet.jpg","36","0","771"
"3","3","retrieval","new_objects","179","Keyhole.jpg","37","1","549"
"3","3","retrieval","new_objects","180","FlipFlop_PairBlue.jpg","37","1","717"
"3","3","retrieval","old_objects","181","BicycleBrake.jpg","36","1","671"
"3","3","retrieval","new_objects","182","FileFolder.jpg","37","1","57"
"3","3","retrieval","new_objects","184","Cabinet_Office.jpg","37","1","649"
"3","3","retrieval","old_objects","185","Pineapple.jpg","36","1","539"
"3","3","retrieval","old_objects","186","TortillaChip.jpg","36","1","569"
"3","3","retrieval","old_objects","187","Nuts_Pecan.jpg","36","1","555"
"3","3","retrieval","new_objects","188","Glasses_Sun.jpg","37","1","515"
"3","3","retrieval","old_objects","189","Toy_GasPump.jpg","36","1","598"
"3","3","retrieval","old_objects","190","KeyHook_Occupied.jpg","36","1","757"
"3","3","retrieval","new_objects","191","Pen_Ballpoint.jpg","37","1","651"
"3","3","retrieval","old_objects","192","Slide.jpg","36","1","720"
"3","3","retrieval","new_objects","193","Scoop_Flour.jpg","37","1","769"
"3","3","retrieval","old_objects","194","Squid_Orange.jpg","37","0","605"
"3","3","retrieval","old_objects","195","Jetski.jpg","36","1","580"
"3","3","retrieval","new_objects","196","Pasta_Macaroni.jpg","37","1","637"
"3","3","retrieval","new_objects","197","Sign_Airport.jpg","37","1","672"
"3","3","retrieval","old_objects","198","Bird_Hen.jpg","37","0","1241"
"3","3","retrieval","old_objects","199","Cannister_GasVintage.jpg","37","0","633"
"3","3","retrieval","new_objects","200","Staples.jpg","37","1","727"
"3","3","retrieval","old_objects","201","Fireplace_Outdoor.jpg","36","1","630"
"3","3","retrieval","old_objects","202","WaterWell.jpg","36","1","663"
"3","3","retrieval","old_objects","203","Table_Side.jpg","36","1","578"
"3","3","retrieval","old_objects","204","Plunger.jpg","37","0","826"
"3","3","retrieval","new_objects","205","Bottle_Beer.jpg","37","1","611"
"3","3","retrieval","old_objects","206","Heater_Infrared.jpg","36","1","593"
"3","3","retrieval","new_objects","207","Clock_Wall.jpg","37","1","632"
"3","3","retrieval","new_objects","208","Mask_VenetianCat.jpg","37","1","602"
"3","3","retrieval","new_objects","209","ServiceBell.jpg","37","1","640"
"3","3","retrieval","old_objects","210","ElectricOutlet.jpg","37","0","593"
"3","3","retrieval","old_objects","211","PenHolder.jpg","36","1","713"
"3","3","retrieval","new_objects","212","Chair_Airplane.jpg","37","1","599"
"3","3","retrieval","old_objects","213","Acorn.jpg","36","1","653"
"3","3","retrieval","old_objects","214","Box_Floral.jpg","36","1","721"
"3","3","retrieval","old_objects","215","Toy_LambPlushie.jpg","36","1","540"
"3","3","retrieval","old_objects","216","DogLeash.jpg","36","1","557"
"3","3","retrieval","old_objects","217","Hockey_Equipment.jpg","37","0","794"
"3","3","retrieval","old_objects","218","Cake_Wedding.jpg","36","1","730"
"3","3","retrieval","old_objects","219","Camera_Security.jpg","36","1","721"
"3","3","retrieval","old_objects","220","Truck_Army.jpg","37","0","617"
"3","3","retrieval","old_objects","221","Fork_Fondue.jpg","37","0","748"
"3","3","retrieval","old_objects","222","Starfish.jpg","36","1","525"
"3","3","retrieval","new_objects","223","Flamingo_Real.jpg","37","1","722"
"3","3","retrieval","old_objects","224","WatermelonSlice.jpg","36","1","570"
"3","3","retrieval","old_objects","225","Garlic_Clove.jpg","36","1","571"
"3","3","retrieval","new_objects","226","MeasuringTape.jpg","36","0","538"
"3","3","retrieval","old_objects","227","Teardrop.jpg","36","1","487"
"3","3","retrieval","old_objects","228","Wardrobe.jpg","37","0","796"
"3","3","retrieval","new_objects","229","Sock_Ankle.jpg","36","0","567"
"3","3","retrieval","old_objects","230","House_Rural.jpg","37","0","618"
"3","3","retrieval","old_objects","231","Leaf_Green.jpg","36","1","450"
"3","3","retrieval","new_objects","232","DustPan.jpg","37","1","642"
"3","3","retrieval","new_objects","233","Toy_Shapesorter.jpg","37","1","597"
"3","3","retrieval","old_objects","234","Bomb.jpg","36","1","543"
"3","3","retrieval","old_objects","235","Piano_Keyboard.jpg","36","1","616"
"3","3","retrieval","new_objects","236","FireExtinguisher.jpg","37","1","666"
"3","3","retrieval","new_objects","237","Heater_ElectricPortable.jpg","37","1","623"
"3","3","retrieval","old_objects","238","Caribou.jpg","36","1","587"
"3","3","retrieval","new_objects","239","Hubcap.jpg","37","1","562"
"3","3","retrieval","old_objects","240","JuicerCitrus.jpg","37","0","534"
"3","3","retrieval","new_objects","241","StickyTack.jpg","37","1","549"
"3","3","retrieval","new_objects","242","Steamer.jpg","37","1","563"
"3","3","retrieval","new_objects","243","Gum_Pack.jpg","37","1","549"
"3","3","retrieval","old_objects","245","ChiliFlakes.jpg","36","1","600"
"3","3","retrieval","old_objects","246","Hat_Baseball.jpg","36","1","683"
"3","3","retrieval","old_objects","247","ThreeHolePunch.jpg","36","1","779"
"3","3","retrieval","new_objects","248","Mallet.jpg","36","0","665"
"3","3","retrieval","old_objects","249","Megaphone.jpg","37","0","802"
"3","3","retrieval","new_objects","250","Loveseat.jpg","37","1","590"
"3","3","retrieval","new_objects","251","Accordion.jpg","37","1","626"
"3","3","retrieval","new_objects","252","FlipFlop_SingleRed.jpg","37","1","634"
"3","3","retrieval","new_objects","253","Coin.jpg","37","1","624"
"3","3","retrieval","old_objects","254","Sign_Open.jpg","36","1","601"
"3","3","retrieval","old_objects","255","Bag_Gym.jpg","37","0","530"
"3","3","retrieval","new_objects","256","SpinalCord.jpg","37","1","570"
"3","3","retrieval","new_objects","257","Shovel_Garden.jpg","37","1","504"
"3","3","retrieval","old_objects","258","Egg_Cup.jpg","36","1","601"
"3","3","retrieval","old_objects","259","Monitor.jpg","36","1","820"
"3","3","retrieval","new_objects","260","DogToy.jpg","37","1","557"
"3","3","retrieval","new_objects","261","SatelliteDish.jpg","37","1","656"
"3","3","retrieval","new_objects","262","Staircase_Curving.jpg","36","0","769"
"3","3","retrieval","old_objects","263","Shirt_SportsJersey.jpg","36","1","654"
"3","3","retrieval","old_objects","264","Stove_Camping.jpg","36","1","920"
"3","3","retrieval","old_objects","265","WashingMachine.jpg","36","1","664"
"3","3","retrieval","new_objects","266","Gun_Bazooka.jpg","36","0","683"
"3","3","retrieval","old_objects","267","Hedgehog.jpg","36","1","586"
"3","3","retrieval","old_objects","268","EnglishMuffin.jpg","36","1","504"
"3","3","retrieval","old_objects","269","CookieCutter_Tree.jpg","36","1","573"
"3","3","retrieval","new_objects","270","Helmet_Knight.jpg","37","1","504"
"3","3","retrieval","new_objects","271","Sign_Taxi.jpg","37","1","788"
"3","3","retrieval","old_objects","272","Stove_Propane.jpg","37","0","649"
"3","3","retrieval","old_objects","273","Ginger.jpg","36","1","562"
"3","3","retrieval","old_objects","274","PaperCutter.jpg","36","1","525"
"3","3","retrieval","old_objects","275","Brush_Winter.jpg","36","1","615"
"3","3","retrieval","new_objects","276","HairScrunchie.jpg","36","0","619"
"3","3","retrieval","new_objects","277","Box_JeweleryWooden.jpg","37","1","539"
"3","3","retrieval","new_objects","278","ScrewDriver.jpg","37","1","630"
"3","3","retrieval","new_objects","279","Garbage_Can.jpg","37","1","796"
"3","3","retrieval","new_objects","280","PaperTowel_Kitchen.jpg","37","1","710"
"3","3","retrieval","new_objects","281","Speaker_Single.jpg","37","1","555"
"3","3","retrieval","new_objects","282","DJMixer.jpg","36","0","772"
"3","3","retrieval","old_objects","283","Carabiner_Orange.jpg","36","1","775"
"3","3","retrieval","new_objects","284","Teabag.jpg","37","1","793"
"3","3","retrieval","new_objects","285","Bird_CanadianGoose.jpg","37","1","881"
"3","3","retrieval","old_objects","286","HorseshoeCrab.jpg","36","1","810"
"3","3","retrieval","new_objects","287","SmokeDetector.jpg","37","1","1517"
"3","3","retrieval","old_objects","288","Boat_Sail.jpg","36","1","1641"
"3","3","retrieval","old_objects","289","Scoop_IceCream.jpg","37","0","880"
"3","3","retrieval","new_objects","290","Candy_Heart.jpg","37","1","829"
"3","3","retrieval","new_objects","291","WaterFountain.jpg","37","1","1326"
"3","3","retrieval","old_objects","292","IceCream_Chocolate.jpg","37","0","555"
"3","3","retrieval","new_objects","293","Card_QueenSpade.jpg","37","1","603"
"3","3","retrieval","new_objects","294","PumiceStone.jpg","37","1","750"
"3","3","retrieval","new_objects","295","Lipstick.jpg","36","0","1570"
"3","3","retrieval","old_objects","296","Stethoscope.jpg","36","1","1090"
"3","3","retrieval","new_objects","297","Colander.jpg","36","0","742"
"3","3","retrieval","old_objects","298","Switch_LightBlack.jpg","36","1","646"
"3","3","retrieval","new_objects","299","Bag_Satchel.jpg","36","0","782"
"3","3","retrieval","new_objects","300","Shirt_Tshirt.jpg","37","1","1251"
"3","3","retrieval","old_objects","301","Sashimi.jpg","36","1","1085"
"3","3","retrieval","new_objects","302","Seashell_BayScallop.jpg","37","1","667"
"3","3","retrieval","old_objects","303","Toy_BlocksWoodenPlain.jpg","36","1","862"
"3","3","retrieval","old_objects","304","Snowpea.jpg","36","1","1216"
"3","3","retrieval","new_objects","306","Hat_Colonial.jpg","37","1","713"
"3","3","retrieval","old_objects","307","Chair_Rocking.jpg","37","0","804"
"3","3","retrieval","old_objects","308","Bottle_Oil.jpg","36","1","596"
"3","3","retrieval","old_objects","309","KitchenTools.jpg","36","1","566"
"3","3","retrieval","new_objects","310","Can_Milk.jpg","37","1","609"
"3","3","retrieval","old_objects","311","FuzzyDice.jpg","36","1","548"
"3","3","retrieval","old_objects","312","Castle_Model.jpg","36","1","589"
"3","3","retrieval","old_objects","313","Pouch_Red.jpg","37","0","678"
"3","3","retrieval","new_objects","314","PillBottle_Prescription.jpg","37","1","876"
"3","3","retrieval","new_objects","315","Gametable_AirHockey.jpg","36","0","629"
"3","3","retrieval","new_objects","316","Mat_Door.jpg","37","1","548"
"3","3","retrieval","new_objects","317","Camel_Bactrian.jpg","37","1","640"
"3","3","retrieval","old_objects","318","Dreidel.jpg","36","1","613"
"3","3","retrieval","old_objects","319","Brace_Back.jpg","36","1","674"
"3","3","retrieval","new_objects","320","Ruler_Metal.jpg","37","1","618"
"3","3","retrieval","new_objects","321","Stove_Portable.jpg","36","0","687"
"3","3","retrieval","new_objects","322","SpaceRover.jpg","37","1","606"
"3","3","retrieval","old_objects","323","Butterfly.jpg","36","1","656"
"3","3","retrieval","old_objects","324","Bolt.jpg","36","1","580"
"3","3","retrieval","new_objects","325","Candy_GummyBear.jpg","37","1","659"
"3","3","retrieval","new_objects","326","SaladCaesar.jpg","37","1","636"
"3","3","retrieval","new_objects","327","Armchair.jpg","37","1","766"
"3","3","retrieval","old_objects","328","Sign_SpeedLimit30.jpg","37","0","751"
"3","3","retrieval","new_objects","329","Hat_Party.jpg","37","1","506"
"3","3","retrieval","new_objects","330","Skirt_Stripes.jpg","37","1","494"
"3","3","retrieval","new_objects","331","Ball_Baseball.jpg","37","1","631"
"3","3","retrieval","new_objects","332","BinRecycling.jpg","37","1","490"
"3","3","retrieval","old_objects","333","Toy_JackInTheBox.jpg","36","1","545"
"3","3","retrieval","new_objects","334","Tree_ChristmasMini.jpg","37","1","576"
"3","3","retrieval","old_objects","335","BicycleWheel.jpg","37","0","457"
"3","3","retrieval","old_objects","336","CraneMachine.jpg","36","1","540"
"3","3","retrieval","old_objects","337","WateringCan_PlasticDarkGreen.jpg","37","0","546"
"3","3","retrieval","old_objects","338","Jet.jpg","37","0","530"
"3","3","retrieval","new_objects","339","Branch.jpg","37","1","647"
"3","3","retrieval","old_objects","340","BicycleChain.jpg","37","0","515"
"3","3","retrieval","new_objects","341","Knife_Camping.jpg","37","1","550"
"3","3","retrieval","new_objects","342","Lock_Combination.jpg","37","1","633"
"3","3","retrieval","old_objects","343","Kiwi.jpg","36","1","543"
"3","3","retrieval","new_objects","344","ClothesDryingRack.jpg","37","1","460"
"3","3","retrieval","old_objects","345","Mask_Happy.jpg","37","0","461"
"3","3","retrieval","new_objects","346","Box_Package.jpg","37","1","570"
"3","3","retrieval","new_objects","347","Toy_Alien.jpg","37","1","615"
"3","3","retrieval","new_objects","348","Chair_Barber.jpg","37","1","544"
"3","3","retrieval","old_objects","349","HardDrive.jpg","36","1","587"
"3","3","retrieval","new_objects","350","Candelabra.jpg","37","1","529"
"3","3","retrieval","old_objects","351","Gazebo.jpg","37","0","392"
"3","3","retrieval","new_objects","352","Snorkle.jpg","37","1","651"
"3","3","retrieval","new_objects","353","Hook_Fishing.jpg","37","1","496"
"3","3","retrieval","new_objects","354","House_Wooden.jpg","36","0","568"
"3","3","retrieval","new_objects","355","Tickets_PrintWords.jpg","36","0","500"
"3","3","demographics_block","gender","1","Tickets_PrintWords.jpg","male","1","10306"
"3","3","demographics_block","age","1","Tickets_PrintWords.jpg","33","1","10306"
"3","3","demographics_block","education","1","Tickets_PrintWords.jpg","16","1","10306"
"3","3","demographics_block","left_right_handed","2","Tickets_PrintWords.jpg","Right","1","4916"
"3","3","demographics_block","raceoption1","2","Tickets_PrintWords.jpg","0","1","4916"
"3","3","demographics_block","raceoption2","2","Tickets_PrintWords.jpg","","1","4916"
"3","3","demographics_block","raceoption3","2","Tickets_PrintWords.jpg","","1","4916"
"3","3","demographics_block","raceoption4","2","Tickets_PrintWords.jpg","","1","4916"
"3","3","demographics_block","raceoption5","2","Tickets_PrintWords.jpg","","1","4916"
"3","3","demographics_block","raceoption6","2","Tickets_PrintWords.jpg","","1","4916"
"3","3","demographics_block","raceoption7","2","Tickets_PrintWords.jpg","","1","4916"
"3","3","demographics_block","raceoption8","2","Tickets_PrintWords.jpg","","1","4916"
"3","3","demographics_block","raceoption9","2","Tickets_PrintWords.jpg","","1","4916"
"3","3","demographics_block","raceother","2","Tickets_PrintWords.jpg","","1","4916"
"3","3","demographics_block","raceother","2","Tickets_PrintWords.jpg","","1","4916"
"3","3","demographics_block","english_language","2","Tickets_PrintWords.jpg","Yes","1","4916"
"3","3","demographics_block","english_languageother","2","Tickets_PrintWords.jpg","","1","4916"
"3","3","demographics_block","eyesight","3","Tickets_PrintWords.jpg","Yes","1","2971"
"3","3","demographics_block","colorblind","3","Tickets_PrintWords.jpg","No","1","2971"
"3","3","worker_id_block","worker_id_textbox","1","Tickets_PrintWords.jpg","A1ZE52NWZPN85P","1","7458"
"4","4","encoding","encoding","1","Dropper.jpg","1","0","1981"
"4","4","encoding","encoding","2","Statue_VirginMary.jpg","1","0","1929"
"4","4","encoding","encoding","3","Stick_Stirring.jpg","1","0","1525"
"4","4","encoding","encoding","4","Shirt_SportsJersey.jpg","1","0","1227"
"4","4","encoding","encoding","5","PaintRoller.jpg","1","0","889"
"4","4","encoding","encoding","6","SolderingWire.jpg","1","0","891"
"4","4","encoding","encoding","7","BicycleWheel.jpg","1","0","707"
"4","4","encoding","encoding","8","Boat_Sail.jpg","1","0","825"
"4","4","encoding","encoding","9","Megaphone.jpg","1","0","594"
"4","4","encoding","encoding","10","ChiliFlakes.jpg","1","0","959"
"4","4","encoding","encoding","11","Goat.jpg","1","0","730"
"4","4","encoding","encoding","12","Sashimi.jpg","1","0","607"
"4","4","encoding","encoding","13","Pacifier.jpg","1","0","633"
"4","4","encoding","encoding","14","Hedgehog.jpg","1","0","1119"
"4","4","encoding","encoding","15","WatermelonSlice.jpg","1","0","659"
"4","4","encoding","encoding","16","TeethModel.jpg","1","0","659"
"4","4","encoding","encoding","17","Camera_Security.jpg","1","0","616"
"4","4","encoding","encoding","18","Bag_Gym.jpg","1","0","585"
"4","4","encoding","encoding","19","Hat_Police.jpg","1","0","589"
"4","4","encoding","encoding","20","Snowpea.jpg","1","0","697"
"4","4","encoding","encoding","21","Table_Side.jpg","1","0","1587"
"4","4","encoding","encoding","22","Chair_Rocking.jpg","1","0","726"
"4","4","encoding","encoding","23","Piano_Keyboard.jpg","1","0","650"
"4","4","encoding","encoding","24","Butterfly.jpg","1","0","620"
"4","4","encoding","encoding","25","fries.jpg","1","0","746"
"4","4","encoding","encoding","26","Hat_Cowboy.jpg","1","0","830"
"4","4","encoding","encoding","27","Hockey_Equipment.jpg","1","0","818"
"4","4","encoding","encoding","28","Box_Floral.jpg","1","0","971"
"4","4","encoding","encoding","29","House_Rural.jpg","1","0","973"
"4","4","encoding","encoding","30","HerbsInBag.jpg","1","0","889"
"4","4","encoding","encoding","31","CarJack.jpg","1","0","1942"
"4","4","encoding","encoding","32","HorseshoeCrab.jpg","1","0","1111"
"4","4","encoding","encoding","33","Garlic_Clove.jpg","1","0","1112"
"4","4","encoding","encoding","34","CraneMachine.jpg","1","0","836"
"4","4","encoding","encoding","35","PaintRollTray.jpg","1","0","745"
"4","4","encoding","encoding","36","Nuts_Pecan.jpg","1","0","825"
"4","4","encoding","encoding","37","Costume_Wizard.jpg","2","0","2547"
"4","4","encoding","encoding","38","Egg_Cup.jpg","1","0","1769"
"4","4","encoding","encoding","39","BloodpPresureCuff.jpg","1","0","1185"
"4","4","encoding","encoding","40","Cactus.jpg","1","0","1401"
"4","4","encoding","encoding","41","Chicken_Raw.jpg","1","0","1219"
"4","4","encoding","encoding","42","Squid_Orange.jpg","1","0","1211"
"4","4","encoding","encoding","43","Monitor.jpg","3","0","2362"
"4","4","encoding","encoding","44","Hammock.jpg","1","0","1477"
"4","4","encoding","encoding","45","WaterWell.jpg","1","0","831"
"4","4","encoding","encoding","46","Cannister_GasVintage.jpg","1","0","1782"
"4","4","encoding","encoding","47","Table_Saw.jpg","1","0","2811"
"4","4","encoding","encoding","48","BicycleOdometer.jpg","1","0","1044"
"4","4","encoding","encoding","49","KeyHook_Occupied.jpg","1","0","2188"
"4","4","encoding","encoding","50","Candy_Chocolate.jpg","0","0","3000"
"4","4","encoding","encoding","51","Desk_Office.jpg","1","0","689"
"4","4","encoding","encoding","52","Pineapple.jpg","1","0","1394"
"4","4","encoding","encoding","53","Wardrobe.jpg","1","0","909"
"4","4","encoding","encoding","54","SoapBottle.jpg","1","0","883"
"4","4","encoding","encoding","55","Bread_Roll.jpg","1","0","961"
"4","4","encoding","encoding","56","Teardrop.jpg","1","0","671"
"4","4","encoding","encoding","57","Jet.jpg","1","0","601"
"4","4","encoding","encoding","58","Thumbtack.jpg","1","0","935"
"4","4","encoding","encoding","59","Abacus.jpg","1","0","743"
"4","4","encoding","encoding","60","Brush_Winter.jpg","1","0","729"
"4","4","encoding","encoding","62","Toy_DollOffice.jpg","2","0","2302"
"4","4","encoding","encoding","63","Glass_Martini.jpg","1","0","1572"
"4","4","encoding","encoding","64","Toy_JackInTheBox.jpg","1","0","1017"
"4","4","encoding","encoding","65","Clippers_Glass.jpg","1","0","943"
"4","4","encoding","encoding","66","Gazebo.jpg","1","0","1097"
"4","4","encoding","encoding","67","Mousetrap.jpg","0","0","3000"
"4","4","encoding","encoding","68","Stethoscope.jpg","1","0","1569"
"4","4","encoding","encoding","69","Starfish.jpg","1","0","1784"
"4","4","encoding","encoding","70","OnionRed.jpg","1","0","1131"
"4","4","encoding","encoding","71","AlcoholBar.jpg","1","0","1372"
"4","4","encoding","encoding","72","WashingMachine.jpg","1","0","920"
"4","4","encoding","encoding","73","PaintSprayer.jpg","1","0","2192"
"4","4","encoding","encoding","74","Cake_Wedding.jpg","2","0","1940"
"4","4","encoding","encoding","75","Sign_NoParking.jpg","1","0","1424"
"4","4","encoding","encoding","76","Mitt_Oven.jpg","1","0","932"
"4","4","encoding","encoding","77","Dreidel.jpg","1","0","1518"
"4","4","encoding","encoding","78","ThreeHolePunch.jpg","1","0","1944"
"4","4","encoding","encoding","79","Door_Green.jpg","1","0","1236"
"4","4","encoding","encoding","80","TestTube_MultipleAndRack.jpg","1","0","1014"
"4","4","encoding","encoding","81","EnglishMuffin.jpg","1","0","1107"
"4","4","encoding","encoding","82","WalkieTalkie_Yellow.jpg","1","0","909"
"4","4","encoding","encoding","83","Bottle_Oil.jpg","1","0","932"
"4","4","encoding","encoding","84","Carabiner_Orange.jpg","1","0","1267"
"4","4","encoding","encoding","85","Leaf_Green.jpg","1","0","827"
"4","4","encoding","encoding","86","BicycleBrake.jpg","1","0","896"
"4","4","encoding","encoding","87","Toy_LambPlushie.jpg","1","0","1231"
"4","4","encoding","encoding","88","JuicerCitrus.jpg","1","0","1063"
"4","4","encoding","encoding","89","SoundMixer_White.jpg","3","0","2203"
"4","4","encoding","encoding","90","Hippopotamus.jpg","0","0","3000"
"4","4","encoding","encoding","91","PaperCutter.jpg","1","0","1296"
"4","4","encoding","encoding","92","GuineaPig.jpg","2","0","1521"
"4","4","encoding","encoding","93","KitchenTools.jpg","1","0","1513"
"4","4","encoding","encoding","94","Trophy.jpg","1","0","1369"
"4","4","encoding","encoding","95","Toy_Ladybug.jpg","1","0","1061"
"4","4","encoding","encoding","96","Heater_Infrared.jpg","1","0","599"
"4","4","encoding","encoding","97","Toy_TrailerAirport.jpg","1","0","1217"
"4","4","encoding","encoding","98","Sign_Open.jpg","1","0","1767"
"4","4","encoding","encoding","99","Fireplace_Outdoor.jpg","1","0","980"
"4","4","encoding","encoding","100","FortuneCookie.jpg","1","0","1097"
"4","4","encoding","encoding","101","Bolt.jpg","1","0","906"
"4","4","encoding","encoding","102","WagonPilgrim.jpg","1","0","1008"
"4","4","encoding","encoding","103","Stove_Camping.jpg","1","0","1232"
"4","4","encoding","encoding","104","ControlPanel.jpg","2","0","1617"
"4","4","encoding","encoding","105","Acorn.jpg","1","0","1396"
"4","4","encoding","encoding","106","Pouch_Red.jpg","1","0","1150"
"4","4","encoding","encoding","107","Bowl_Lemons.jpg","1","0","880"
"4","4","encoding","encoding","108","Bomb.jpg","2","0","2355"
"4","4","encoding","encoding","109","Hat_Baseball.jpg","1","0","1022"
"4","4","encoding","encoding","110","Earring_Hoop.jpg","1","0","1124"
"4","4","encoding","encoding","111","Bed_QueenSize.jpg","3","0","2537"
"4","4","encoding","encoding","112","Statue_SouthAmerican.jpg","1","0","1767"
"4","4","encoding","encoding","113","Drum_Bongos.jpg","1","0","1297"
"4","4","encoding","encoding","114","Squash_Pumpkin.jpg","1","0","921"
"4","4","encoding","encoding","115","Truck_Army.jpg","1","0","1045"
"4","4","encoding","encoding","116","Bird_Hen.jpg","1","0","945"
"4","4","encoding","encoding","117","Mask_Happy.jpg","1","0","1007"
"4","4","encoding","encoding","118","Keys_Bunch.jpg","1","0","763"
"4","4","encoding","encoding","119","Brace_Back.jpg","1","0","1055"
"4","4","encoding","encoding","120","Shoes_Mould.jpg","1","0","997"
"4","4","encoding","encoding","121","Socks_Winter.jpg","1","0","1073"
"4","4","encoding","encoding","123","Ginger.jpg","1","0","2413"
"4","4","encoding","encoding","124","Caribou.jpg","1","0","1813"
"4","4","encoding","encoding","125","BicycleChain.jpg","0","0","3000"
"4","4","encoding","encoding","126","Toy_BlocksMultiShape.jpg","1","0","1017"
"4","4","encoding","encoding","127","PuppetTheatre_BlueRed.jpg","1","0","1358"
"4","4","encoding","encoding","128","Shorts_Plaid.jpg","1","0","850"
"4","4","encoding","encoding","129","HDMIConnector.jpg","2","0","2562"
"4","4","encoding","encoding","130","ClothCoaster.jpg","1","0","1500"
"4","4","encoding","encoding","131","FuzzyDice.jpg","1","0","1002"
"4","4","encoding","encoding","132","Toy_BlocksWoodenPlain.jpg","1","0","924"
"4","4","encoding","encoding","133","HardDrive.jpg","3","0","2536"
"4","4","encoding","encoding","134","ElectricOutlet.jpg","1","0","1766"
"4","4","encoding","encoding","135","Vase_Decorative.jpg","1","0","1466"
"4","4","encoding","encoding","136","BicycleWheelRusty.jpg","1","0","1060"
"4","4","encoding","encoding","137","Jar_Canopic.jpg","1","0","1045"
"4","4","encoding","encoding","138","Scoop_IceCream.jpg","1","0","1092"
"4","4","encoding","encoding","139","Brace_Leg.jpg","1","0","1412"
"4","4","encoding","encoding","140","Flower_Hibiscus.jpg","1","0","880"
"4","4","encoding","encoding","141","Light_Siren.jpg","1","0","911"
"4","4","encoding","encoding","142","PenHolder.jpg","1","0","983"
"4","4","encoding","encoding","143","TotemPole.jpg","1","0","1067"
"4","4","encoding","encoding","144","Telescope.jpg","1","0","977"
"4","4","encoding","encoding","145","RAMchip.jpg","3","0","1795"
"4","4","encoding","encoding","146","Plunger.jpg","1","0","1927"
"4","4","encoding","encoding","147","NintendoWii.jpg","3","0","2946"
"4","4","encoding","encoding","148","DogLeash.jpg","1","0","1351"
"4","4","encoding","encoding","149","Bed_Hospital.jpg","1","0","1375"
"4","4","encoding","encoding","150","Lunchbox.jpg","1","0","913"
"4","4","encoding","encoding","151","GoldNugget.jpg","1","0","998"
"4","4","encoding","encoding","152","IceCream_Chocolate.jpg","1","0","829"
"4","4","encoding","encoding","153","Bleachers.jpg","1","0","1499"
"4","4","encoding","encoding","154","CookieCutter_Tree.jpg","1","0","987"
"4","4","encoding","encoding","155","Stove_Propane.jpg","1","0","2384"
"4","4","encoding","encoding","156","Switch_LightBlack.jpg","1","0","1090"
"4","4","encoding","encoding","157","Castle_Model.jpg","1","0","1066"
"4","4","encoding","encoding","158","TortillaChip.jpg","1","0","1416"
"4","4","encoding","encoding","159","Eraser.jpg","1","0","2072"
"4","4","encoding","encoding","160","Toy_GasPump.jpg","1","0","1349"
"4","4","encoding","encoding","161","Star.jpg","1","0","1041"
"4","4","encoding","encoding","162","Fork_Fondue.jpg","1","0","1567"
"4","4","encoding","encoding","163","WateringCan_PlasticDarkGreen.jpg","1","0","1753"
"4","4","encoding","encoding","164","Decoration_WallOrnament.jpg","1","0","1251"
"4","4","encoding","encoding","165","MannequinHead.jpg","0","0","3000"
"4","4","encoding","encoding","166","Sign_SpeedLimit30.jpg","1","0","1592"
"4","4","encoding","encoding","167","Jetski.jpg","1","0","1255"
"4","4","encoding","encoding","168","Kiwi.jpg","1","0","1016"
"4","4","encoding","encoding","169","Slide.jpg","1","0","880"
"4","4","encoding","encoding","170","Arch_Triomphe.jpg","1","0","1380"
"4","4","encoding","encoding","171","Binoculars.jpg","1","0","1036"
"4","4","encoding","encoding","172","Container_RedPlastic.jpg","1","0","874"
"4","4","encoding","encoding","173","DentalProbe.jpg","1","0","913"
"4","4","encoding","encoding","174","PenStand.jpg","1","0","1200"
"4","4","encoding","encoding","175","BasketballHoop.jpg","1","0","1377"
"4","4","encoding","encoding","176","Cheesegrater_Handheld.jpg","1","0","1233"
"4","4","encoding","encoding","177","Boat_Dinghy.jpg","1","0","2028"
"4","4","retrieval","old_objects","1","SoundMixer_White.jpg","37","0","1063"
"4","4","retrieval","new_objects","2","PuppetTheatre_WhiteGold.jpg","37","1","971"
"4","4","retrieval","old_objects","3","Table_Saw.jpg","37","0","1051"
"4","4","retrieval","new_objects","4","Chest.jpg","37","1","879"
"4","4","retrieval","old_objects","5","Stethoscope.jpg","36","1","731"
"4","4","retrieval","new_objects","6","Toy_DollHomeMade.jpg","37","1","692"
"4","4","retrieval","new_objects","7","BikiniTop.jpg","37","1","888"
"4","4","retrieval","new_objects","8","Necklace_Pearl.jpg","37","1","747"
"4","4","retrieval","new_objects","9","SpinalCord.jpg","37","1","891"
"4","4","retrieval","new_objects","10","PillBottle_Prescription.jpg","37","1","718"
"4","4","retrieval","old_objects","11","Cactus.jpg","36","1","681"
"4","4","retrieval","new_objects","12","Steamer.jpg","37","1","836"
"4","4","retrieval","new_objects","13","Triangle.jpg","37","1","617"
"4","4","retrieval","old_objects","14","Sign_SpeedLimit30.jpg","36","1","695"
"4","4","retrieval","old_objects","15","Truck_Army.jpg","36","1","682"
"4","4","retrieval","new_objects","16","Teabag.jpg","37","1","1061"
"4","4","retrieval","old_objects","17","Megaphone.jpg","36","1","1457"
"4","4","retrieval","new_objects","18","Hat_Colonial.jpg","37","1","1302"
"4","4","retrieval","new_objects","19","Sign_Airport.jpg","37","1","881"
"4","4","retrieval","old_objects","20","Earring_Hoop.jpg","36","1","733"
"4","4","retrieval","old_objects","21","Dropper.jpg","36","1","766"
"4","4","retrieval","new_objects","22","PhoneJack.jpg","37","1","894"
"4","4","retrieval","old_objects","23","HerbsInBag.jpg","36","1","1001"
"4","4","retrieval","new_objects","24","Ball_Baseball.jpg","37","1","768"
"4","4","retrieval","old_objects","25","Brace_Leg.jpg","36","1","1183"
"4","4","retrieval","old_objects","26","Bag_Gym.jpg","36","1","870"
"4","4","retrieval","old_objects","27","DentalProbe.jpg","36","1","819"
"4","4","retrieval","old_objects","28","Bowl_Lemons.jpg","36","1","1240"
"4","4","retrieval","new_objects","29","Keyhole.jpg","37","1","686"
"4","4","retrieval","old_objects","30","KeyHook_Occupied.jpg","37","0","1745"
"4","4","retrieval","old_objects","31","PaintSprayer.jpg","36","1","906"
"4","4","retrieval","old_objects","32","TortillaChip.jpg","36","1","749"
"4","4","retrieval","old_objects","33","CookieCutter_Tree.jpg","36","1","645"
"4","4","retrieval","new_objects","34","Watch.jpg","37","1","1042"
"4","4","retrieval","new_objects","35","Candy_GummyBear.jpg","37","1","647"
"4","4","retrieval","new_objects","36","Exercise_Stepper.jpg","37","1","699"
"4","4","retrieval","old_objects","37","TotemPole.jpg","36","1","790"
"4","4","retrieval","new_objects","38","MannequinBust.jpg","37","1","885"
"4","4","retrieval","new_objects","39","Comb.jpg","37","1","993"
"4","4","retrieval","new_objects","40","IceCrusher.jpg","37","1","712"
"4","4","retrieval","new_objects","41","Leaf_Yellow.jpg","37","1","954"
"4","4","retrieval","old_objects","42","Binoculars.jpg","36","1","987"
"4","4","retrieval","old_objects","43","MannequinHead.jpg","36","1","706"
"4","4","retrieval","new_objects","44","Accordion.jpg","37","1","940"
"4","4","retrieval","old_objects","45","Bread_Roll.jpg","36","1","859"
"4","4","retrieval","new_objects","46","Briefcase_Leather.jpg","37","1","970"
"4","4","retrieval","new_objects","47","Staircase_Curving.jpg","37","1","689"
"4","4","retrieval","old_objects","48","HardDrive.jpg","36","1","909"
"4","4","retrieval","old_objects","49","RAMchip.jpg","36","1","831"
"4","4","retrieval","new_objects","50","Can_Milk.jpg","37","1","644"
"4","4","retrieval","old_objects","51","Bleachers.jpg","36","1","866"
"4","4","retrieval","old_objects","52","SolderingWire.jpg","36","1","974"
"4","4","retrieval","new_objects","53","Mask_VenetianCat.jpg","37","1","693"
"4","4","retrieval","new_objects","54","Colander.jpg","37","1","1097"
"4","4","retrieval","new_objects","55","FileFolder.jpg","37","1","931"
"4","4","retrieval","new_objects","56","Scoop_Flour.jpg","37","1","805"
"4","4","retrieval","new_objects","57","Car_Totalled.jpg","37","1","875"
"4","4","retrieval","old_objects","58","PaintRoller.jpg","36","1","831"
"4","4","retrieval","old_objects","59","FortuneCookie.jpg","36","1","956"
"4","4","retrieval","new_objects","60","Bottle_Beer.jpg","37","1","749"
"4","4","retrieval","new_objects","62","CoffeeGrinder.jpg","37","1","1478"
"4","4","retrieval","new_objects","63","DustPan.jpg","37","1","850"
"4","4","retrieval","old_objects","64","Desk_Office.jpg","37","0","654"
"4","4","retrieval","old_objects","65","Jar_Canopic.jpg","36","1","771"
"4","4","retrieval","old_objects","66","Mitt_Oven.jpg","36","1","747"
"4","4","retrieval","new_objects","67","Tap.jpg","37","1","1251"
"4","4","retrieval","old_objects","68","Squid_Orange.jpg","36","1","1008"
"4","4","retrieval","new_objects","69","FlipFlop_SingleRed.jpg","37","1","638"
"4","4","retrieval","old_objects","70","OnionRed.jpg","36","1","707"
"4","4","retrieval","new_objects","71","Stone_AncientWriting.jpg","37","1","838"
"4","4","retrieval","old_objects","72","Star.jpg","36","1","755"
"4","4","retrieval","old_objects","73","Caribou.jpg","36","1","756"
"4","4","retrieval","new_objects","74","ToothbrushHolder.jpg","37","1","764"
"4","4","retrieval","old_objects","75","Thumbtack.jpg","36","1","708"
"4","4","retrieval","old_objects","76","Mask_Happy.jpg","36","1","695"
"4","4","retrieval","new_objects","77","Toy_ElephantPlastic.jpg","37","1","705"
"4","4","retrieval","new_objects","78","Toy_RaceTrack.jpg","37","1","844"
"4","4","retrieval","old_objects","79","DogLeash.jpg","36","1","793"
"4","4","retrieval","new_objects","80","Pen_Ballpoint.jpg","37","1","752"
"4","4","retrieval","old_objects","81","Egg_Cup.jpg","36","1","1185"
"4","4","retrieval","old_objects","82","HorseshoeCrab.jpg","36","1","752"
"4","4","retrieval","new_objects","83","Toy_Alien.jpg","37","1","745"
"4","4","retrieval","old_objects","84","BicycleWheelRusty.jpg","36","1","826"
"4","4","retrieval","old_objects","85","TeethModel.jpg","36","1","848"
"4","4","retrieval","new_objects","86","Garbage_Can.jpg","37","1","820"
"4","4","retrieval","old_objects","87","Toy_TrailerAirport.jpg","37","0","842"
"4","4","retrieval","old_objects","88","Lunchbox.jpg","36","1","847"
"4","4","retrieval","new_objects","89","Garbage_GreenBin.jpg","37","1","756"
"4","4","retrieval","old_objects","90","Dreidel.jpg","36","1","757"
"4","4","retrieval","new_objects","91","Candy_Heart.jpg","37","1","637"
"4","4","retrieval","old_objects","92","PaperCutter.jpg","36","1","802"
"4","4","retrieval","old_objects","93","Garlic_Clove.jpg","36","1","801"
"4","4","retrieval","new_objects","94","CarSeat.jpg","37","1","768"
"4","4","retrieval","new_objects","95","Kangaroo_WithJoey.jpg","37","1","911"
"4","4","retrieval","new_objects","96","Toy_WoodenPlainSingle.jpg","36","0","697"
"4","4","retrieval","new_objects","97","Hat_Party.jpg","37","1","700"
"4","4","retrieval","old_objects","98","Sashimi.jpg","36","1","910"
"4","4","retrieval","new_objects","99","Pickaxe.jpg","37","1","689"
"4","4","retrieval","new_objects","100","Toy_Shapesorter.jpg","37","1","1084"
"4","4","retrieval","new_objects","101","Gametable_AirHockey.jpg","37","1","687"
"4","4","retrieval","old_objects","102","Bed_QueenSize.jpg","36","1","811"
"4","4","retrieval","old_objects","103","Squash_Pumpkin.jpg","36","1","689"
"4","4","retrieval","old_objects","104","Piano_Keyboard.jpg","37","0","772"
"4","4","retrieval","new_objects","105","Almond.jpg","37","1","1092"
"4","4","retrieval","new_objects","106","Van.jpg","37","1","872"
"4","4","retrieval","new_objects","107","Tickets_PrintWords.jpg","37","1","771"
"4","4","retrieval","new_objects","108","Branch.jpg","37","1","731"
"4","4","retrieval","old_objects","109","Bed_Hospital.jpg","36","1","676"
"4","4","retrieval","old_objects","110","Scoop_IceCream.jpg","36","1","840"
"4","4","retrieval","new_objects","111","Toy_Moose.jpg","37","1","718"
"4","4","retrieval","new_objects","112","Card_QueenSpade.jpg","37","1","839"
"4","4","retrieval","old_objects","113","Butterfly.jpg","0","0","2000"
"4","4","retrieval","new_objects","114","Microwave.jpg","37","1","1179"
"4","4","retrieval","old_objects","115","Nuts_Pecan.jpg","36","1","1075"
"4","4","retrieval","new_objects","116","Colosseum.jpg","37","1","735"
"4","4","retrieval","old_objects","117","Bomb.jpg","36","1","800"
"4","4","retrieval","old_objects","118","Hammock.jpg","36","1","759"
"4","4","retrieval","old_objects","119","Light_Siren.jpg","37","0","943"
"4","4","retrieval","old_objects","120","Stove_Propane.jpg","36","1","824"
"4","4","retrieval","old_objects","121","IceCream_Chocolate.jpg","36","1","1030"
"4","4","retrieval","old_objects","123","Cake_Wedding.jpg","36","1","679"
"4","4","retrieval","new_objects","124","Shovel_Sandbox.jpg","37","1","842"
"4","4","retrieval","old_objects","125","JuicerCitrus.jpg","36","1","711"
"4","4","retrieval","new_objects","126","Bird_CanadianGoose.jpg","37","1","651"
"4","4","retrieval","old_objects","127","Hat_Cowboy.jpg","36","1","846"
"4","4","retrieval","old_objects","128","BasketballHoop.jpg","36","1","756"
"4","4","retrieval","new_objects","129","Pasta_Macaroni.jpg","37","1","732"
"4","4","retrieval","old_objects","130","ThreeHolePunch.jpg","37","0","813"
"4","4","retrieval","old_objects","131","PaintRollTray.jpg","36","1","1004"
"4","4","retrieval","new_objects","132","PaperTowel_Kitchen.jpg","37","1","707"
"4","4","retrieval","new_objects","133","Jug_Milk.jpg","37","1","781"
"4","4","retrieval","old_objects","134","Toy_GasPump.jpg","36","1","684"
"4","4","retrieval","old_objects","135","Clippers_Glass.jpg","36","1","720"
"4","4","retrieval","old_objects","136","ClothCoaster.jpg","37","0","1097"
"4","4","retrieval","old_objects","137","Table_Side.jpg","37","0","1180"
"4","4","retrieval","old_objects","138","BicycleChain.jpg","37","0","844"
"4","4","retrieval","old_objects","139","Toy_Ladybug.jpg","36","1","729"
"4","4","retrieval","old_objects","140","Cannister_GasVintage.jpg","37","0","931"
"4","4","retrieval","new_objects","141","Cup_Bathroom.jpg","37","1","780"
"4","4","retrieval","old_objects","142","Candy_Chocolate.jpg","36","1","836"
"4","4","retrieval","old_objects","143","Costume_Wizard.jpg","36","1","769"
"4","4","retrieval","new_objects","144","Camel_Bactrian.jpg","37","1","745"
"4","4","retrieval","new_objects","145","Seashell_BayScallop.jpg","37","1","1290"
"4","4","retrieval","new_objects","146","Bench_Wooden.jpg","37","1","973"
"4","4","retrieval","new_objects","147","Mask_Ski.jpg","37","1","845"
"4","4","retrieval","old_objects","148","Wardrobe.jpg","37","0","658"
"4","4","retrieval","old_objects","149","BicycleOdometer.jpg","36","1","879"
"4","4","retrieval","old_objects","150","BicycleBrake.jpg","37","0","715"
"4","4","retrieval","old_objects","151","Shorts_Plaid.jpg","37","0","836"
"4","4","retrieval","old_objects","152","Toy_DollOffice.jpg","36","1","658"
"4","4","retrieval","new_objects","153","Toolbox_RedOpen.jpg","37","1","686"
"4","4","retrieval","old_objects","154","Brace_Back.jpg","36","1","1097"
"4","4","retrieval","new_objects","155","PumiceStone.jpg","37","1","804"
"4","4","retrieval","old_objects","156","Toy_LambPlushie.jpg","36","1","715"
"4","4","retrieval","new_objects","157","HairScrunchie.jpg","37","1","652"
"4","4","retrieval","new_objects","158","Shoe_Sneaker.jpg","37","1","881"
"4","4","retrieval","new_objects","159","Cane_Wooden.jpg","37","1","860"
"4","4","retrieval","old_objects","160","Trophy.jpg","36","1","649"
"4","4","retrieval","new_objects","161","Stove_WithOven.jpg","37","1","933"
"4","4","retrieval","old_objects","162","Container_RedPlastic.jpg","37","0","687"
"4","4","retrieval","new_objects","163","Drum_Set.jpg","37","1","1186"
"4","4","retrieval","new_objects","164","Cow.jpg","37","1","801"
"4","4","retrieval","old_objects","165","Pineapple.jpg","36","1","751"
"4","4","retrieval","old_objects","166","Mousetrap.jpg","36","1","768"
"4","4","retrieval","old_objects","167","WaterWell.jpg","37","0","960"
"4","4","retrieval","new_objects","168","Envelope_Manila.jpg","37","1","873"
"4","4","retrieval","new_objects","169","Table_Poker.jpg","37","1","724"
"4","4","retrieval","new_objects","170","Gum_Pack.jpg","37","1","750"
"4","4","retrieval","new_objects","171","MemoPaperSpike.jpg","37","1","839"
"4","4","retrieval","new_objects","172","Coin.jpg","37","1","724"
"4","4","retrieval","old_objects","173","Toy_JackInTheBox.jpg","36","1","814"
"4","4","retrieval","new_objects","174","SatelliteDish.jpg","37","1","708"
"4","4","retrieval","new_objects","175","Hubcap.jpg","37","1","774"
"4","4","retrieval","new_objects","176","ScrewDriver.jpg","37","1","702"
"4","4","retrieval","old_objects","177","Jet.jpg","37","0","761"
"4","4","retrieval","new_objects","178","DrillBit.jpg","37","1","769"
"4","4","retrieval","old_objects","179","Fork_Fondue.jpg","37","0","601"
"4","4","retrieval","new_objects","180","Shirt_Tshirt.jpg","37","1","640"
"4","4","retrieval","old_objects","181","Chair_Rocking.jpg","36","1","717"
"4","4","retrieval","new_objects","182","BinRecycling.jpg","37","1","1599"
"4","4","retrieval","new_objects","184","Ball_Basketball.jpg","37","1","861"
"4","4","retrieval","old_objects","185","CarJack.jpg","36","1","761"
"4","4","retrieval","old_objects","186","KitchenTools.jpg","37","0","562"
"4","4","retrieval","old_objects","187","Drum_Bongos.jpg","36","1","827"
"4","4","retrieval","new_objects","188","PencilCase.jpg","37","1","744"
"4","4","retrieval","old_objects","189","FuzzyDice.jpg","37","0","546"
"4","4","retrieval","old_objects","190","WateringCan_PlasticDarkGreen.jpg","37","0","907"
"4","4","retrieval","new_objects","191","House_CeramicGingerbread.jpg","37","1","741"
"4","4","retrieval","new_objects","192","WaterFountain.jpg","37","1","831"
"4","4","retrieval","old_objects","193","Brush_Winter.jpg","36","1","628"
"4","4","retrieval","old_objects","194","Hippopotamus.jpg","36","1","650"
"4","4","retrieval","new_objects","195","Clam.jpg","37","1","775"
"4","4","retrieval","old_objects","196","Flower_Hibiscus.jpg","36","1","727"
"4","4","retrieval","new_objects","197","Napkin_Holder.jpg","37","1","817"
"4","4","retrieval","old_objects","198","Carabiner_Orange.jpg","36","1","823"
"4","4","retrieval","new_objects","199","Helmet_Knight.jpg","37","1","772"
"4","4","retrieval","old_objects","200","Pacifier.jpg","36","1","860"
"4","4","retrieval","new_objects","201","Box_Chocolate.jpg","37","1","1017"
"4","4","retrieval","old_objects","202","Kiwi.jpg","36","1","863"
"4","4","retrieval","new_objects","203","Speaker_Single.jpg","37","1","611"
"4","4","retrieval","old_objects","204","Hockey_Equipment.jpg","36","1","689"
"4","4","retrieval","new_objects","205","Candle_Blue.jpg","37","1","1084"
"4","4","retrieval","old_objects","206","Glass_Martini.jpg","37","0","672"
"4","4","retrieval","old_objects","207","Plunger.jpg","36","1","668"
"4","4","retrieval","new_objects","208","PictureFrame.jpg","37","1","727"
"4","4","retrieval","new_objects","209","Lens_Camera.jpg","37","1","825"
"4","4","retrieval","new_objects","210","Cabinet_Office.jpg","37","1","871"
"4","4","retrieval","new_objects","211","Box_JeweleryWooden.jpg","37","1","691"
"4","4","retrieval","old_objects","212","Statue_SouthAmerican.jpg","36","1","702"
"4","4","retrieval","new_objects","213","LeafBlower.jpg","37","1","753"
"4","4","retrieval","old_objects","214","Starfish.jpg","36","1","641"
"4","4","retrieval","new_objects","215","Loveseat.jpg","37","1","703"
"4","4","retrieval","new_objects","216","Chair_Barber.jpg","37","1","1065"
"4","4","retrieval","old_objects","217","Gazebo.jpg","36","1","749"
"4","4","retrieval","old_objects","218","BloodpPresureCuff.jpg","36","1","774"
"4","4","retrieval","old_objects","219","NintendoWii.jpg","36","1","790"
"4","4","retrieval","old_objects","220","Bottle_Oil.jpg","37","0","813"
"4","4","retrieval","old_objects","221","Toy_BlocksMultiShape.jpg","37","0","835"
"4","4","retrieval","new_objects","222","Brush_Makeup.jpg","37","1","905"
"4","4","retrieval","new_objects","223","Canister_Tea.jpg","37","1","1163"
"4","4","retrieval","new_objects","224","Glasses_Sun.jpg","37","1","819"
"4","4","retrieval","old_objects","225","Boat_Dinghy.jpg","36","1","873"
"4","4","retrieval","new_objects","226","ClothesDryingRack.jpg","37","1","965"
"4","4","retrieval","old_objects","227","Heater_Infrared.jpg","36","1","1109"
"4","4","retrieval","new_objects","228","Magnet_Three.jpg","37","1","719"
"4","4","retrieval","new_objects","229","Sign_Taxi.jpg","37","1","673"
"4","4","retrieval","new_objects","230","House_Wooden.jpg","37","1","1253"
"4","4","retrieval","old_objects","231","Keys_Bunch.jpg","36","1","729"
"4","4","retrieval","new_objects","232","Tickets_Blank.jpg","37","1","899"
"4","4","retrieval","old_objects","233","Statue_VirginMary.jpg","36","1","781"
"4","4","retrieval","new_objects","234","Clip_Binder.jpg","37","1","933"
"4","4","retrieval","old_objects","235","Box_Floral.jpg","37","0","822"
"4","4","retrieval","new_objects","236","Airplane_Small.jpg","37","1","748"
"4","4","retrieval","new_objects","237","FlipFlop_PairBlue.jpg","37","1","772"
"4","4","retrieval","new_objects","238","ServiceBell.jpg","37","1","708"
"4","4","retrieval","old_objects","239","WalkieTalkie_Yellow.jpg","37","0","983"
"4","4","retrieval","new_objects","240","MeasuringTape.jpg","37","1","878"
"4","4","retrieval","old_objects","241","GoldNugget.jpg","36","1","818"
"4","4","retrieval","old_objects","242","Camera_Security.jpg","36","1","720"
"4","4","retrieval","new_objects","243","FireExtinguisher.jpg","37","1","777"
"4","4","retrieval","new_objects","245","Chair_Airplane.jpg","37","1","1261"
"4","4","retrieval","old_objects","246","fries.jpg","36","1","762"
"4","4","retrieval","old_objects","247","WagonPilgrim.jpg","36","1","690"
"4","4","retrieval","new_objects","248","Flamingo_Real.jpg","37","1","782"
"4","4","retrieval","new_objects","249","Shovel_Garden.jpg","37","1","573"
"4","4","retrieval","new_objects","250","Mallet.jpg","37","1","597"
"4","4","retrieval","old_objects","251","Hedgehog.jpg","36","1","764"
"4","4","retrieval","new_objects","252","Whip.jpg","37","1","780"
"4","4","retrieval","old_objects","253","BicycleWheel.jpg","36","1","916"
"4","4","retrieval","new_objects","254","DogToy.jpg","37","1","646"
"4","4","retrieval","new_objects","255","Bag_Satchel.jpg","37","1","730"
"4","4","retrieval","new_objects","256","Truck_Tanker.jpg","37","1","779"
"4","4","retrieval","new_objects","257","Heater_ElectricPortable.jpg","37","1","947"
"4","4","retrieval","new_objects","258","Cologne.jpg","37","1","667"
"4","4","retrieval","new_objects","259","SpaceRover.jpg","37","1","823"
"4","4","retrieval","old_objects","260","Socks_Winter.jpg","36","1","789"
"4","4","retrieval","old_objects","261","Toy_BlocksWoodenPlain.jpg","36","1","1316"
"4","4","retrieval","old_objects","262","Vase_Decorative.jpg","37","0","726"
"4","4","retrieval","new_objects","263","Hook_Double.jpg","37","1","896"
"4","4","retrieval","new_objects","264","Piano_Upright.jpg","37","1","978"
"4","4","retrieval","old_objects","265","Bolt.jpg","36","1","722"
"4","4","retrieval","old_objects","266","ControlPanel.jpg","36","1","868"
"4","4","retrieval","new_objects","267","CoffeeLid.jpg","37","1","856"
"4","4","retrieval","old_objects","268","Abacus.jpg","36","1","829"
"4","4","retrieval","new_objects","269","Table_Magazine.jpg","37","1","770"
"4","4","retrieval","old_objects","270","EnglishMuffin.jpg","36","1","706"
"4","4","retrieval","old_objects","271","Slide.jpg","36","1","972"
"4","4","retrieval","old_objects","272","SoapBottle.jpg","37","0","1476"
"4","4","retrieval","old_objects","273","Stick_Stirring.jpg","36","1","800"
"4","4","retrieval","new_objects","274","Gun_Bazooka.jpg","37","1","799"
"4","4","retrieval","old_objects","275","Eraser.jpg","36","1","869"
"4","4","retrieval","old_objects","276","Jetski.jpg","36","1","937"
"4","4","retrieval","old_objects","277","Monitor.jpg","36","1","682"
"4","4","retrieval","old_objects","278","Stove_Camping.jpg","37","0","677"
"4","4","retrieval","new_objects","279","Gorilla.jpg","37","1","1185"
"4","4","retrieval","old_objects","280","Teardrop.jpg","36","1","913"
"4","4","retrieval","new_objects","281","Ruler_Metal.jpg","37","1","1098"
"4","4","retrieval","old_objects","282","WatermelonSlice.jpg","36","1","765"
"4","4","retrieval","new_objects","283","Lipstick.jpg","37","1","733"
"4","4","retrieval","new_objects","284","Pig.jpg","37","1","790"
"4","4","retrieval","new_objects","285","Leg.jpg","37","1","725"
"4","4","retrieval","old_objects","286","Leaf_Green.jpg","37","0","847"
"4","4","retrieval","new_objects","287","Lock_Combination.jpg","37","1","988"
"4","4","retrieval","new_objects","288","Mixer_Hand.jpg","37","1","755"
"4","4","retrieval","new_objects","289","Bowl_Fruits.jpg","37","1","868"
"4","4","retrieval","old_objects","290","Door_Green.jpg","36","1","687"
"4","4","retrieval","new_objects","291","Skirt_Stripes.jpg","37","1","907"
"4","4","retrieval","new_objects","292","Tractor_Orange.jpg","37","1","941"
"4","4","retrieval","new_objects","293","Cheesegrater_Box.jpg","37","1","662"
"4","4","retrieval","old_objects","294","AlcoholBar.jpg","36","1","811"
"4","4","retrieval","old_objects","295","TestTube_MultipleAndRack.jpg","36","1","690"
"4","4","retrieval","new_objects","296","Jar_Empty.jpg","37","1","685"
"4","4","retrieval","new_objects","297","Staples.jpg","37","1","648"
"4","4","retrieval","old_objects","298","Sign_NoParking.jpg","36","1","709"
"4","4","retrieval","new_objects","299","Tree_ChristmasMini.jpg","37","1","678"
"4","4","retrieval","new_objects","300","Box_WoodenOpen.jpg","37","1","730"
"4","4","retrieval","old_objects","301","Bird_Hen.jpg","36","1","780"
"4","4","retrieval","old_objects","302","Castle_Model.jpg","36","1","652"
"4","4","retrieval","new_objects","303","DJMixer.jpg","37","1","1233"
"4","4","retrieval","new_objects","304","Stove_Portable.jpg","37","1","1158"
"4","4","retrieval","old_objects","306","Fireplace_Outdoor.jpg","37","0","1100"
"4","4","retrieval","old_objects","307","Chicken_Raw.jpg","36","1","711"
"4","4","retrieval","new_objects","308","Knife_Camping.jpg","37","1","673"
"4","4","retrieval","old_objects","309","Switch_LightBlack.jpg","36","1","789"
"4","4","retrieval","old_objects","310","Shoes_Mould.jpg","36","1","1044"
"4","4","retrieval","new_objects","311","Candelabra.jpg","37","1","937"
"4","4","retrieval","new_objects","312","StickyTack.jpg","37","1","794"
"4","4","retrieval","new_objects","313","Hook_Fishing.jpg","36","0","770"
"4","4","retrieval","old_objects","314","Acorn.jpg","36","1","857"
"4","4","retrieval","old_objects","315","Snowpea.jpg","36","1","765"
"4","4","retrieval","new_objects","316","Book_Leather.jpg","37","1","710"
"4","4","retrieval","new_objects","317","SmokeDetector.jpg","37","1","944"
"4","4","retrieval","old_objects","318","Arch_Triomphe.jpg","37","0","834"
"4","4","retrieval","new_objects","319","Seashell_RoseMurex.jpg","37","1","1047"
"4","4","retrieval","new_objects","320","Box_Package.jpg","37","1","803"
"4","4","retrieval","old_objects","321","Decoration_WallOrnament.jpg","37","0","914"
"4","4","retrieval","old_objects","322","Sign_Open.jpg","36","1","1253"
"4","4","retrieval","new_objects","323","Snorkle.jpg","37","1","769"
"4","4","retrieval","old_objects","324","Pouch_Red.jpg","37","0","793"
"4","4","retrieval","old_objects","325","Telescope.jpg","36","1","800"
"4","4","retrieval","old_objects","326","GuineaPig.jpg","36","1","663"
"4","4","retrieval","old_objects","327","PuppetTheatre_BlueRed.jpg","36","1","731"
"4","4","retrieval","old_objects","328","WashingMachine.jpg","37","0","581"
"4","4","retrieval","old_objects","329","PenStand.jpg","36","1","924"
"4","4","retrieval","new_objects","330","Toy_BearBluePlushie.jpg","37","1","718"
"4","4","retrieval","old_objects","331","ChiliFlakes.jpg","36","1","800"
"4","4","retrieval","new_objects","332","Sock_Ankle.jpg","37","1","783"
"4","4","retrieval","old_objects","333","HDMIConnector.jpg","36","1","718"
"4","4","retrieval","old_objects","334","Boat_Sail.jpg","37","0","976"
"4","4","retrieval","old_objects","335","Hat_Police.jpg","37","0","832"
"4","4","retrieval","new_objects","336","SaladCaesar.jpg","37","1","901"
"4","4","retrieval","old_objects","337","House_Rural.jpg","36","1","800"
"4","4","retrieval","new_objects","338","SofaAntique.jpg","37","1","734"
"4","4","retrieval","new_objects","339","Clock_Wall.jpg","37","1","1671"
"4","4","retrieval","old_objects","340","CraneMachine.jpg","36","1","851"
"4","4","retrieval","new_objects","341","Cord_Ethernet.jpg","37","1","926"
"4","4","retrieval","new_objects","342","Mat_Door.jpg","37","1","954"
"4","4","retrieval","new_objects","343","Milkshake_Chocolate.jpg","37","1","978"
"4","4","retrieval","old_objects","344","Cheesegrater_Handheld.jpg","36","1","986"
"4","4","retrieval","old_objects","345","Ginger.jpg","36","1","785"
"4","4","retrieval","old_objects","346","PenHolder.jpg","37","0","881"
"4","4","retrieval","old_objects","347","Shirt_SportsJersey.jpg","36","1","1180"
"4","4","retrieval","new_objects","348","Spider.jpg","37","1","1252"
"4","4","retrieval","old_objects","349","Goat.jpg","36","1","1616"
"4","4","retrieval","new_objects","350","Flower_Tulip.jpg","37","1","766"
"4","4","retrieval","new_objects","351","Armchair.jpg","37","1","942"
"4","4","retrieval","old_objects","352","Hat_Baseball.jpg","36","1","1087"
"4","4","retrieval","new_objects","353","HandMixer.jpg","37","1","1122"
"4","4","retrieval","old_objects","354","ElectricOutlet.jpg","36","1","756"
"4","4","retrieval","new_objects","355","Cable_JumpStart.jpg","37","1","925"
"4","4","demographics_block","gender","1","Cable_JumpStart.jpg","male","1","15530"
"4","4","demographics_block","age","1","Cable_JumpStart.jpg","40","1","15530"
"4","4","demographics_block","education","1","Cable_JumpStart.jpg","14","1","15530"
"4","4","demographics_block","left_right_handed","2","Cable_JumpStart.jpg","Left","1","12139"
"4","4","demographics_block","raceoption1","2","Cable_JumpStart.jpg","0","1","12139"
"4","4","demographics_block","raceoption2","2","Cable_JumpStart.jpg","1","1","12139"
"4","4","demographics_block","raceoption3","2","Cable_JumpStart.jpg","","1","12139"
"4","4","demographics_block","raceoption4","2","Cable_JumpStart.jpg","","1","12139"
"4","4","demographics_block","raceoption5","2","Cable_JumpStart.jpg","","1","12139"
"4","4","demographics_block","raceoption6","2","Cable_JumpStart.jpg","","1","12139"
"4","4","demographics_block","raceoption7","2","Cable_JumpStart.jpg","","1","12139"
"4","4","demographics_block","raceoption8","2","Cable_JumpStart.jpg","","1","12139"
"4","4","demographics_block","raceoption9","2","Cable_JumpStart.jpg","","1","12139"
"4","4","demographics_block","raceother","2","Cable_JumpStart.jpg","","1","12139"
"4","4","demographics_block","raceother","2","Cable_JumpStart.jpg","","1","12139"
"4","4","demographics_block","english_language","2","Cable_JumpStart.jpg","Yes","1","12139"
"4","4","demographics_block","english_languageother","2","Cable_JumpStart.jpg","","1","12139"
"4","4","demographics_block","eyesight","3","Cable_JumpStart.jpg","Yes","1","7715"
"4","4","demographics_block","colorblind","3","Cable_JumpStart.jpg","No","1","7715"
"4","4","worker_id_block","worker_id_textbox","1","Cable_JumpStart.jpg","A2RCJ30AFLCI54","1","25723"
"5","5","encoding","encoding","1","Nuts_Pecan.jpg","0","0","3000"
"5","5","encoding","encoding","2","Bomb.jpg","0","0","3000"
"5","5","encoding","encoding","3","Hedgehog.jpg","1","0","2482"
"5","5","encoding","encoding","4","Scoop_IceCream.jpg","1","0","955"
"5","5","encoding","encoding","5","Stick_Stirring.jpg","0","0","3000"
"5","5","encoding","encoding","6","GoldNugget.jpg","0","0","3000"
"5","5","encoding","encoding","7","ChiliFlakes.jpg","1","0","1791"
"5","5","encoding","encoding","8","Megaphone.jpg","1","0","2152"
"5","5","encoding","encoding","9","Toy_BlocksMultiShape.jpg","2","0","1758"
"5","5","encoding","encoding","10","Dropper.jpg","2","0","1175"
"5","5","encoding","encoding","11","RAMchip.jpg","1","0","2146"
"5","5","encoding","encoding","12","Mask_Happy.jpg","0","0","3000"
"5","5","encoding","encoding","13","HDMIConnector.jpg","0","0","3000"
"5","5","encoding","encoding","14","TestTube_MultipleAndRack.jpg","0","0","3000"
"5","5","encoding","encoding","15","Dreidel.jpg","0","0","3000"
"5","5","encoding","encoding","16","Stove_Propane.jpg","0","0","3000"
"5","5","encoding","encoding","17","Castle_Model.jpg","0","0","3000"
"5","5","encoding","encoding","18","ControlPanel.jpg","0","0","3000"
"5","5","encoding","encoding","19","Hat_Police.jpg","0","0","3000"
"5","5","encoding","encoding","20","Vase_Decorative.jpg","0","0","3000"
"5","5","encoding","encoding","21","PenHolder.jpg","0","0","3000"
"5","5","encoding","encoding","22","Butterfly.jpg","0","0","3000"
"5","5","encoding","encoding","23","Hat_Baseball.jpg","0","0","3000"
"5","5","encoding","encoding","24","House_Rural.jpg","0","0","3000"
"5","5","encoding","encoding","25","SolderingWire.jpg","0","0","3000"
"5","5","encoding","encoding","26","Toy_JackInTheBox.jpg","0","0","3000"
"5","5","encoding","encoding","27","PaintRollTray.jpg","0","0","3000"
"5","5","encoding","encoding","28","Squash_Pumpkin.jpg","0","0","3000"
"5","5","encoding","encoding","29","Brush_Winter.jpg","0","0","3000"
"5","5","encoding","encoding","30","Lunchbox.jpg","0","0","3000"
"5","5","encoding","encoding","31","Kiwi.jpg","0","0","3000"
"5","5","encoding","encoding","32","Light_Siren.jpg","0","0","3000"
"5","5","encoding","encoding","33","Stethoscope.jpg","0","0","3000"
"5","5","encoding","encoding","34","Hockey_Equipment.jpg","0","0","3000"
"5","5","encoding","encoding","35","MannequinHead.jpg","0","0","3000"
"5","5","encoding","encoding","36","Mousetrap.jpg","0","0","3000"
"5","5","encoding","encoding","37","Glass_Martini.jpg","0","0","3000"
"5","5","encoding","encoding","38","Ginger.jpg","0","0","3000"
"5","5","encoding","encoding","39","FuzzyDice.jpg","0","0","3000"
"5","5","encoding","encoding","40","Brace_Back.jpg","0","0","3000"
"5","5","encoding","encoding","41","fries.jpg","0","0","3000"
"5","5","encoding","encoding","42","CarJack.jpg","0","0","3000"
"5","5","encoding","encoding","43","Camera_Security.jpg","0","0","3000"
"5","5","encoding","encoding","44","PaintSprayer.jpg","0","0","3000"
"5","5","encoding","encoding","45","PenStand.jpg","0","0","3000"
"5","5","encoding","encoding","46","Star.jpg","0","0","3000"
"5","5","encoding","encoding","47","Eraser.jpg","0","0","3000"
"5","5","encoding","encoding","48","Truck_Army.jpg","0","0","3000"
"5","5","encoding","encoding","49","Toy_LambPlushie.jpg","0","0","3000"
"5","5","encoding","encoding","50","Shorts_Plaid.jpg","0","0","3000"
"5","5","encoding","encoding","51","WateringCan_PlasticDarkGreen.jpg","0","0","3000"
"5","5","encoding","encoding","52","TotemPole.jpg","0","0","3000"
"5","5","encoding","encoding","53","FortuneCookie.jpg","0","0","3000"
"5","5","encoding","encoding","54","WashingMachine.jpg","0","0","3000"
"5","5","encoding","encoding","55","Bed_Hospital.jpg","0","0","3000"
"5","5","encoding","encoding","56","Cannister_GasVintage.jpg","0","0","3000"
"5","5","encoding","encoding","57","Toy_TrailerAirport.jpg","0","0","3000"
"5","5","encoding","encoding","58","Jet.jpg","0","0","3000"
"5","5","encoding","encoding","59","Box_Floral.jpg","0","0","3000"
"5","5","encoding","encoding","60","Binoculars.jpg","0","0","3000"
"5","5","encoding","encoding","62","Egg_Cup.jpg","0","0","3000"
"5","5","encoding","encoding","63","PaintRoller.jpg","0","0","3000"
"5","5","encoding","encoding","64","CookieCutter_Tree.jpg","0","0","3000"
"5","5","encoding","encoding","65","Chair_Rocking.jpg","0","0","3000"
"5","5","encoding","encoding","66","IceCream_Chocolate.jpg","0","0","3000"
"5","5","encoding","encoding","67","Bread_Roll.jpg","0","0","3000"
"5","5","encoding","encoding","68","WagonPilgrim.jpg","0","0","3000"
"5","5","encoding","encoding","69","Goat.jpg","0","0","3000"
"5","5","encoding","encoding","70","Slide.jpg","0","0","3000"
"5","5","encoding","encoding","71","BicycleWheelRusty.jpg","0","0","3000"
"5","5","encoding","encoding","72","KitchenTools.jpg","0","0","3000"
"5","5","encoding","encoding","73","HardDrive.jpg","0","0","3000"
"5","5","encoding","encoding","74","BicycleChain.jpg","0","0","3000"
"5","5","encoding","encoding","75","Earring_Hoop.jpg","0","0","3000"
"5","5","encoding","encoding","76","Teardrop.jpg","0","0","3000"
"5","5","encoding","encoding","77","Candy_Chocolate.jpg","0","0","3000"
"5","5","encoding","encoding","78","Pouch_Red.jpg","0","0","3000"
"5","5","encoding","encoding","79","BicycleWheel.jpg","0","0","3000"
"5","5","encoding","encoding","80","HorseshoeCrab.jpg","0","0","3000"
"5","5","encoding","encoding","81","Caribou.jpg","0","0","3000"
"5","5","encoding","encoding","82","Sign_SpeedLimit30.jpg","0","0","3000"
"5","5","encoding","encoding","83","Thumbtack.jpg","0","0","3000"
"5","5","encoding","encoding","84","Switch_LightBlack.jpg","0","0","3000"
"5","5","encoding","encoding","85","JuicerCitrus.jpg","0","0","3000"
"5","5","encoding","encoding","86","Fork_Fondue.jpg","0","0","3000"
"5","5","encoding","encoding","87","Garlic_Clove.jpg","0","0","3000"
"5","5","encoding","encoding","88","Gazebo.jpg","0","0","3000"
"5","5","encoding","encoding","89","Sign_Open.jpg","0","0","3000"
"5","5","encoding","encoding","90","Fireplace_Outdoor.jpg","0","0","3000"
"5","5","encoding","encoding","91","Bed_QueenSize.jpg","0","0","3000"
"5","5","encoding","encoding","92","Toy_GasPump.jpg","0","0","3000"
"5","5","encoding","encoding","93","Cactus.jpg","0","0","3000"
"5","5","encoding","encoding","94","NintendoWii.jpg","0","0","3000"
"5","5","encoding","encoding","95","Cake_Wedding.jpg","0","0","3000"
"5","5","encoding","encoding","96","Stove_Camping.jpg","0","0","3000"
"5","5","encoding","encoding","97","Bottle_Oil.jpg","0","0","3000"
"5","5","encoding","encoding","98","Desk_Office.jpg","0","0","3000"
"5","5","encoding","encoding","99","BicycleOdometer.jpg","0","0","3000"
"5","5","encoding","encoding","100","Boat_Dinghy.jpg","0","0","3000"
"5","5","encoding","encoding","101","Keys_Bunch.jpg","0","0","3000"
"5","5","encoding","encoding","102","Arch_Triomphe.jpg","0","0","3000"
"5","5","encoding","encoding","103","Pineapple.jpg","0","0","3000"
"5","5","encoding","encoding","104","Abacus.jpg","0","0","3000"
"5","5","encoding","encoding","105","Socks_Winter.jpg","0","0","3000"
"5","5","encoding","encoding","106","Sashimi.jpg","0","0","3000"
"5","5","encoding","encoding","107","BloodpPresureCuff.jpg","0","0","3000"
"5","5","encoding","encoding","108","ElectricOutlet.jpg","0","0","3000"
"5","5","encoding","encoding","109","Shirt_SportsJersey.jpg","0","0","3000"
"5","5","encoding","encoding","110","PaperCutter.jpg","0","0","3000"
"5","5","encoding","encoding","111","Bird_Hen.jpg","0","0","3000"
"5","5","encoding","encoding","112","DentalProbe.jpg","0","0","3000"
"5","5","encoding","encoding","113","Chicken_Raw.jpg","0","0","3000"
"5","5","encoding","encoding","114","DogLeash.jpg","0","0","3000"
"5","5","encoding","encoding","115","Cheesegrater_Handheld.jpg","0","0","3000"
"5","5","encoding","encoding","116","TeethModel.jpg","0","0","3000"
"5","5","encoding","encoding","117","Telescope.jpg","0","0","3000"
"5","5","encoding","encoding","118","Costume_Wizard.jpg","0","0","3000"
"5","5","encoding","encoding","119","WatermelonSlice.jpg","0","0","3000"
"5","5","encoding","encoding","120","WalkieTalkie_Yellow.jpg","0","0","3000"
"5","5","encoding","encoding","121","Hammock.jpg","0","0","3000"
"5","5","encoding","encoding","123","Statue_VirginMary.jpg","0","0","3000"
"5","5","encoding","encoding","124","Boat_Sail.jpg","0","0","3000"
"5","5","encoding","encoding","125","SoundMixer_White.jpg","0","0","3000"
"5","5","encoding","encoding","126","SoapBottle.jpg","0","0","3000"
"5","5","encoding","encoding","127","Leaf_Green.jpg","0","0","3000"
"5","5","encoding","encoding","128","AlcoholBar.jpg","0","0","3000"
"5","5","encoding","encoding","129","BicycleBrake.jpg","0","0","3000"
"5","5","encoding","encoding","130","WaterWell.jpg","0","0","3000"
"5","5","encoding","encoding","131","Heater_Infrared.jpg","0","0","3000"
"5","5","encoding","encoding","132","Trophy.jpg","0","0","3000"
"5","5","encoding","encoding","133","Jar_Canopic.jpg","0","0","3000"
"5","5","encoding","encoding","134","Piano_Keyboard.jpg","0","0","3000"
"5","5","encoding","encoding","135","Toy_BlocksWoodenPlain.jpg","0","0","3000"
"5","5","encoding","encoding","136","Snowpea.jpg","0","0","3000"
"5","5","encoding","encoding","137","Bleachers.jpg","0","0","3000"
"5","5","encoding","encoding","138","Drum_Bongos.jpg","0","0","3000"
"5","5","encoding","encoding","139","Jetski.jpg","0","0","3000"
"5","5","encoding","encoding","140","Mitt_Oven.jpg","0","0","3000"
"5","5","encoding","encoding","141","Bowl_Lemons.jpg","0","0","3000"
"5","5","encoding","encoding","142","HerbsInBag.jpg","0","0","3000"
"5","5","encoding","encoding","143","GuineaPig.jpg","0","0","3000"
"5","5","encoding","encoding","144","Decoration_WallOrnament.jpg","0","0","3000"
"5","5","encoding","encoding","145","Hat_Cowboy.jpg","0","0","3000"
"5","5","encoding","encoding","146","BasketballHoop.jpg","0","0","3000"
"5","5","encoding","encoding","147","Squid_Orange.jpg","0","0","3000"
"5","5","encoding","encoding","148","KeyHook_Occupied.jpg","0","0","3000"
"5","5","encoding","encoding","149","Monitor.jpg","0","0","3000"
"5","5","encoding","encoding","150","PuppetTheatre_BlueRed.jpg","0","0","3000"
"5","5","encoding","encoding","151","ClothCoaster.jpg","0","0","3000"
"5","5","encoding","encoding","152","Carabiner_Orange.jpg","0","0","3000"
"5","5","encoding","encoding","153","Bag_Gym.jpg","0","0","3000"
"5","5","encoding","encoding","154","Flower_Hibiscus.jpg","0","0","3000"
"5","5","encoding","encoding","155","Plunger.jpg","0","0","3000"
"5","5","encoding","encoding","156","Clippers_Glass.jpg","0","0","3000"
"5","5","encoding","encoding","157","Container_RedPlastic.jpg","0","0","3000"
"5","5","encoding","encoding","158","Wardrobe.jpg","0","0","3000"
"5","5","encoding","encoding","159","Table_Saw.jpg","0","0","3000"
"5","5","encoding","encoding","160","Shoes_Mould.jpg","0","0","3000"
"5","5","encoding","encoding","161","Acorn.jpg","0","0","3000"
"5","5","encoding","encoding","162","Bolt.jpg","0","0","3000"
"5","5","encoding","encoding","163","Toy_Ladybug.jpg","0","0","3000"
"5","5","encoding","encoding","164","Toy_DollOffice.jpg","0","0","3000"
"5","5","encoding","encoding","165","EnglishMuffin.jpg","0","0","3000"
"5","5","encoding","encoding","166","OnionRed.jpg","0","0","3000"
"5","5","encoding","encoding","167","Sign_NoParking.jpg","0","0","3000"
"5","5","encoding","encoding","168","TortillaChip.jpg","0","0","3000"
"5","5","encoding","encoding","169","ThreeHolePunch.jpg","0","0","3000"
"5","5","encoding","encoding","170","Statue_SouthAmerican.jpg","0","0","3000"
"5","5","encoding","encoding","171","Pacifier.jpg","0","0","3000"
"5","5","encoding","encoding","172","Brace_Leg.jpg","0","0","3000"
"5","5","encoding","encoding","173","CraneMachine.jpg","0","0","3000"
"5","5","encoding","encoding","174","Door_Green.jpg","0","0","3000"
"5","5","encoding","encoding","175","Table_Side.jpg","0","0","3000"
"5","5","encoding","encoding","176","Starfish.jpg","0","0","3000"
"5","5","encoding","encoding","177","Hippopotamus.jpg","0","0","3000"
"5","5","retrieval","new_objects","1","DJMixer.jpg","36","0","655"
"5","5","retrieval","new_objects","2","Lipstick.jpg","37","1","788"
"5","5","retrieval","new_objects","3","Milkshake_Chocolate.jpg","37","1","762"
"5","5","retrieval","new_objects","4","Heater_ElectricPortable.jpg","37","1","986"
"5","5","retrieval","new_objects","5","Branch.jpg","37","1","760"
"5","5","retrieval","new_objects","6","BinRecycling.jpg","36","0","671"
"5","5","retrieval","new_objects","7","Hat_Colonial.jpg","36","0","835"
"5","5","retrieval","new_objects","8","PhoneJack.jpg","0","0","2000"
"5","5","retrieval","new_objects","9","Shoe_Sneaker.jpg","37","1","1086"
"5","5","retrieval","new_objects","10","Helmet_Knight.jpg","37","1","848"
"5","5","retrieval","old_objects","11","Toy_GasPump.jpg","36","1","869"
"5","5","retrieval","old_objects","12","Boat_Dinghy.jpg","36","1","928"
"5","5","retrieval","old_objects","13","AlcoholBar.jpg","36","1","682"
"5","5","retrieval","new_objects","14","Sign_Taxi.jpg","37","1","564"
"5","5","retrieval","old_objects","15","Leaf_Green.jpg","37","0","868"
"5","5","retrieval","new_objects","16","Ball_Basketball.jpg","37","1","696"
"5","5","retrieval","old_objects","17","Door_Green.jpg","36","1","610"
"5","5","retrieval","old_objects","18","Bomb.jpg","36","1","648"
"5","5","retrieval","old_objects","19","Eraser.jpg","36","1","605"
"5","5","retrieval","old_objects","20","CarJack.jpg","36","1","820"
"5","5","retrieval","old_objects","21","Wardrobe.jpg","36","1","834"
"5","5","retrieval","new_objects","22","Bottle_Beer.jpg","37","1","606"
"5","5","retrieval","new_objects","23","Toy_Shapesorter.jpg","37","1","628"
"5","5","retrieval","old_objects","24","Toy_BlocksMultiShape.jpg","36","1","738"
"5","5","retrieval","old_objects","25","SolderingWire.jpg","36","1","707"
"5","5","retrieval","new_objects","26","Cologne.jpg","37","1","621"
"5","5","retrieval","old_objects","27","BicycleOdometer.jpg","36","1","682"
"5","5","retrieval","new_objects","28","Toy_ElephantPlastic.jpg","37","1","837"
"5","5","retrieval","old_objects","29","Heater_Infrared.jpg","37","0","1539"
"5","5","retrieval","old_objects","30","Switch_LightBlack.jpg","37","0","867"
"5","5","retrieval","new_objects","31","SofaAntique.jpg","37","1","846"
"5","5","retrieval","old_objects","32","Plunger.jpg","36","1","803"
"5","5","retrieval","new_objects","33","Can_Milk.jpg","37","1","833"
"5","5","retrieval","new_objects","34","Exercise_Stepper.jpg","37","1","1102"
"5","5","retrieval","old_objects","35","Egg_Cup.jpg","37","0","737"
"5","5","retrieval","old_objects","36","Bread_Roll.jpg","36","1","825"
"5","5","retrieval","new_objects","37","Drum_Set.jpg","37","1","934"
"5","5","retrieval","old_objects","38","DentalProbe.jpg","36","1","664"
"5","5","retrieval","new_objects","39","PillBottle_Prescription.jpg","36","0","666"
"5","5","retrieval","old_objects","40","NintendoWii.jpg","36","1","798"
"5","5","retrieval","new_objects","41","Sign_Airport.jpg","36","0","924"
"5","5","retrieval","old_objects","42","Binoculars.jpg","37","0","614"
"5","5","retrieval","old_objects","43","Cake_Wedding.jpg","37","0","580"
"5","5","retrieval","old_objects","44","Box_Floral.jpg","37","0","787"
"5","5","retrieval","new_objects","45","CoffeeLid.jpg","37","1","882"
"5","5","retrieval","new_objects","46","Necklace_Pearl.jpg","37","1","612"
"5","5","retrieval","new_objects","47","Ball_Baseball.jpg","37","1","890"
"5","5","retrieval","new_objects","48","Toy_WoodenPlainSingle.jpg","36","0","701"
"5","5","retrieval","old_objects","49","Bed_Hospital.jpg","36","1","912"
"5","5","retrieval","old_objects","50","Chair_Rocking.jpg","36","1","594"
"5","5","retrieval","old_objects","51","Thumbtack.jpg","37","0","753"
"5","5","retrieval","new_objects","52","PuppetTheatre_WhiteGold.jpg","36","0","944"
"5","5","retrieval","new_objects","53","Leg.jpg","37","1","1032"
"5","5","retrieval","old_objects","54","Hammock.jpg","36","1","741"
"5","5","retrieval","old_objects","55","Gazebo.jpg","36","1","694"
"5","5","retrieval","old_objects","56","CookieCutter_Tree.jpg","37","0","1329"
"5","5","retrieval","old_objects","57","WaterWell.jpg","36","1","746"
"5","5","retrieval","old_objects","58","Chicken_Raw.jpg","36","1","1020"
"5","5","retrieval","old_objects","59","HerbsInBag.jpg","36","1","808"
"5","5","retrieval","new_objects","60","Spider.jpg","37","1","630"
"5","5","retrieval","new_objects","62","Hubcap.jpg","36","0","759"
"5","5","retrieval","old_objects","63","Castle_Model.jpg","36","1","791"
"5","5","retrieval","new_objects","64","PencilCase.jpg","37","1","853"
"5","5","retrieval","old_objects","65","TeethModel.jpg","36","1","810"
"5","5","retrieval","old_objects","66","Lunchbox.jpg","36","1","832"
"5","5","retrieval","old_objects","67","PaintRollTray.jpg","37","0","693"
"5","5","retrieval","new_objects","68","Mat_Door.jpg","37","1","1008"
"5","5","retrieval","new_objects","69","Magnet_Three.jpg","37","1","654"
"5","5","retrieval","old_objects","70","Shoes_Mould.jpg","36","1","730"
"5","5","retrieval","new_objects","71","Microwave.jpg","37","1","627"
"5","5","retrieval","new_objects","72","Cane_Wooden.jpg","37","1","865"
"5","5","retrieval","old_objects","73","Dreidel.jpg","37","0","1005"
"5","5","retrieval","old_objects","74","Sign_SpeedLimit30.jpg","37","0","898"
"5","5","retrieval","new_objects","75","Tree_ChristmasMini.jpg","37","1","629"
"5","5","retrieval","old_objects","76","Light_Siren.jpg","0","0","2000"
"5","5","retrieval","old_objects","77","Slide.jpg","36","1","649"
"5","5","retrieval","new_objects","78","Lens_Camera.jpg","37","1","709"
"5","5","retrieval","new_objects","79","Sock_Ankle.jpg","37","1","694"
"5","5","retrieval","old_objects","80","fries.jpg","36","1","1816"
"5","5","retrieval","old_objects","81","Hat_Cowboy.jpg","36","1","783"
"5","5","retrieval","new_objects","82","Staples.jpg","37","1","789"
"5","5","retrieval","new_objects","83","Van.jpg","0","0","2000"
"5","5","retrieval","old_objects","84","Toy_JackInTheBox.jpg","36","1","659"
"5","5","retrieval","new_objects","85","Accordion.jpg","37","1","983"
"5","5","retrieval","new_objects","86","Seashell_RoseMurex.jpg","36","0","989"
"5","5","retrieval","old_objects","87","Jar_Canopic.jpg","36","1","1004"
"5","5","retrieval","old_objects","88","Pacifier.jpg","36","1","651"
"5","5","retrieval","old_objects","89","Socks_Winter.jpg","36","1","711"
"5","5","retrieval","old_objects","90","Truck_Army.jpg","36","1","873"
"5","5","retrieval","old_objects","91","Dropper.jpg","37","0","1349"
"5","5","retrieval","new_objects","92","Gametable_AirHockey.jpg","37","1","1133"
"5","5","retrieval","old_objects","93","Teardrop.jpg","36","1","950"
"5","5","retrieval","old_objects","94","Vase_Decorative.jpg","36","1","735"
"5","5","retrieval","new_objects","95","FlipFlop_PairBlue.jpg","37","1","671"
"5","5","retrieval","old_objects","96","Scoop_IceCream.jpg","37","0","770"
"5","5","retrieval","old_objects","97","Bag_Gym.jpg","36","1","770"
"5","5","retrieval","new_objects","98","ScrewDriver.jpg","37","1","714"
"5","5","retrieval","old_objects","99","Camera_Security.jpg","36","1","836"
"5","5","retrieval","old_objects","100","Stick_Stirring.jpg","36","1","1793"
"5","5","retrieval","old_objects","101","Cactus.jpg","37","0","791"
"5","5","retrieval","old_objects","102","Mousetrap.jpg","37","0","758"
"5","5","retrieval","new_objects","103","Toy_Alien.jpg","37","1","854"
"5","5","retrieval","new_objects","104","Stove_WithOven.jpg","37","1","698"
"5","5","retrieval","new_objects","105","ServiceBell.jpg","37","1","756"
"5","5","retrieval","old_objects","106","Garlic_Clove.jpg","36","1","820"
"5","5","retrieval","old_objects","107","Telescope.jpg","37","0","898"
