"group","subject","blockcode","trialcode","trialnum","values.stimulus","response","correct","latency"
"2","2","encoding","encoding","1","Jack.jpg","1","0","1671"
"2","2","encoding","encoding","2","Cauliflower.jpg","1","0","1144"
"2","2","encoding","encoding","3","ToothBrush.jpg","1","0","949"
"2","2","encoding","encoding","4","Fencing_HelmetSwords.jpg","1","0","1373"
"2","2","encoding","encoding","5","Outhouse.jpg","1","0","1075"
"2","2","encoding","encoding","6","Box_Vials.jpg","1","0","1148"
"2","2","encoding","encoding","7","Cross.jpg","1","0","1145"
"2","2","encoding","encoding","8","Battery_AA.jpg","1","0","1221"
"2","2","encoding","encoding","9","Toy_RobotClassic.jpg","2","0","1554"
"2","2","encoding","encoding","10","DoorBell.jpg","1","0","1117"
"2","2","encoding","encoding","11","Branches_Campfire.jpg","1","0","1245"
"2","2","encoding","encoding","12","WaterHeater.jpg","1","0","1138"
"2","2","encoding","encoding","13","Mirror_Carside.jpg","1","0","1151"
"2","2","encoding","encoding","14","DusterFeather.jpg","1","0","1178"
"2","2","encoding","encoding","15","Case_Pencil.jpg","1","0","998"
"2","2","encoding","encoding","16","LampPost_WhiteOrnate.jpg","1","0","1157"
"2","2","encoding","encoding","17","Perfume.jpg","1","0","1001"
"2","2","encoding","encoding","18","Pen_Calligraphy.jpg","1","0","962"
"2","2","encoding","encoding","19","Handcuffs.jpg","1","0","1149"
"2","2","encoding","encoding","20","Clip_Chip.jpg","1","0","968"
"2","2","encoding","encoding","21","Car_Sedan.jpg","1","0","1049"
"2","2","encoding","encoding","22","WateringCan_Antique.jpg","1","0","927"
"2","2","encoding","encoding","23","Exercise_Stretch.jpg","1","0","926"
"2","2","encoding","encoding","24","Motorcycle.jpg","2","0","1277"
"2","2","encoding","encoding","25","FireHydrant.jpg","1","0","1165"
"2","2","encoding","encoding","26","ComputerMouse.jpg","1","0","1337"
"2","2","encoding","encoding","27","Gauge.jpg","1","0","1092"
"2","2","encoding","encoding","28","Toy_Train.jpg","1","0","1108"
"2","2","encoding","encoding","29","Spool_Thread.jpg","1","0","984"
"2","2","encoding","encoding","30","Bugle.jpg","1","0","935"
"2","2","encoding","encoding","31","Toy_DogBall.jpg","1","0","1006"
"2","2","encoding","encoding","32","Glove_Rubber.jpg","1","0","930"
"2","2","encoding","encoding","33","Match.jpg","1","0","1001"
"2","2","encoding","encoding","34","Crutches.jpg","1","0","974"
"2","2","encoding","encoding","35","Grill_Electric.jpg","1","0","911"
"2","2","encoding","encoding","36","Pot_FlowerClay.jpg","1","0","966"
"2","2","encoding","encoding","37","Staircase_Straight.jpg","1","0","826"
"2","2","encoding","encoding","38","Bottle_Spray.jpg","1","0","899"
"2","2","encoding","encoding","39","Bottle_Wine.jpg","1","0","620"
"2","2","encoding","encoding","40","Crackers_Ritz.jpg","2","0","1122"
"2","2","encoding","encoding","41","SafetyPin.jpg","1","0","937"
"2","2","encoding","encoding","42","TeethMould.jpg","1","0","1018"
"2","2","encoding","encoding","43","SeatBuckle.jpg","1","0","695"
"2","2","encoding","encoding","44","Lychee.jpg","1","0","801"
"2","2","encoding","encoding","45","Toy_DonkeyPlastic.jpg","1","0","1103"
"2","2","encoding","encoding","46","Flashlight.jpg","1","0","943"
"2","2","encoding","encoding","47","Sign_Wetfloor.jpg","1","0","821"
"2","2","encoding","encoding","48","Tambourine.jpg","1","0","787"
"2","2","encoding","encoding","49","Shoes_Snow.jpg","1","0","846"
"2","2","encoding","encoding","50","Necklace_Black.jpg","1","0","804"
"2","2","encoding","encoding","51","Candy_Cane.jpg","3","0","1435"
"2","2","encoding","encoding","52","Snake_Cobra.jpg","1","0","1131"
"2","2","encoding","encoding","53","Trunk.jpg","2","0","1271"
"2","2","encoding","encoding","54","PoliceTape.jpg","1","0","994"
"2","2","encoding","encoding","55","Snowboard.jpg","1","0","1025"
"2","2","encoding","encoding","56","Lettuce_GreenLeaf.jpg","1","0","885"
"2","2","encoding","encoding","57","Hottub.jpg","1","0","1090"
"2","2","encoding","encoding","58","Apple_Candy.jpg","1","0","1061"
"2","2","encoding","encoding","59","Snail.jpg","1","0","1078"
"2","2","encoding","encoding","60","PizzaCutter.jpg","1","0","867"
"2","2","encoding","encoding","62","Hook_Ceiling.jpg","1","0","1202"
"2","2","encoding","encoding","63","Clave.jpg","1","0","1112"
"2","2","encoding","encoding","64","Notepad.jpg","2","0","1271"
"2","2","encoding","encoding","65","Toblerone.jpg","1","0","1147"
"2","2","encoding","encoding","66","Chairs_Stacked.jpg","1","0","1106"
"2","2","encoding","encoding","67","Bus_School.jpg","1","0","1013"
"2","2","encoding","encoding","68","Belt.jpg","1","0","995"
"2","2","encoding","encoding","69","Origami_Bird.jpg","2","0","1186"
"2","2","encoding","encoding","70","Ambulance.jpg","1","0","1295"
"2","2","encoding","encoding","71","Toy_Wooden rings.jpg","1","0","1217"
"2","2","encoding","encoding","72","Lynx.jpg","3","0","1186"
"2","2","encoding","encoding","73","PlayerFootball.jpg","1","0","1131"
"2","2","encoding","encoding","74","Crossbow.jpg","1","0","1405"
"2","2","encoding","encoding","75","Magnifying_Glass.jpg","1","0","1011"
"2","2","encoding","encoding","76","MonkeyPuppet.jpg","1","0","974"
"2","2","encoding","encoding","77","Embosser.jpg","1","0","893"
"2","2","encoding","encoding","78","Mailbox_Antique.jpg","1","0","960"
"2","2","encoding","encoding","79","Film_Roll.jpg","1","0","1130"
"2","2","encoding","encoding","80","FloorTile.jpg","1","0","1019"
"2","2","encoding","encoding","81","DryingMachine.jpg","1","0","1073"
"2","2","encoding","encoding","82","Bottle_Champagne.jpg","1","0","1009"
"2","2","encoding","encoding","83","GingerbreadMan.jpg","3","0","1114"
"2","2","encoding","encoding","84","Screw.jpg","1","0","992"
"2","2","encoding","encoding","85","Ruler_Wooden.jpg","1","0","896"
"2","2","encoding","encoding","86","Bicycle_Kids.jpg","1","0","1081"
"2","2","encoding","encoding","87","AirCompressor.jpg","1","0","1056"
"2","2","encoding","encoding","88","Scissors.jpg","1","0","1034"
"2","2","encoding","encoding","89","Stingray.jpg","1","0","1035"
"2","2","encoding","encoding","90","Fuse.jpg","1","0","1070"
"2","2","encoding","encoding","91","Lantern_TeaBox.jpg","1","0","1024"
"2","2","encoding","encoding","92","Hulahoop.jpg","1","0","1097"
"2","2","encoding","encoding","93","DryRack_Clothes.jpg","1","0","911"
"2","2","encoding","encoding","94","Makeup_Compact.jpg","1","0","998"
"2","2","encoding","encoding","95","Candle_ChristmasDecor.jpg","1","0","991"
"2","2","encoding","encoding","96","PaintBrushAndPallette.jpg","2","0","1290"
"2","2","encoding","encoding","97","TurkeyDinner.jpg","1","0","1091"
"2","2","encoding","encoding","98","Plate_Children.jpg","1","0","1326"
"2","2","encoding","encoding","99","Crayon_Green.jpg","1","0","1066"
"2","2","encoding","encoding","100","ShoppingCart.jpg","1","0","885"
"2","2","encoding","encoding","101","Drum_Ramadan.jpg","1","0","899"
"2","2","encoding","encoding","102","Caterpillar.jpg","1","0","955"
"2","2","encoding","encoding","103","Swan.jpg","1","0","819"
"2","2","encoding","encoding","104","PharoahReplica.jpg","1","0","950"
"2","2","encoding","encoding","105","LifeJacket_Orangejpg.jpg","1","0","985"
"2","2","encoding","encoding","106","Box_FirstAid.jpg","1","0","1024"
"2","2","encoding","encoding","107","Balcony.jpg","1","0","889"
"2","2","encoding","encoding","108","ChalkboardEraser.jpg","1","0","973"
"2","2","encoding","encoding","109","Clamp_Screw.jpg","1","0","1023"
"2","2","encoding","encoding","110","Pipe_Pitch.jpg","1","0","1294"
"2","2","encoding","encoding","111","Egg_Chocolate.jpg","1","0","1395"
"2","2","encoding","encoding","112","Compact_Powder.jpg","1","0","1003"
"2","2","encoding","encoding","113","DayPlanner.jpg","2","0","1154"
"2","2","encoding","encoding","114","Toy_Witch.jpg","1","0","1390"
"2","2","encoding","encoding","115","Socks_Baby.jpg","1","0","1082"
"2","2","encoding","encoding","116","Nutcracker.jpg","1","0","1190"
"2","2","encoding","encoding","117","Table_Pool.jpg","1","0","976"
"2","2","encoding","encoding","118","Dill.jpg","1","0","950"
"2","2","encoding","encoding","119","Dress_Blue.jpg","1","0","956"
"2","2","encoding","encoding","120","Cinnamonroll.jpg","2","0","1173"
"2","2","encoding","encoding","121","Thermos_Decorated.jpg","1","0","885"
"2","2","encoding","encoding","123","Skates.jpg","1","0","1153"
"2","2","encoding","encoding","124","EspressoMachine.jpg","1","0","986"
"2","2","encoding","encoding","125","Tray_Muffin.jpg","1","0","930"
"2","2","encoding","encoding","126","ToothPaste.jpg","1","0","898"
"2","2","encoding","encoding","127","DartBoard.jpg","2","0","1082"
"2","2","encoding","encoding","128","Bag_Groceries.jpg","1","0","1159"
"2","2","encoding","encoding","129","Toy_Lion.jpg","1","0","1056"
"2","2","encoding","encoding","130","Guacamole.jpg","1","0","925"
"2","2","encoding","encoding","131","Mug_Ceramic.jpg","1","0","879"
"2","2","encoding","encoding","132","Scroll.jpg","2","0","1333"
"2","2","encoding","encoding","133","PencilSharpener.jpg","1","0","1004"
"2","2","encoding","encoding","134","ShearsGarden.jpg","1","0","923"
"2","2","encoding","encoding","135","Toy_FigurineEngineer.jpg","1","0","937"
"2","2","encoding","encoding","136","Printer.jpg","1","0","898"
"2","2","encoding","encoding","137","Dress_Cocktail.jpg","1","0","987"
"2","2","encoding","encoding","138","Sink_Bathroom.jpg","1","0","865"
"2","2","encoding","encoding","139","Ruler_Triangle.jpg","1","0","880"
"2","2","encoding","encoding","140","Plate_Ceramic.jpg","1","0","848"
"2","2","encoding","encoding","141","Switch_LightWhite.jpg","1","0","823"
"2","2","encoding","encoding","142","Glass_Beer.jpg","1","0","904"
"2","2","encoding","encoding","143","Light_Fixtures.jpg","1","0","898"
"2","2","encoding","encoding","144","Pretzel_Knot.jpg","2","0","1163"
"2","2","encoding","encoding","145","ChewingGum.jpg","1","0","1051"
"2","2","encoding","encoding","146","Weights_Dumbells.jpg","1","0","987"
"2","2","encoding","encoding","147","Tetrahedron.jpg","1","0","993"
"2","2","encoding","encoding","148","Grape.jpg","1","0","905"
"2","2","encoding","encoding","149","PotatoMasher_Grate.jpg","1","0","839"
"2","2","encoding","encoding","150","Toy_FigurineSwing.jpg","1","0","1237"
"2","2","encoding","encoding","151","Crib_Standard.jpg","1","0","959"
"2","2","encoding","encoding","152","Horn_Hunting.jpg","1","0","1180"
"2","2","encoding","encoding","153","Bottle_Baby.jpg","1","0","914"
"2","2","encoding","encoding","154","AngleGrinder.jpg","1","0","1111"
"2","2","encoding","encoding","155","Camera_Antique.jpg","1","0","999"
"2","2","encoding","encoding","156","Pear_Green.jpg","1","0","1035"
"2","2","encoding","encoding","157","Leaf_Clover.jpg","2","0","1380"
"2","2","encoding","encoding","158","Mask_Viking.jpg","3","0","1317"
"2","2","encoding","encoding","159","Pliers_ViceGrip.jpg","1","0","888"
"2","2","encoding","encoding","160","DiaperChangingStation.jpg","1","0","945"
"2","2","encoding","encoding","161","Paddle_Bread.jpg","1","0","902"
"2","2","encoding","encoding","162","Mop.jpg","1","0","958"
"2","2","encoding","encoding","163","Squid_Pink.jpg","1","0","988"
"2","2","encoding","encoding","164","RiceRaw.jpg","1","0","901"
"2","2","encoding","encoding","165","BridgeWooden.jpg","1","0","907"
"2","2","encoding","encoding","166","ShakerShekere.jpg","1","0","994"
"2","2","encoding","encoding","167","Plum.jpg","1","0","985"
"2","2","encoding","encoding","168","CementFinisher.jpg","1","0","944"
"2","2","encoding","encoding","169","Wontons.jpg","1","0","819"
"2","2","encoding","encoding","170","Trumpet.jpg","1","0","1001"
"2","2","encoding","encoding","171","DivingBoard.jpg","1","0","1130"
"2","2","encoding","encoding","172","Plate_Wooden.jpg","1","0","945"
"2","2","encoding","encoding","173","Clothespin_Red.jpg","1","0","973"
"2","2","encoding","encoding","174","Jar_Strawberry.jpg","1","0","1004"
"2","2","encoding","encoding","175","Strainer_Tea.jpg","1","0","977"
"2","2","encoding","encoding","176","Backhoe.jpg","1","0","1021"
"2","2","encoding","encoding","177","Brush_Shoe.jpg","1","0","838"
"2","2","retrieval","new_objects","1","CableConnecter.jpg","36","0","730"
"2","2","retrieval","new_objects","2","Brush_Shaving.jpg","37","1","835"
"2","2","retrieval","old_objects","3","Shoes_Snow.jpg","36","1","649"
"2","2","retrieval","new_objects","4","USBKey.jpg","36","0","829"
"2","2","retrieval","new_objects","5","Shoe_Highheel.jpg","37","1","675"
"2","2","retrieval","new_objects","6","Bagpipes.jpg","37","1","791"
"2","2","retrieval","old_objects","7","Origami_Bird.jpg","36","1","639"
"2","2","retrieval","old_objects","8","Snake_Cobra.jpg","36","1","636"
"2","2","retrieval","new_objects","9","PumpBreast.jpg","37","1","618"
"2","2","retrieval","new_objects","10","Hay.jpg","37","1","656"
"2","2","retrieval","new_objects","11","HairCurler.jpg","37","1","573"
"2","2","retrieval","new_objects","12","Hotdog_WithBun.jpg","37","1","605"
"2","2","retrieval","new_objects","13","Fan_Ceiling.jpg","37","1","620"
"2","2","retrieval","old_objects","14","Hottub.jpg","36","1","530"
"2","2","retrieval","old_objects","15","Crutches.jpg","36","1","547"
"2","2","retrieval","new_objects","16","Mask_Masquerade.jpg","37","1","780"
"2","2","retrieval","old_objects","17","Crayon_Green.jpg","37","0","645"
"2","2","retrieval","new_objects","18","Spoon_Baby.jpg","37","1","545"
"2","2","retrieval","old_objects","19","Toblerone.jpg","36","1","522"
"2","2","retrieval","old_objects","20","Brush_Shoe.jpg","36","1","564"
"2","2","retrieval","old_objects","21","Hook_Ceiling.jpg","36","1","621"
"2","2","retrieval","new_objects","22","Coatrack.jpg","37","1","659"
"2","2","retrieval","new_objects","23","Pasta_Fusilli.jpg","37","1","584"
"2","2","retrieval","new_objects","24","Mask_HockeyGoalie.jpg","37","1","623"
"2","2","retrieval","new_objects","25","Missile.jpg","37","1","621"
"2","2","retrieval","new_objects","26","Telephone_Dial.jpg","37","1","644"
"2","2","retrieval","old_objects","27","Crackers_Ritz.jpg","36","1","537"
"2","2","retrieval","old_objects","28","Camera_Antique.jpg","36","1","602"
"2","2","retrieval","old_objects","29","MonkeyPuppet.jpg","36","1","585"
"2","2","retrieval","new_objects","30","PirateFlag.jpg","37","1","649"
"2","2","retrieval","old_objects","31","Mop.jpg","36","1","646"
"2","2","retrieval","new_objects","32","Chair_PlasticGreen.jpg","37","1","523"
"2","2","retrieval","old_objects","33","Handcuffs.jpg","36","1","701"
"2","2","retrieval","old_objects","34","Lettuce_GreenLeaf.jpg","36","1","552"
"2","2","retrieval","old_objects","35","Cauliflower.jpg","36","1","544"
"2","2","retrieval","old_objects","36","Sink_Bathroom.jpg","36","1","650"
"2","2","retrieval","new_objects","37","TelescopeSpacecraft.jpg","37","1","607"
"2","2","retrieval","old_objects","38","Wontons.jpg","36","1","614"
"2","2","retrieval","new_objects","39","Cooler.jpg","37","1","540"
"2","2","retrieval","new_objects","40","GasStation.jpg","37","1","581"
"2","2","retrieval","old_objects","41","Paddle_Bread.jpg","36","1","517"
"2","2","retrieval","old_objects","42","Scissors.jpg","36","1","511"
"2","2","retrieval","old_objects","43","Candy_Cane.jpg","36","1","530"
"2","2","retrieval","new_objects","44","Car_Vintage.jpg","37","1","611"
"2","2","retrieval","old_objects","45","Bugle.jpg","36","1","594"
"2","2","retrieval","new_objects","46","Mixer_Cement.jpg","37","1","529"
"2","2","retrieval","new_objects","47","TreeStump.jpg","37","1","651"
"2","2","retrieval","old_objects","48","DryingMachine.jpg","36","1","657"
"2","2","retrieval","old_objects","49","Plum.jpg","36","1","581"
"2","2","retrieval","new_objects","50","Sign_Washroom.jpg","37","1","612"
"2","2","retrieval","old_objects","51","Jar_Strawberry.jpg","37","0","587"
"2","2","retrieval","old_objects","52","Plate_Wooden.jpg","36","1","626"
"2","2","retrieval","old_objects","53","Pretzel_Knot.jpg","36","1","520"
"2","2","retrieval","new_objects","54","Toy_BlocksLetter.jpg","37","1","618"
"2","2","retrieval","old_objects","55","Clamp_Screw.jpg","36","1","601"
"2","2","retrieval","old_objects","56","Car_Sedan.jpg","36","1","600"
"2","2","retrieval","new_objects","57","EyeChart.jpg","37","1","574"
"2","2","retrieval","old_objects","58","Tambourine.jpg","36","1","655"
"2","2","retrieval","old_objects","59","Crossbow.jpg","36","1","571"
"2","2","retrieval","new_objects","60","Toy_PoliceCar.jpg","37","1","572"
"2","2","retrieval","old_objects","62","PotatoMasher_Grate.jpg","36","1","649"
"2","2","retrieval","new_objects","63","PyramidWooden.jpg","37","1","598"
"2","2","retrieval","new_objects","64","Pasta_Fettuccine.jpg","36","0","573"
"2","2","retrieval","old_objects","65","Embosser.jpg","36","1","693"
"2","2","retrieval","old_objects","66","Lantern_TeaBox.jpg","36","1","633"
"2","2","retrieval","old_objects","67","Balcony.jpg","36","1","630"
"2","2","retrieval","old_objects","68","Glass_Beer.jpg","36","1","596"
"2","2","retrieval","old_objects","69","Glove_Rubber.jpg","36","1","627"
"2","2","retrieval","new_objects","70","Crate_Wine.jpg","37","1","601"
"2","2","retrieval","old_objects","71","Plate_Ceramic.jpg","37","0","552"
"2","2","retrieval","old_objects","72","Notepad.jpg","36","1","545"
"2","2","retrieval","new_objects","73","Chair_Office.jpg","36","0","650"
"2","2","retrieval","old_objects","74","FloorTile.jpg","36","1","607"
"2","2","retrieval","new_objects","75","Spear.jpg","37","1","934"
"2","2","retrieval","old_objects","76","Pen_Calligraphy.jpg","36","1","583"
"2","2","retrieval","old_objects","77","SafetyPin.jpg","36","1","799"
"2","2","retrieval","old_objects","78","Bicycle_Kids.jpg","36","1","677"
"2","2","retrieval","new_objects","79","Box_Present.jpg","37","1","553"
"2","2","retrieval","new_objects","80","Domino.jpg","37","1","578"
"2","2","retrieval","new_objects","81","Cookie.jpg","37","1","571"
"2","2","retrieval","old_objects","82","Trunk.jpg","36","1","562"
"2","2","retrieval","new_objects","83","PillBottle_Closed.jpg","37","1","746"
"2","2","retrieval","old_objects","84","Grape.jpg","36","1","611"
"2","2","retrieval","new_objects","85","Carrot.jpg","37","1","577"
"2","2","retrieval","old_objects","86","LampPost_WhiteOrnate.jpg","36","1","698"
"2","2","retrieval","new_objects","87","Artichoke.jpg","37","1","636"
"2","2","retrieval","old_objects","88","Snowboard.jpg","37","0","538"
"2","2","retrieval","old_objects","89","TurkeyDinner.jpg","36","1","820"
"2","2","retrieval","old_objects","90","Tray_Muffin.jpg","36","1","594"
"2","2","retrieval","new_objects","91","Lettuce_Iceberg.jpg","36","0","713"
"2","2","retrieval","new_objects","92","ProjectorScreen.jpg","37","1","683"
"2","2","retrieval","old_objects","93","Belt.jpg","36","1","711"
"2","2","retrieval","old_objects","94","Leaf_Clover.jpg","36","1","602"
"2","2","retrieval","old_objects","95","Film_Roll.jpg","36","1","680"
"2","2","retrieval","new_objects","96","Noose.jpg","37","1","652"
"2","2","retrieval","old_objects","97","Exercise_Stretch.jpg","36","1","809"
"2","2","retrieval","old_objects","98","FireHydrant.jpg","36","1","600"
"2","2","retrieval","new_objects","99","Pot_Cooking.jpg","37","1","744"
"2","2","retrieval","new_objects","100","Carousel.jpg","37","1","736"
"2","2","retrieval","old_objects","101","Weights_Dumbells.jpg","36","1","833"
"2","2","retrieval","old_objects","102","Stingray.jpg","36","1","751"
"2","2","retrieval","new_objects","103","Bandage_Adhesive.jpg","37","1","591"
"2","2","retrieval","old_objects","104","TeethMould.jpg","36","1","671"
"2","2","retrieval","new_objects","105","Cabasa.jpg","37","1","595"
"2","2","retrieval","new_objects","106","Toy_Firetruck.jpg","37","1","626"
"2","2","retrieval","new_objects","107","Hawk.jpg","37","1","672"
"2","2","retrieval","old_objects","108","Table_Pool.jpg","36","1","644"
"2","2","retrieval","old_objects","109","Fuse.jpg","36","1","586"
"2","2","retrieval","old_objects","110","Chairs_Stacked.jpg","36","1","658"
"2","2","retrieval","new_objects","111","Drum_Tall.jpg","36","0","654"
"2","2","retrieval","new_objects","112","Spatula_1.jpg","37","1","659"
"2","2","retrieval","old_objects","113","Caterpillar.jpg","36","1","624"
"2","2","retrieval","new_objects","114","Jacks.jpg","37","1","670"
"2","2","retrieval","new_objects","115","PersonWooden.jpg","37","1","1051"
"2","2","retrieval","new_objects","116","Desk_White.jpg","37","1","935"
"2","2","retrieval","new_objects","117","Binder.jpg","36","0","849"
"2","2","retrieval","old_objects","118","AirCompressor.jpg","36","1","710"
"2","2","retrieval","new_objects","119","Toy_Boat.jpg","37","1","681"
"2","2","retrieval","old_objects","120","Match.jpg","36","1","612"
"2","2","retrieval","old_objects","121","Toy_RobotClassic.jpg","36","1","707"
"2","2","retrieval","old_objects","123","Ruler_Wooden.jpg","36","1","700"
"2","2","retrieval","old_objects","124","Pliers_ViceGrip.jpg","36","1","687"
"2","2","retrieval","old_objects","125","Compact_Powder.jpg","36","1","706"
"2","2","retrieval","new_objects","126","IceCubes copy.jpg","37","1","557"
"2","2","retrieval","new_objects","127","Gloves_WhiteKnit.jpg","37","1","590"
"2","2","retrieval","new_objects","128","Broccoli.jpg","36","0","542"
"2","2","retrieval","new_objects","129","GPS.jpg","37","1","671"
"2","2","retrieval","new_objects","130","Barrel_Wine.jpg","37","1","675"
"2","2","retrieval","old_objects","131","Plate_Children.jpg","36","1","767"
"2","2","retrieval","new_objects","132","ManholeCover.jpg","37","1","752"
"2","2","retrieval","new_objects","133","Box_GiftTopView.jpg","37","1","817"
"2","2","retrieval","old_objects","134","Toy_Wooden rings.jpg","36","1","647"
"2","2","retrieval","new_objects","135","Fork_Regular.jpg","36","0","564"
"2","2","retrieval","old_objects","136","Bottle_Wine.jpg","36","1","780"
"2","2","retrieval","old_objects","137","Lynx.jpg","36","1","636"
"2","2","retrieval","new_objects","138","LightBulb_Christmas.jpg","37","1","593"
"2","2","retrieval","old_objects","139","Sign_Wetfloor.jpg","36","1","648"
"2","2","retrieval","old_objects","140","Toy_DonkeyPlastic.jpg","36","1","757"
"2","2","retrieval","old_objects","141","DiaperChangingStation.jpg","36","1","734"
"2","2","retrieval","new_objects","142","Bark.jpg","37","1","632"
"2","2","retrieval","old_objects","143","CementFinisher.jpg","36","1","725"
"2","2","retrieval","new_objects","144","WalkieTalkie_Red.jpg","37","1","711"
"2","2","retrieval","new_objects","145","Jar_Honey.jpg","37","1","785"
"2","2","retrieval","old_objects","146","PoliceTape.jpg","36","1","713"
"2","2","retrieval","new_objects","147","Stick_Honey.jpg","37","1","763"
"2","2","retrieval","old_objects","148","Toy_DogBall.jpg","36","1","692"
"2","2","retrieval","new_objects","149","Briefcase_Open.jpg","37","1","728"
"2","2","retrieval","new_objects","150","Pepper_Chili.jpg","37","1","746"
"2","2","retrieval","new_objects","151","Corn_Kernels.jpg","36","0","675"
"2","2","retrieval","old_objects","152","GingerbreadMan.jpg","36","1","575"
"2","2","retrieval","new_objects","153","Parcel.jpg","37","1","607"
"2","2","retrieval","new_objects","154","Toy_Babydoll.jpg","37","1","726"
"2","2","retrieval","new_objects","155","Cleaver_Meat.jpg","36","0","639"
"2","2","retrieval","new_objects","156","WindowBlinds.jpg","36","0","647"
"2","2","retrieval","new_objects","157","Bus_DoubleDecker.jpg","36","0","666"
"2","2","retrieval","old_objects","158","Tetrahedron.jpg","37","0","582"
"2","2","retrieval","old_objects","159","Bottle_Spray.jpg","37","0","957"
"2","2","retrieval","old_objects","160","Egg_Chocolate.jpg","36","1","718"
"2","2","retrieval","old_objects","161","Bottle_Baby.jpg","36","1","744"
"2","2","retrieval","new_objects","162","WireStripper.jpg","36","0","762"
"2","2","retrieval","old_objects","163","PharoahReplica.jpg","36","1","611"
"2","2","retrieval","old_objects","164","Thermos_Decorated.jpg","36","1","674"
"2","2","retrieval","new_objects","165","VGAport.jpg","37","1","638"
"2","2","retrieval","new_objects","166","Speaker_Computer.jpg","37","1","627"
"2","2","retrieval","new_objects","167","Bowl_Chinese.jpg","37","1","652"
"2","2","retrieval","old_objects","168","Ambulance.jpg","37","0","758"
"2","2","retrieval","old_objects","169","BridgeWooden.jpg","36","1","631"
"2","2","retrieval","new_objects","170","TelephoneSwitchboard.jpg","36","0","788"
"2","2","retrieval","new_objects","171","Chicken_FriedDrum.jpg","36","0","724"
"2","2","retrieval","new_objects","172","Shield_Antique.jpg","37","1","710"
"2","2","retrieval","new_objects","173","KnifeHolder.jpg","36","0","737"
"2","2","retrieval","old_objects","174","Flashlight.jpg","36","1","602"
"2","2","retrieval","new_objects","175","Toy_Tractor_1.jpg","37","1","769"
"2","2","retrieval","new_objects","176","CoffeePot.jpg","37","1","625"
"2","2","retrieval","new_objects","177","Mask_CPR.jpg","37","1","687"
"2","2","retrieval","old_objects","178","Candle_ChristmasDecor.jpg","36","1","651"
"2","2","retrieval","new_objects","179","Icepick.jpg","36","0","775"
"2","2","retrieval","old_objects","180","Ruler_Triangle.jpg","36","1","656"
"2","2","retrieval","old_objects","181","Necklace_Black.jpg","36","1","636"
"2","2","retrieval","old_objects","182","Pear_Green.jpg","36","1","706"
"2","2","retrieval","old_objects","184","Perfume.jpg","36","1","810"
"2","2","retrieval","old_objects","185","Dill.jpg","36","1","552"
"2","2","retrieval","old_objects","186","Fencing_HelmetSwords.jpg","36","1","633"
"2","2","retrieval","old_objects","187","Drum_Ramadan.jpg","36","1","751"
"2","2","retrieval","new_objects","188","Panda.jpg","37","1","640"
"2","2","retrieval","old_objects","189","Socks_Baby.jpg","36","1","749"
"2","2","retrieval","old_objects","190","Dress_Blue.jpg","36","1","670"
"2","2","retrieval","old_objects","191","PlayerFootball.jpg","36","1","650"
"2","2","retrieval","old_objects","192","Jack.jpg","36","1","663"
"2","2","retrieval","old_objects","193","Hulahoop.jpg","36","1","707"
"2","2","retrieval","new_objects","194","Bag_PaperWithFlour.jpg","37","1","670"
"2","2","retrieval","old_objects","195","DartBoard.jpg","36","1","626"
"2","2","retrieval","new_objects","196","Dart.jpg","37","1","793"
"2","2","retrieval","new_objects","197","PaperStack.jpg","37","1","736"
"2","2","retrieval","old_objects","198","EspressoMachine.jpg","36","1","713"
"2","2","retrieval","new_objects","199","Paddle_Beach.jpg","37","1","652"
"2","2","retrieval","old_objects","200","ShakerShekere.jpg","36","1","825"
"2","2","retrieval","old_objects","201","Snail.jpg","36","1","591"
"2","2","retrieval","new_objects","202","Flute_Tin.jpg","37","1","726"
"2","2","retrieval","new_objects","203","Toy_Slide.jpg","37","1","744"
"2","2","retrieval","old_objects","204","ToothBrush.jpg","36","1","596"
"2","2","retrieval","old_objects","205","WaterHeater.jpg","36","1","609"
"2","2","retrieval","old_objects","206","Squid_Pink.jpg","36","1","584"
"2","2","retrieval","new_objects","207","Truck_VintageBlue.jpg","37","1","623"
"2","2","retrieval","old_objects","208","Printer.jpg","37","0","789"
"2","2","retrieval","old_objects","209","Swan.jpg","37","0","725"
"2","2","retrieval","new_objects","210","Kebab_Vegetables.jpg","36","0","655"
"2","2","retrieval","new_objects","211","ProcessorFood_Modern.jpg","36","0","676"
"2","2","retrieval","new_objects","212","Ferret.jpg","37","1","728"
"2","2","retrieval","new_objects","213","Plate_Decorative.jpg","37","1","698"
"2","2","retrieval","new_objects","214","Crown.jpg","37","1","604"
"2","2","retrieval","old_objects","215","Guacamole.jpg","36","1","651"
"2","2","retrieval","new_objects","216","Pot_TurkishCoffee.jpg","36","0","904"
"2","2","retrieval","old_objects","217","Light_Fixtures.jpg","36","1","811"
"2","2","retrieval","new_objects","218","Razor.jpg","36","0","642"
"2","2","retrieval","old_objects","219","Battery_AA.jpg","36","1","640"
"2","2","retrieval","new_objects","220","SpaceShuttle.jpg","37","1","676"
"2","2","retrieval","old_objects","221","Magnifying_Glass.jpg","37","0","649"
"2","2","retrieval","new_objects","222","Toy_Taxi.jpg","37","1","613"
"2","2","retrieval","new_objects","223","Cart_Wooden.jpg","37","1","692"
"2","2","retrieval","new_objects","224","Drink_Cocktail.jpg","36","0","608"
"2","2","retrieval","old_objects","225","Strainer_Tea.jpg","36","1","710"
"2","2","retrieval","new_objects","226","LeatherPuncherTool.jpg","36","0","801"
"2","2","retrieval","new_objects","227","IceCubes.jpg","36","0","872"
"2","2","retrieval","old_objects","228","Bag_Groceries.jpg","36","1","788"
"2","2","retrieval","old_objects","229","Box_FirstAid.jpg","37","0","643"
"2","2","retrieval","old_objects","230","DusterFeather.jpg","36","1","681"
"2","2","retrieval","new_objects","231","Thermostat.jpg","37","1","692"
"2","2","retrieval","old_objects","232","Mask_Viking.jpg","36","1","808"
"2","2","retrieval","new_objects","233","Pasta_Shell.jpg","36","0","743"
"2","2","retrieval","new_objects","234","Pipette.jpg","37","1","673"
"2","2","retrieval","new_objects","235","Folder_Plastic.jpg","37","1","661"
"2","2","retrieval","new_objects","236","Pot_CastIron.jpg","37","1","625"
"2","2","retrieval","new_objects","237","Suspenders.jpg","37","1","663"
"2","2","retrieval","old_objects","238","Apple_Candy.jpg","36","1","572"
"2","2","retrieval","new_objects","239","RecordPlayer.jpg","36","0","676"
"2","2","retrieval","old_objects","240","AngleGrinder.jpg","36","1","776"
"2","2","retrieval","old_objects","241","Pipe_Pitch.jpg","37","0","632"
"2","2","retrieval","old_objects","242","ComputerMouse.jpg","36","1","630"
"2","2","retrieval","new_objects","243","Bible.jpg","37","1","803"
"2","2","retrieval","old_objects","245","Toy_Lion.jpg","36","1","755"
"2","2","retrieval","old_objects","246","PencilSharpener.jpg","37","0","620"
"2","2","retrieval","new_objects","247","Toy_RobotTransformer.jpg","37","1","658"
"2","2","retrieval","old_objects","248","LifeJacket_Orangejpg.jpg","37","0","639"
"2","2","retrieval","new_objects","249","SkiPoles.jpg","36","0","732"
"2","2","retrieval","new_objects","250","Nuts_Peanuts.jpg","36","0","734"
"2","2","retrieval","old_objects","251","ShearsGarden.jpg","36","1","632"
"2","2","retrieval","old_objects","252","ShoppingCart.jpg","37","0","661"
"2","2","retrieval","new_objects","253","TomatoSauce.jpg","37","1","674"
"2","2","retrieval","new_objects","254","Brush_Windshield.jpg","37","1","686"
"2","2","retrieval","old_objects","255","Box_Vials.jpg","36","1","658"
"2","2","retrieval","old_objects","256","PaintBrushAndPallette.jpg","36","1","559"
"2","2","retrieval","new_objects","257","BookShelf.jpg","37","1","807"
"2","2","retrieval","new_objects","258","Bag_Hand.jpg","36","0","718"
"2","2","retrieval","new_objects","259","Sign_TrafficArrow.jpg","37","1","672"
"2","2","retrieval","new_objects","260","Sign_SlipperyRoad.jpg","37","1","621"
"2","2","retrieval","old_objects","261","Grill_Electric.jpg","36","1","643"
"2","2","retrieval","new_objects","262","OperaGlasses.jpg","36","0","712"
"2","2","retrieval","new_objects","263","Lei.jpg","37","1","698"
"2","2","retrieval","old_objects","264","Case_Pencil.jpg","36","1","669"
"2","2","retrieval","new_objects","265","Pot_BlackOld.jpg","37","1","729"
"2","2","retrieval","new_objects","266","CasketOpen.jpg","37","1","739"
"2","2","retrieval","new_objects","267","Kangaroo.jpg","37","1","653"
"2","2","retrieval","old_objects","268","DivingBoard.jpg","36","1","689"
"2","2","retrieval","new_objects","269","Chair_Dining.jpg","36","0","653"
"2","2","retrieval","new_objects","270","Sculpture_MetalMan.jpg","37","1","834"
"2","2","retrieval","new_objects","271","Fridge.jpg","37","1","687"
"2","2","retrieval","new_objects","272","Camel_Dromedary.jpg","37","1","747"
"2","2","retrieval","old_objects","273","Switch_LightWhite.jpg","36","1","924"
"2","2","retrieval","old_objects","274","Dress_Cocktail.jpg","36","1","870"
"2","2","retrieval","new_objects","275","Dog_ChowChow.jpg","37","1","594"
"2","2","retrieval","old_objects","276","Outhouse.jpg","36","1","642"
"2","2","retrieval","old_objects","277","Mirror_Carside.jpg","36","1","663"
"2","2","retrieval","new_objects","278","Donut.jpg","37","1","627"
"2","2","retrieval","old_objects","279","Branches_Campfire.jpg","36","1","658"
"2","2","retrieval","new_objects","280","Doll_Rag.jpg","37","1","694"
"2","2","retrieval","old_objects","281","Bottle_Champagne.jpg","36","1","730"
"2","2","retrieval","old_objects","282","Staircase_Straight.jpg","36","1","652"
"2","2","retrieval","new_objects","283","Candleholder_LampShaped.jpg","36","0","872"
"2","2","retrieval","old_objects","284","Spool_Thread.jpg","36","1","644"
"2","2","retrieval","old_objects","285","ToothPaste.jpg","36","1","690"
"2","2","retrieval","old_objects","286","ChalkboardEraser.jpg","36","1","742"
"2","2","retrieval","new_objects","287","Case_Leather.jpg","37","1","663"
"2","2","retrieval","new_objects","288","AirVent.jpg","37","1","635"
"2","2","retrieval","old_objects","289","Mug_Ceramic.jpg","36","1","657"
"2","2","retrieval","old_objects","290","Cinnamonroll.jpg","36","1","582"
"2","2","retrieval","old_objects","291","Clip_Chip.jpg","36","1","557"
"2","2","retrieval","old_objects","292","DayPlanner.jpg","36","1","646"
"2","2","retrieval","old_objects","293","Toy_Train.jpg","36","1","780"
"2","2","retrieval","old_objects","294","Motorcycle.jpg","36","1","651"
"2","2","retrieval","old_objects","295","Toy_Witch.jpg","36","1","688"
"2","2","retrieval","new_objects","296","Squash_Butternut.jpg","36","0","891"
"2","2","retrieval","new_objects","297","Loofa.jpg","37","1","711"
"2","2","retrieval","old_objects","298","PizzaCutter.jpg","36","1","618"
"2","2","retrieval","new_objects","299","Bird_Eagle.jpg","37","1","736"
"2","2","retrieval","old_objects","300","Mailbox_Antique.jpg","36","1","730"
"2","2","retrieval","new_objects","301","Box_Cutlery.jpg","37","1","675"
"2","2","retrieval","old_objects","302","RiceRaw.jpg","36","1","655"
"2","2","retrieval","new_objects","303","Toy_Stroller.jpg","37","1","596"
"2","2","retrieval","new_objects","304","Glass_Bowl.jpg","37","1","635"
"2","2","retrieval","new_objects","306","ConnectorPlug.jpg","37","1","805"
"2","2","retrieval","new_objects","307","LightHouse.jpg","37","1","748"
"2","2","retrieval","old_objects","308","Clothespin_Red.jpg","37","0","748"
"2","2","retrieval","old_objects","309","Backhoe.jpg","36","1","637"
"2","2","retrieval","old_objects","310","Toy_FigurineEngineer.jpg","36","1","771"
"2","2","retrieval","old_objects","311","Crib_Standard.jpg","36","1","587"
"2","2","retrieval","new_objects","312","Helmet_Bicycle.jpg","37","1","610"
"2","2","retrieval","old_objects","313","Screw.jpg","36","1","681"
"2","2","retrieval","new_objects","314","SoundMixer_Blue.jpg","36","0","1013"
"2","2","retrieval","old_objects","315","DryRack_Clothes.jpg","36","1","667"
"2","2","retrieval","new_objects","316","MatchBook.jpg","37","1","767"
"2","2","retrieval","new_objects","317","Stool_Foot.jpg","37","1","575"
"2","2","retrieval","new_objects","318","WindshieldWasherFluid.jpg","37","1","599"
"2","2","retrieval","old_objects","319","Scroll.jpg","36","1","590"
"2","2","retrieval","new_objects","320","HairDryer.jpg","37","1","677"
"2","2","retrieval","old_objects","321","Gauge.jpg","36","1","578"
"2","2","retrieval","new_objects","322","Bowtie.jpg","37","1","626"
"2","2","retrieval","old_objects","323","Makeup_Compact.jpg","36","1","696"
"2","2","retrieval","new_objects","324","Lantern_Chinese.jpg","36","0","787"
"2","2","retrieval","old_objects","325","Horn_Hunting.jpg","36","1","650"
"2","2","retrieval","new_objects","326","Toad.jpg","37","1","799"
"2","2","retrieval","old_objects","327","Toy_FigurineSwing.jpg","36","1","694"
"2","2","retrieval","old_objects","328","Bus_School.jpg","36","1","634"
"2","2","retrieval","new_objects","329","MusicSheet.jpg","37","1","903"
"2","2","retrieval","new_objects","330","Cherry.jpg","37","1","819"
"2","2","retrieval","new_objects","331","Clock_Digital.jpg","37","1","640"
"2","2","retrieval","old_objects","332","ChewingGum.jpg","36","1","798"
"2","2","retrieval","new_objects","333","Cornucopia.jpg","36","0","781"
"2","2","retrieval","new_objects","334","NetButterfly.jpg","37","1","813"
"2","2","retrieval","old_objects","335","Skates.jpg","37","0","706"
"2","2","retrieval","old_objects","336","SeatBuckle.jpg","37","0","797"
"2","2","retrieval","old_objects","337","Lychee.jpg","36","1","596"
"2","2","retrieval","old_objects","338","Trumpet.jpg","36","1","595"
"2","2","retrieval","old_objects","339","Pot_FlowerClay.jpg","36","1","626"
"2","2","retrieval","new_objects","340","Boar.jpg","37","1","624"
"2","2","retrieval","new_objects","341","Seal_Toy.jpg","37","1","606"
"2","2","retrieval","new_objects","342","Bandage_Wrap.jpg","37","1","677"
"2","2","retrieval","old_objects","343","WateringCan_Antique.jpg","36","1","641"
"2","2","retrieval","old_objects","344","DoorBell.jpg","36","1","750"
"2","2","retrieval","old_objects","345","Cross.jpg","36","1","664"
"2","2","retrieval","new_objects","346","ChessPiece_Knight.jpg","37","1","676"
"2","2","retrieval","new_objects","347","Sign_Parking.jpg","37","1","616"
"2","2","retrieval","new_objects","348","Eggplant.jpg","36","0","814"
"2","2","retrieval","old_objects","349","Nutcracker.jpg","36","1","652"
"2","2","retrieval","new_objects","350","Keg.jpg","36","0","729"
"2","2","retrieval","new_objects","351","Yarmulke.jpg","37","1","611"
"2","2","retrieval","old_objects","352","Clave.jpg","36","1","778"
"2","2","retrieval","new_objects","353","Earrings_Dangling.jpg","37","1","665"
"2","2","retrieval","new_objects","354","Peach.jpg","37","1","845"
"2","2","retrieval","new_objects","355","ToothPick.jpg","37","1","642"
"2","2","demographics_block","gender","1","ToothPick.jpg","Male","1","18276"
"2","2","demographics_block","age","1","ToothPick.jpg","35","1","18276"
"2","2","demographics_block","education","1","ToothPick.jpg","16","1","18276"
"2","2","demographics_block","left_right_handed","2","ToothPick.jpg","Right","1","7383"
"2","2","demographics_block","raceoption1","2","ToothPick.jpg","0","1","7383"
"2","2","demographics_block","raceoption2","2","ToothPick.jpg","","1","7383"
"2","2","demographics_block","raceoption3","2","ToothPick.jpg","","1","7383"
"2","2","demographics_block","raceoption4","2","ToothPick.jpg","","1","7383"
"2","2","demographics_block","raceoption5","2","ToothPick.jpg","","1","7383"
"2","2","demographics_block","raceoption6","2","ToothPick.jpg","","1","7383"
"2","2","demographics_block","raceoption7","2","ToothPick.jpg","","1","7383"
"2","2","demographics_block","raceoption8","2","ToothPick.jpg","","1","7383"
"2","2","demographics_block","raceoption9","2","ToothPick.jpg","","1","7383"
"2","2","demographics_block","raceother","2","ToothPick.jpg","","1","7383"
"2","2","demographics_block","raceother","2","ToothPick.jpg","","1","7383"
"2","2","demographics_block","english_language","2","ToothPick.jpg","Yes","1","7383"
"2","2","demographics_block","english_languageother","2","ToothPick.jpg","","1","7383"
"2","2","demographics_block","eyesight","3","ToothPick.jpg","Yes","1","4111"
"2","2","demographics_block","colorblind","3","ToothPick.jpg","No","1","4111"
"2","2","worker_id_block","worker_id_textbox","1","ToothPick.jpg","AMCBA6BNEVO01","1","4496"
"3","3","encoding","encoding","1","DryRack_Clothes.jpg","1","0","2626"
"3","3","encoding","encoding","2","Car_Sedan.jpg","5","0","2954"
"3","3","encoding","encoding","3","Skates.jpg","5","0","2151"
"3","3","encoding","encoding","4","Snail.jpg","3","0","2942"
"3","3","encoding","encoding","5","Box_FirstAid.jpg","2","0","2686"
"3","3","encoding","encoding","6","Magnifying_Glass.jpg","1","0","2749"
"3","3","encoding","encoding","7","DayPlanner.jpg","3","0","2026"
"3","3","encoding","encoding","8","DivingBoard.jpg","4","0","2776"
"3","3","encoding","encoding","9","Bugle.jpg","3","0","2230"
"3","3","encoding","encoding","10","LifeJacket_Orangejpg.jpg","1","0","1920"
"3","3","encoding","encoding","11","BridgeWooden.jpg","1","0","2586"
"3","3","encoding","encoding","12","PoliceTape.jpg","0","0","3000"
"3","3","encoding","encoding","13","AngleGrinder.jpg","1","0","2742"
"3","3","encoding","encoding","14","ShearsGarden.jpg","5","0","2296"
"3","3","encoding","encoding","15","Dress_Blue.jpg","5","0","1695"
"3","3","encoding","encoding","16","Table_Pool.jpg","5","0","1444"
"3","3","encoding","encoding","17","Plate_Ceramic.jpg","1","0","1951"
"3","3","encoding","encoding","18","Brush_Shoe.jpg","1","0","1403"
"3","3","encoding","encoding","19","Bottle_Baby.jpg","1","0","1486"
"3","3","encoding","encoding","20","Tetrahedron.jpg","0","0","3000"
"3","3","encoding","encoding","21","Switch_LightWhite.jpg","1","0","2804"
"3","3","encoding","encoding","22","Drum_Ramadan.jpg","5","0","2239"
"3","3","encoding","encoding","23","Sign_Wetfloor.jpg","5","0","2412"
"3","3","encoding","encoding","24","Film_Roll.jpg","6","0","2572"
"3","3","encoding","encoding","25","Tray_Muffin.jpg","1","0","1816"
"3","3","encoding","encoding","26","ChewingGum.jpg","1","0","1339"
"3","3","encoding","encoding","27","Fuse.jpg","1","0","1151"
"3","3","encoding","encoding","28","Toy_Train.jpg","1","0","930"
"3","3","encoding","encoding","29","Shoes_Snow.jpg","0","0","3000"
"3","3","encoding","encoding","30","Camera_Antique.jpg","1","0","1991"
"3","3","encoding","encoding","31","EspressoMachine.jpg","1","0","1973"
"3","3","encoding","encoding","32","Toblerone.jpg","4","0","2093"
"3","3","encoding","encoding","33","Weights_Dumbells.jpg","1","0","2513"
"3","3","encoding","encoding","34","DiaperChangingStation.jpg","1","0","2462"
"3","3","encoding","encoding","35","Toy_Witch.jpg","1","0","2103"
"3","3","encoding","encoding","36","Pear_Green.jpg","3","0","2047"
"3","3","encoding","encoding","37","Swan.jpg","3","0","2196"
"3","3","encoding","encoding","38","Squid_Pink.jpg","0","0","3000"
"3","3","encoding","encoding","39","Pipe_Pitch.jpg","1","0","2251"
"3","3","encoding","encoding","40","Fencing_HelmetSwords.jpg","0","0","3000"
"3","3","encoding","encoding","41","Sink_Bathroom.jpg","1","0","2085"
"3","3","encoding","encoding","42","Battery_AA.jpg","1","0","2081"
"3","3","encoding","encoding","43","ShoppingCart.jpg","1","0","1858"
"3","3","encoding","encoding","44","Outhouse.jpg","2","0","1807"
"3","3","encoding","encoding","45","Jar_Strawberry.jpg","5","0","2313"
"3","3","encoding","encoding","46","Flashlight.jpg","3","0","1821"
"3","3","encoding","encoding","47","Bottle_Wine.jpg","5","0","1705"
"3","3","encoding","encoding","48","Socks_Baby.jpg","3","0","2012"
"3","3","encoding","encoding","49","Clip_Chip.jpg","1","0","1866"
"3","3","encoding","encoding","50","ToothPaste.jpg","0","0","3000"
"3","3","encoding","encoding","51","Clamp_Screw.jpg","2","0","1876"
"3","3","encoding","encoding","52","GingerbreadMan.jpg","0","0","3000"
"3","3","encoding","encoding","53","Makeup_Compact.jpg","1","0","2620"
"3","3","encoding","encoding","54","WateringCan_Antique.jpg","1","0","2000"
"3","3","encoding","encoding","55","Snowboard.jpg","2","0","1602"
"3","3","encoding","encoding","56","Clave.jpg","5","0","2548"
"3","3","encoding","encoding","57","Glove_Rubber.jpg","2","0","1492"
"3","3","encoding","encoding","58","Plum.jpg","3","0","1973"
"3","3","encoding","encoding","59","Pot_FlowerClay.jpg","3","0","1318"
"3","3","encoding","encoding","60","Bicycle_Kids.jpg","2","0","1718"
"3","3","encoding","encoding","62","PencilSharpener.jpg","1","0","2295"
"3","3","encoding","encoding","63","Stingray.jpg","2","0","1834"
"3","3","encoding","encoding","64","Wontons.jpg","3","0","1660"
"3","3","encoding","encoding","65","Toy_FigurineSwing.jpg","2","0","837"
"3","3","encoding","encoding","66","Thermos_Decorated.jpg","3","0","1887"
"3","3","encoding","encoding","67","Embosser.jpg","2","0","1450"
"3","3","encoding","encoding","68","Trumpet.jpg","4","0","1619"
"3","3","encoding","encoding","69","Mailbox_Antique.jpg","4","0","1800"
"3","3","encoding","encoding","70","Ambulance.jpg","4","0","2127"
"3","3","encoding","encoding","71","ToothBrush.jpg","1","0","2128"
"3","3","encoding","encoding","72","Paddle_Bread.jpg","2","0","1791"
"3","3","encoding","encoding","73","Lantern_TeaBox.jpg","3","0","1682"
"3","3","encoding","encoding","74","Hook_Ceiling.jpg","3","0","1840"
"3","3","encoding","encoding","75","Screw.jpg","2","0","1701"
"3","3","encoding","encoding","76","ChalkboardEraser.jpg","3","0","1939"
"3","3","encoding","encoding","77","Mirror_Carside.jpg","4","0","2641"
"3","3","encoding","encoding","78","Strainer_Tea.jpg","0","0","3000"
"3","3","encoding","encoding","79","LampPost_WhiteOrnate.jpg","1","0","1695"
"3","3","encoding","encoding","80","Tambourine.jpg","5","0","1856"
"3","3","encoding","encoding","81","Candle_ChristmasDecor.jpg","5","0","2041"
"3","3","encoding","encoding","82","Belt.jpg","4","0","988"
"3","3","encoding","encoding","83","Bottle_Champagne.jpg","6","0","1642"
"3","3","encoding","encoding","84","FloorTile.jpg","2","0","1903"
"3","3","encoding","encoding","85","Toy_Wooden rings.jpg","3","0","1450"
"3","3","encoding","encoding","86","Hottub.jpg","6","0","2616"
"3","3","encoding","encoding","87","Crossbow.jpg","6","0","1455"
"3","3","encoding","encoding","88","Crutches.jpg","3","0","2101"
"3","3","encoding","encoding","89","Perfume.jpg","1","0","1874"
"3","3","encoding","encoding","90","Box_Vials.jpg","2","0","2243"
"3","3","encoding","encoding","91","Apple_Candy.jpg","6","0","2059"
"3","3","encoding","encoding","92","Ruler_Triangle.jpg","1","0","2172"
"3","3","encoding","encoding","93","Crackers_Ritz.jpg","2","0","1537"
"3","3","encoding","encoding","94","Scissors.jpg","5","0","1971"
"3","3","encoding","encoding","95","Compact_Powder.jpg","2","0","1835"
"3","3","encoding","encoding","96","Mop.jpg","2","0","2014"
"3","3","encoding","encoding","97","Plate_Wooden.jpg","1","0","1598"
"3","3","encoding","encoding","98","Scroll.jpg","2","0","1757"
"3","3","encoding","encoding","99","Handcuffs.jpg","7","0","1754"
"3","3","encoding","encoding","100","SeatBuckle.jpg","2","0","2213"
"3","3","encoding","encoding","101","CementFinisher.jpg","2","0","1734"
"3","3","encoding","encoding","102","WaterHeater.jpg","1","0","1863"
"3","3","encoding","encoding","103","Pen_Calligraphy.jpg","2","0","1701"
"3","3","encoding","encoding","104","Lettuce_GreenLeaf.jpg","3","0","2764"
"3","3","encoding","encoding","105","DartBoard.jpg","6","0","1619"
"3","3","encoding","encoding","106","MonkeyPuppet.jpg","4","0","2097"
"3","3","encoding","encoding","107","Case_Pencil.jpg","2","0","1562"
"3","3","encoding","encoding","108","Notepad.jpg","2","0","1556"
"3","3","encoding","encoding","109","Bottle_Spray.jpg","2","0","1715"
"3","3","encoding","encoding","110","Crib_Standard.jpg","2","0","2062"
"3","3","encoding","encoding","111","PotatoMasher_Grate.jpg","3","0","1448"
"3","3","encoding","encoding","112","Pretzel_Knot.jpg","3","0","1188"
"3","3","encoding","encoding","113","Candy_Cane.jpg","4","0","1997"
"3","3","encoding","encoding","114","Grape.jpg","4","0","1695"
"3","3","encoding","encoding","115","FireHydrant.jpg","2","0","1704"
"3","3","encoding","encoding","116","ComputerMouse.jpg","2","0","1076"
"3","3","encoding","encoding","117","Ruler_Wooden.jpg","1","0","1629"
"3","3","encoding","encoding","118","Light_Fixtures.jpg","1","0","1199"
"3","3","encoding","encoding","119","Pliers_ViceGrip.jpg","2","0","2409"
"3","3","encoding","encoding","120","Jack.jpg","2","0","1495"
"3","3","encoding","encoding","121","Spool_Thread.jpg","2","0","1025"
"3","3","encoding","encoding","123","Toy_RobotClassic.jpg","2","0","2052"
"3","3","encoding","encoding","124","Glass_Beer.jpg","3","0","1653"
"3","3","encoding","encoding","125","Clothespin_Red.jpg","3","0","1714"
"3","3","encoding","encoding","126","Cauliflower.jpg","3","0","1470"
"3","3","encoding","encoding","127","Printer.jpg","3","0","2436"
"3","3","encoding","encoding","128","DoorBell.jpg","2","0","2114"
"3","3","encoding","encoding","129","Grill_Electric.jpg","3","0","2624"
"3","3","encoding","encoding","130","Dress_Cocktail.jpg","1","0","2014"
"3","3","encoding","encoding","131","Nutcracker.jpg","5","0","2020"
"3","3","encoding","encoding","132","TurkeyDinner.jpg","6","0","2473"
"3","3","encoding","encoding","133","AirCompressor.jpg","4","0","2279"
"3","3","encoding","encoding","134","PharoahReplica.jpg","5","0","1620"
"3","3","encoding","encoding","135","Toy_FigurineEngineer.jpg","1","0","2040"
"3","3","encoding","encoding","136","Origami_Bird.jpg","1","0","1180"
"3","3","encoding","encoding","137","Exercise_Stretch.jpg","1","0","1442"
"3","3","encoding","encoding","138","Motorcycle.jpg","5","0","2028"
"3","3","encoding","encoding","139","Balcony.jpg","4","0","2109"
"3","3","encoding","encoding","140","Toy_DogBall.jpg","2","0","2560"
"3","3","encoding","encoding","141","RiceRaw.jpg","2","0","2033"
"3","3","encoding","encoding","142","Guacamole.jpg","2","0","1111"
"3","3","encoding","encoding","143","Cinnamonroll.jpg","6","0","2330"
"3","3","encoding","encoding","144","Hulahoop.jpg","6","0","1989"
"3","3","encoding","encoding","145","ShakerShekere.jpg","0","0","3000"
"3","3","encoding","encoding","146","Plate_Children.jpg","1","0","1772"
"3","3","encoding","encoding","147","Snake_Cobra.jpg","7","0","1664"
"3","3","encoding","encoding","148","Horn_Hunting.jpg","6","0","1757"
"3","3","encoding","encoding","149","Leaf_Clover.jpg","6","0","1917"
"3","3","encoding","encoding","150","Cross.jpg","6","0","1630"
"3","3","encoding","encoding","151","Staircase_Straight.jpg","1","0","1807"
"3","3","encoding","encoding","152","Trunk.jpg","5","0","2073"
"3","3","encoding","encoding","153","Mask_Viking.jpg","0","0","3000"
"3","3","encoding","encoding","154","DryingMachine.jpg","1","0","1609"
"3","3","encoding","encoding","155","Gauge.jpg","1","0","1845"
"3","3","encoding","encoding","156","Dill.jpg","1","0","1530"
"3","3","encoding","encoding","157","TeethMould.jpg","1","0","1962"
"3","3","encoding","encoding","158","Caterpillar.jpg","3","0","1734"
"3","3","encoding","encoding","159","SafetyPin.jpg","6","0","2388"
"3","3","encoding","encoding","160","DusterFeather.jpg","5","0","1551"
"3","3","encoding","encoding","161","Toy_DonkeyPlastic.jpg","3","0","1793"
"3","3","encoding","encoding","162","Branches_Campfire.jpg","5","0","2314"
"3","3","encoding","encoding","163","Necklace_Black.jpg","1","0","1908"
"3","3","encoding","encoding","164","Bus_School.jpg","1","0","1366"
"3","3","encoding","encoding","165","Toy_Lion.jpg","1","0","940"
"3","3","encoding","encoding","166","PlayerFootball.jpg","5","0","2157"
"3","3","encoding","encoding","167","Match.jpg","6","0","1953"
"3","3","encoding","encoding","168","PaintBrushAndPallette.jpg","6","0","1612"
"3","3","encoding","encoding","169","Bag_Groceries.jpg","4","0","1789"
"3","3","encoding","encoding","170","Chairs_Stacked.jpg","1","0","2553"
"3","3","encoding","encoding","171","Egg_Chocolate.jpg","3","0","2943"
"3","3","encoding","encoding","172","Backhoe.jpg","3","0","1230"
"3","3","encoding","encoding","173","Mug_Ceramic.jpg","1","0","1752"
"3","3","encoding","encoding","174","Crayon_Green.jpg","2","0","2330"
"3","3","encoding","encoding","175","PizzaCutter.jpg","3","0","2003"
"3","3","encoding","encoding","176","Lynx.jpg","7","0","2443"
"3","3","encoding","encoding","177","Lychee.jpg","4","0","1546"
"3","3","retrieval","new_objects","1","Jacks.jpg","37","1","1805"
"3","3","retrieval","new_objects","2","Cabasa.jpg","36","0","1395"
"3","3","retrieval","old_objects","3","Guacamole.jpg","36","1","864"
"3","3","retrieval","new_objects","4","SoundMixer_Blue.jpg","36","0","1039"
"3","3","retrieval","old_objects","5","Origami_Bird.jpg","36","1","896"
"3","3","retrieval","new_objects","6","Cornucopia.jpg","37","1","897"
"3","3","retrieval","new_objects","7","Pasta_Fusilli.jpg","37","1","724"
"3","3","retrieval","old_objects","8","Egg_Chocolate.jpg","36","1","738"
"3","3","retrieval","new_objects","9","Desk_White.jpg","37","1","966"
"3","3","retrieval","new_objects","10","Box_GiftTopView.jpg","37","1","766"
"3","3","retrieval","new_objects","11","TelephoneSwitchboard.jpg","37","1","1680"
"3","3","retrieval","new_objects","12","Pot_Cooking.jpg","37","1","995"
"3","3","retrieval","new_objects","13","Coatrack.jpg","37","1","859"
"3","3","retrieval","old_objects","14","Box_Vials.jpg","36","1","939"
"3","3","retrieval","new_objects","15","Bus_DoubleDecker.jpg","37","1","832"
"3","3","retrieval","new_objects","16","Keg.jpg","36","0","1114"
"3","3","retrieval","old_objects","17","ToothPaste.jpg","36","1","1580"
"3","3","retrieval","new_objects","18","Car_Vintage.jpg","37","1","1264"
"3","3","retrieval","old_objects","19","Grill_Electric.jpg","36","1","965"
"3","3","retrieval","new_objects","20","Spear.jpg","36","0","1259"
"3","3","retrieval","new_objects","21","TreeStump.jpg","37","1","1019"
"3","3","retrieval","new_objects","22","RecordPlayer.jpg","37","1","908"
"3","3","retrieval","new_objects","23","VGAport.jpg","37","1","1264"
"3","3","retrieval","old_objects","24","AirCompressor.jpg","36","1","834"
"3","3","retrieval","new_objects","25","ManholeCover.jpg","37","1","850"
"3","3","retrieval","old_objects","26","Plate_Ceramic.jpg","36","1","774"
"3","3","retrieval","new_objects","27","Loofa.jpg","36","0","795"
"3","3","retrieval","new_objects","28","Camel_Dromedary.jpg","37","1","927"
"3","3","retrieval","old_objects","29","Pear_Green.jpg","36","1","807"
"3","3","retrieval","old_objects","30","Clamp_Screw.jpg","36","1","716"
"3","3","retrieval","new_objects","31","Bowl_Chinese.jpg","37","1","1141"
"3","3","retrieval","old_objects","32","Glove_Rubber.jpg","36","1","952"
"3","3","retrieval","new_objects","33","PersonWooden.jpg","37","1","776"
"3","3","retrieval","old_objects","34","Weights_Dumbells.jpg","36","1","866"
"3","3","retrieval","new_objects","35","Lantern_Chinese.jpg","37","1","680"
"3","3","retrieval","old_objects","36","SeatBuckle.jpg","36","1","808"
"3","3","retrieval","old_objects","37","Grape.jpg","36","1","856"
"3","3","retrieval","old_objects","38","Switch_LightWhite.jpg","36","1","632"
"3","3","retrieval","old_objects","39","Mailbox_Antique.jpg","36","1","672"
"3","3","retrieval","old_objects","40","FireHydrant.jpg","36","1","900"
"3","3","retrieval","new_objects","41","ToothPick.jpg","37","1","838"
"3","3","retrieval","new_objects","42","HairCurler.jpg","37","1","1151"
"3","3","retrieval","old_objects","43","Sign_Wetfloor.jpg","36","1","1025"
"3","3","retrieval","old_objects","44","Toblerone.jpg","36","1","634"
"3","3","retrieval","new_objects","45","Artichoke.jpg","37","1","968"
"3","3","retrieval","new_objects","46","Icepick.jpg","37","1","1460"
"3","3","retrieval","old_objects","47","Squid_Pink.jpg","36","1","815"
"3","3","retrieval","new_objects","48","Nuts_Peanuts.jpg","37","1","750"
"3","3","retrieval","new_objects","49","Dart.jpg","36","0","997"
"3","3","retrieval","old_objects","50","Mirror_Carside.jpg","36","1","946"
"3","3","retrieval","old_objects","51","Plate_Wooden.jpg","36","1","745"
"3","3","retrieval","new_objects","52","Missile.jpg","37","1","829"
"3","3","retrieval","new_objects","53","PirateFlag.jpg","37","1","564"
"3","3","retrieval","old_objects","54","Caterpillar.jpg","36","1","545"
"3","3","retrieval","new_objects","55","Chicken_FriedDrum.jpg","37","1","699"
"3","3","retrieval","old_objects","56","Pen_Calligraphy.jpg","36","1","927"
"3","3","retrieval","new_objects","57","Pipette.jpg","37","1","920"
"3","3","retrieval","old_objects","58","Brush_Shoe.jpg","36","1","819"
"3","3","retrieval","old_objects","59","Socks_Baby.jpg","36","1","775"
"3","3","retrieval","old_objects","60","Dress_Cocktail.jpg","36","1","676"
"3","3","retrieval","old_objects","62","Spool_Thread.jpg","36","1","679"
"3","3","retrieval","old_objects","63","Magnifying_Glass.jpg","36","1","742"
"3","3","retrieval","old_objects","64","Belt.jpg","36","1","688"
"3","3","retrieval","old_objects","65","Toy_RobotClassic.jpg","36","1","668"
"3","3","retrieval","new_objects","66","Stool_Foot.jpg","37","1","719"
"3","3","retrieval","new_objects","67","TelescopeSpacecraft.jpg","37","1","1012"
"3","3","retrieval","new_objects","68","PyramidWooden.jpg","37","1","901"
"3","3","retrieval","new_objects","69","Broccoli.jpg","37","1","708"
"3","3","retrieval","old_objects","70","Skates.jpg","36","1","770"
"3","3","retrieval","new_objects","71","ChessPiece_Knight.jpg","37","1","757"
"3","3","retrieval","old_objects","72","Crayon_Green.jpg","36","1","949"
"3","3","retrieval","old_objects","73","PizzaCutter.jpg","36","1","595"
"3","3","retrieval","old_objects","74","Case_Pencil.jpg","36","1","599"
"3","3","retrieval","old_objects","75","Ruler_Triangle.jpg","36","1","770"
"3","3","retrieval","new_objects","76","Kangaroo.jpg","37","1","659"
"3","3","retrieval","old_objects","77","Lantern_TeaBox.jpg","36","1","714"
"3","3","retrieval","new_objects","78","Crown.jpg","37","1","665"
"3","3","retrieval","new_objects","79","Clock_Digital.jpg","37","1","829"
"3","3","retrieval","new_objects","80","Mask_Masquerade.jpg","37","1","836"
"3","3","retrieval","old_objects","81","Pliers_ViceGrip.jpg","36","1","850"
"3","3","retrieval","new_objects","82","Pot_TurkishCoffee.jpg","37","1","717"
"3","3","retrieval","new_objects","83","Shield_Antique.jpg","37","1","944"
"3","3","retrieval","old_objects","84","Wontons.jpg","37","0","783"
"3","3","retrieval","old_objects","85","ComputerMouse.jpg","36","1","814"
"3","3","retrieval","old_objects","86","Plate_Children.jpg","36","1","638"
"3","3","retrieval","old_objects","87","Lettuce_GreenLeaf.jpg","36","1","588"
"3","3","retrieval","new_objects","88","Chair_Dining.jpg","36","0","673"
"3","3","retrieval","new_objects","89","GasStation.jpg","37","1","773"
"3","3","retrieval","new_objects","90","ProcessorFood_Modern.jpg","37","1","948"
"3","3","retrieval","new_objects","91","Mask_CPR.jpg","37","1","686"
"3","3","retrieval","new_objects","92","Pepper_Chili.jpg","37","1","623"
"3","3","retrieval","new_objects","93","Earrings_Dangling.jpg","36","0","669"
"3","3","retrieval","new_objects","94","Bag_PaperWithFlour.jpg","36","0","967"
"3","3","retrieval","old_objects","95","WaterHeater.jpg","37","0","653"
"3","3","retrieval","old_objects","96","AngleGrinder.jpg","36","1","1062"
"3","3","retrieval","new_objects","97","Suspenders.jpg","36","0","1149"
"3","3","retrieval","new_objects","98","Brush_Shaving.jpg","37","1","694"
"3","3","retrieval","new_objects","99","Candleholder_LampShaped.jpg","36","0","1152"
"3","3","retrieval","old_objects","100","Bottle_Baby.jpg","36","1","696"
"3","3","retrieval","old_objects","101","Hook_Ceiling.jpg","36","1","831"
"3","3","retrieval","new_objects","102","Toy_Stroller.jpg","37","1","855"
"3","3","retrieval","new_objects","103","Cooler.jpg","37","1","835"
"3","3","retrieval","old_objects","104","Candle_ChristmasDecor.jpg","36","1","1056"
"3","3","retrieval","new_objects","105","Drink_Cocktail.jpg","37","1","670"
"3","3","retrieval","old_objects","106","PencilSharpener.jpg","36","1","983"
"3","3","retrieval","old_objects","107","BridgeWooden.jpg","36","1","625"
"3","3","retrieval","new_objects","108","Barrel_Wine.jpg","37","1","676"
"3","3","retrieval","new_objects","109","CasketOpen.jpg","37","1","760"
"3","3","retrieval","old_objects","110","Stingray.jpg","36","1","753"
"3","3","retrieval","old_objects","111","Toy_Lion.jpg","36","1","613"
"3","3","retrieval","new_objects","112","Carousel.jpg","37","1","773"
"3","3","retrieval","old_objects","113","Snail.jpg","36","1","764"
"3","3","retrieval","old_objects","114","Hottub.jpg","36","1","704"
"3","3","retrieval","new_objects","115","Crate_Wine.jpg","36","0","1022"
"3","3","retrieval","new_objects","116","Squash_Butternut.jpg","37","1","749"
"3","3","retrieval","new_objects","117","WireStripper.jpg","36","0","704"
"3","3","retrieval","old_objects","118","Pipe_Pitch.jpg","36","1","818"
"3","3","retrieval","old_objects","119","Compact_Powder.jpg","36","1","664"
"3","3","retrieval","old_objects","120","Thermos_Decorated.jpg","36","1","650"
"3","3","retrieval","new_objects","121","Pasta_Fettuccine.jpg","37","1","616"
"3","3","retrieval","new_objects","123","Pasta_Shell.jpg","36","0","1176"
"3","3","retrieval","new_objects","124","Bark.jpg","37","1","785"
"3","3","retrieval","old_objects","125","Camera_Antique.jpg","36","1","732"
"3","3","retrieval","new_objects","126","Hawk.jpg","37","1","649"
"3","3","retrieval","new_objects","127","Mask_HockeyGoalie.jpg","37","1","796"
"3","3","retrieval","new_objects","128","IceCubes copy.jpg","37","1","639"
"3","3","retrieval","new_objects","129","Cart_Wooden.jpg","37","1","571"
"3","3","retrieval","old_objects","130","Cinnamonroll.jpg","37","0","556"
"3","3","retrieval","old_objects","131","Table_Pool.jpg","36","1","647"
"3","3","retrieval","new_objects","132","Box_Present.jpg","36","0","561"
"3","3","retrieval","old_objects","133","CementFinisher.jpg","36","1","608"
"3","3","retrieval","old_objects","134","TurkeyDinner.jpg","36","1","644"
"3","3","retrieval","old_objects","135","TeethMould.jpg","36","1","547"
"3","3","retrieval","new_objects","136","Toy_Babydoll.jpg","37","1","576"
"3","3","retrieval","old_objects","137","ShakerShekere.jpg","36","1","871"
"3","3","retrieval","new_objects","138","Panda.jpg","37","1","702"
"3","3","retrieval","new_objects","139","Doll_Rag.jpg","36","0","566"
"3","3","retrieval","new_objects","140","OperaGlasses.jpg","37","1","826"
"3","3","retrieval","old_objects","141","Staircase_Straight.jpg","36","1","914"
"3","3","retrieval","new_objects","142","Jar_Honey.jpg","37","1","792"
"3","3","retrieval","new_objects","143","Toy_Slide.jpg","36","0","830"
"3","3","retrieval","old_objects","144","Crossbow.jpg","36","1","968"
"3","3","retrieval","old_objects","145","Toy_DogBall.jpg","36","1","618"
"3","3","retrieval","old_objects","146","ToothBrush.jpg","36","1","870"
"3","3","retrieval","new_objects","147","BookShelf.jpg","37","1","781"
"3","3","retrieval","new_objects","148","LightBulb_Christmas.jpg","36","0","1024"
"3","3","retrieval","new_objects","149","ConnectorPlug.jpg","36","0","850"
"3","3","retrieval","old_objects","150","Necklace_Black.jpg","36","1","689"
"3","3","retrieval","new_objects","151","PaperStack.jpg","37","1","960"
"3","3","retrieval","old_objects","152","Branches_Campfire.jpg","36","1","784"
"3","3","retrieval","new_objects","153","Truck_VintageBlue.jpg","37","1","868"
"3","3","retrieval","new_objects","154","Speaker_Computer.jpg","37","1","1322"
"3","3","retrieval","old_objects","155","PotatoMasher_Grate.jpg","36","1","746"
"3","3","retrieval","old_objects","156","Car_Sedan.jpg","36","1","642"
"3","3","retrieval","old_objects","157","Bottle_Champagne.jpg","36","1","584"
"3","3","retrieval","new_objects","158","Gloves_WhiteKnit.jpg","37","1","618"
"3","3","retrieval","new_objects","159","MusicSheet.jpg","37","1","744"
"3","3","retrieval","old_objects","160","Notepad.jpg","36","1","778"
"3","3","retrieval","old_objects","161","Bottle_Spray.jpg","36","1","843"
"3","3","retrieval","new_objects","162","Sign_TrafficArrow.jpg","37","1","625"
"3","3","retrieval","old_objects","163","Clothespin_Red.jpg","36","1","686"
"3","3","retrieval","new_objects","164","WindowBlinds.jpg","37","1","815"
"3","3","retrieval","new_objects","165","Lettuce_Iceberg.jpg","37","1","852"
"3","3","retrieval","old_objects","166","DartBoard.jpg","36","1","603"
"3","3","retrieval","old_objects","167","Scissors.jpg","36","1","656"
"3","3","retrieval","old_objects","168","Glass_Beer.jpg","36","1","795"
"3","3","retrieval","new_objects","169","USBKey.jpg","37","1","851"
"3","3","retrieval","new_objects","170","KnifeHolder.jpg","37","1","764"
"3","3","retrieval","new_objects","171","WindshieldWasherFluid.jpg","36","0","690"
"3","3","retrieval","new_objects","172","Boar.jpg","37","1","998"
"3","3","retrieval","new_objects","173","LeatherPuncherTool.jpg","37","1","901"
"3","3","retrieval","old_objects","174","Swan.jpg","36","1","650"
"3","3","retrieval","old_objects","175","Pretzel_Knot.jpg","36","1","1000"
"3","3","retrieval","old_objects","176","DoorBell.jpg","36","1","967"
"3","3","retrieval","new_objects","177","Paddle_Beach.jpg","37","1","564"
"3","3","retrieval","old_objects","178","ChewingGum.jpg","36","1","753"
"3","3","retrieval","old_objects","179","Bus_School.jpg","36","1","783"
"3","3","retrieval","new_objects","180","Thermostat.jpg","37","1","889"
"3","3","retrieval","new_objects","181","Toy_Tractor_1.jpg","37","1","974"
"3","3","retrieval","new_objects","182","Spoon_Baby.jpg","37","1","658"
"3","3","retrieval","old_objects","184","Mug_Ceramic.jpg","36","1","642"
"3","3","retrieval","old_objects","185","Lychee.jpg","36","1","773"
"3","3","retrieval","new_objects","186","IceCubes.jpg","36","0","696"
"3","3","retrieval","new_objects","187","Bible.jpg","37","1","626"
"3","3","retrieval","old_objects","188","Crib_Standard.jpg","36","1","755"
"3","3","retrieval","old_objects","189","SafetyPin.jpg","36","1","680"
"3","3","retrieval","old_objects","190","EspressoMachine.jpg","37","0","833"
"3","3","retrieval","old_objects","191","LifeJacket_Orangejpg.jpg","36","1","632"
"3","3","retrieval","new_objects","192","Telephone_Dial.jpg","37","1","619"
"3","3","retrieval","new_objects","193","Dog_ChowChow.jpg","37","1","875"
"3","3","retrieval","new_objects","194","Toy_Boat.jpg","37","1","864"
"3","3","retrieval","new_objects","195","Folder_Plastic.jpg","37","1","664"
"3","3","retrieval","old_objects","196","GingerbreadMan.jpg","36","1","742"
"3","3","retrieval","old_objects","197","DryRack_Clothes.jpg","36","1","720"
"3","3","retrieval","old_objects","198","Leaf_Clover.jpg","36","1","634"
"3","3","retrieval","new_objects","199","Kebab_Vegetables.jpg","37","1","629"
"3","3","retrieval","new_objects","200","CableConnecter.jpg","37","1","811"
"3","3","retrieval","new_objects","201","Eggplant.jpg","37","1","802"
"3","3","retrieval","old_objects","202","Fencing_HelmetSwords.jpg","36","1","773"
"3","3","retrieval","new_objects","203","Cookie.jpg","37","1","670"
"3","3","retrieval","old_objects","204","Scroll.jpg","36","1","781"
"3","3","retrieval","old_objects","205","Film_Roll.jpg","36","1","687"
"3","3","retrieval","new_objects","206","LightHouse.jpg","37","1","777"
"3","3","retrieval","old_objects","207","Toy_Wooden rings.jpg","36","1","665"
"3","3","retrieval","new_objects","208","Bandage_Wrap.jpg","37","1","733"
"3","3","retrieval","old_objects","209","Mask_Viking.jpg","37","0","655"
"3","3","retrieval","new_objects","210","Bandage_Adhesive.jpg","37","1","889"
"3","3","retrieval","old_objects","211","Balcony.jpg","36","1","809"
"3","3","retrieval","new_objects","212","Carrot.jpg","37","1","693"
"3","3","retrieval","old_objects","213","Handcuffs.jpg","36","1","688"
"3","3","retrieval","new_objects","214","Sign_Washroom.jpg","37","1","858"
"3","3","retrieval","new_objects","215","Shoe_Highheel.jpg","37","1","607"
"3","3","retrieval","old_objects","216","Match.jpg","36","1","929"
"3","3","retrieval","new_objects","217","PumpBreast.jpg","37","1","847"
"3","3","retrieval","old_objects","218","PaintBrushAndPallette.jpg","36","1","646"
"3","3","retrieval","new_objects","219","MatchBook.jpg","37","1","737"
"3","3","retrieval","old_objects","220","DiaperChangingStation.jpg","37","0","1056"
"3","3","retrieval","old_objects","221","Snowboard.jpg","36","1","931"
"3","3","retrieval","old_objects","222","Gauge.jpg","36","1","1029"
"3","3","retrieval","old_objects","223","Mop.jpg","36","1","733"
"3","3","retrieval","old_objects","224","Plum.jpg","36","1","1094"
"3","3","retrieval","new_objects","225","Donut.jpg","37","1","599"
"3","3","retrieval","old_objects","226","Crackers_Ritz.jpg","36","1","832"
"3","3","retrieval","new_objects","227","Lei.jpg","37","1","744"
"3","3","retrieval","old_objects","228","Perfume.jpg","36","1","874"
"3","3","retrieval","old_objects","229","DivingBoard.jpg","37","0","854"
"3","3","retrieval","new_objects","230","Sign_Parking.jpg","37","1","759"
"3","3","retrieval","new_objects","231","Bag_Hand.jpg","37","1","723"
"3","3","retrieval","old_objects","232","Tetrahedron.jpg","36","1","625"
"3","3","retrieval","old_objects","233","DayPlanner.jpg","36","1","613"
"3","3","retrieval","new_objects","234","HairDryer.jpg","37","1","669"
"3","3","retrieval","old_objects","235","Light_Fixtures.jpg","37","0","712"
"3","3","retrieval","new_objects","236","AirVent.jpg","37","1","863"
"3","3","retrieval","old_objects","237","Bicycle_Kids.jpg","36","1","781"
"3","3","retrieval","new_objects","238","Brush_Windshield.jpg","37","1","840"
"3","3","retrieval","new_objects","239","Spatula_1.jpg","37","1","683"
"3","3","retrieval","new_objects","240","Yarmulke.jpg","37","1","588"
"3","3","retrieval","old_objects","241","ChalkboardEraser.jpg","36","1","633"
"3","3","retrieval","new_objects","242","Box_Cutlery.jpg","37","1","785"
"3","3","retrieval","old_objects","243","FloorTile.jpg","36","1","694"
"3","3","retrieval","new_objects","245","Seal_Toy.jpg","37","1","963"
"3","3","retrieval","old_objects","246","Nutcracker.jpg","36","1","608"
"3","3","retrieval","new_objects","247","Helmet_Bicycle.jpg","37","1","839"
"3","3","retrieval","old_objects","248","Bugle.jpg","36","1","680"
"3","3","retrieval","old_objects","249","Apple_Candy.jpg","36","1","666"
"3","3","retrieval","old_objects","250","Toy_FigurineSwing.jpg","37","0","780"
"3","3","retrieval","new_objects","251","Hotdog_WithBun.jpg","37","1","685"
"3","3","retrieval","new_objects","252","Ferret.jpg","37","1","715"
"3","3","retrieval","old_objects","253","PlayerFootball.jpg","36","1","761"
"3","3","retrieval","old_objects","254","Embosser.jpg","37","0","731"
"3","3","retrieval","old_objects","255","ShearsGarden.jpg","37","0","596"
"3","3","retrieval","new_objects","256","Toy_PoliceCar.jpg","36","0","620"
"3","3","retrieval","old_objects","257","Toy_Witch.jpg","36","1","1068"
"3","3","retrieval","old_objects","258","Candy_Cane.jpg","36","1","719"
"3","3","retrieval","old_objects","259","Ruler_Wooden.jpg","36","1","790"
"3","3","retrieval","new_objects","260","Chair_PlasticGreen.jpg","37","1","659"
"3","3","retrieval","old_objects","261","DusterFeather.jpg","36","1","826"
"3","3","retrieval","old_objects","262","Jack.jpg","36","1","580"
"3","3","retrieval","new_objects","263","Stick_Honey.jpg","36","0","806"
"3","3","retrieval","old_objects","264","Trunk.jpg","36","1","704"
"3","3","retrieval","new_objects","265","SkiPoles.jpg","36","0","811"
"3","3","retrieval","new_objects","266","Binder.jpg","37","1","634"
"3","3","retrieval","new_objects","267","Pot_CastIron.jpg","36","0","701"
"3","3","retrieval","new_objects","268","Toy_Taxi.jpg","37","1","577"
"3","3","retrieval","old_objects","269","Drum_Ramadan.jpg","37","0","582"
"3","3","retrieval","old_objects","270","Makeup_Compact.jpg","36","1","988"
"3","3","retrieval","new_objects","271","Toad.jpg","37","1","1105"
"3","3","retrieval","new_objects","272","WalkieTalkie_Red.jpg","37","1","768"
"3","3","retrieval","new_objects","273","Domino.jpg","37","1","690"
"3","3","retrieval","old_objects","274","Motorcycle.jpg","36","1","800"
"3","3","retrieval","old_objects","275","WateringCan_Antique.jpg","36","1","599"
"3","3","retrieval","new_objects","276","Fridge.jpg","37","1","676"
"3","3","retrieval","new_objects","277","GPS.jpg","37","1","747"
"3","3","retrieval","old_objects","278","Tambourine.jpg","37","0","865"
"3","3","retrieval","new_objects","279","Toy_RobotTransformer.jpg","37","1","778"
"3","3","retrieval","new_objects","280","Chair_Office.jpg","37","1","727"
"3","3","retrieval","old_objects","281","Exercise_Stretch.jpg","36","1","774"
"3","3","retrieval","old_objects","282","Cross.jpg","36","1","578"
"3","3","retrieval","old_objects","283","Sink_Bathroom.jpg","36","1","659"
"3","3","retrieval","new_objects","284","CoffeePot.jpg","37","1","1226"
"3","3","retrieval","new_objects","285","Pot_BlackOld.jpg","36","0","699"
"3","3","retrieval","old_objects","286","Screw.jpg","36","1","637"
"3","3","retrieval","old_objects","287","Toy_DonkeyPlastic.jpg","36","1","667"
"3","3","retrieval","new_objects","288","Sculpture_MetalMan.jpg","37","1","698"
"3","3","retrieval","old_objects","289","Backhoe.jpg","37","0","994"
"3","3","retrieval","old_objects","290","Toy_Train.jpg","36","1","862"
"3","3","retrieval","old_objects","291","Bag_Groceries.jpg","36","1","622"
"3","3","retrieval","old_objects","292","Trumpet.jpg","36","1","864"
"3","3","retrieval","new_objects","293","Corn_Kernels.jpg","37","1","610"
"3","3","retrieval","new_objects","294","Glass_Bowl.jpg","37","1","793"
"3","3","retrieval","old_objects","295","Cauliflower.jpg","36","1","582"
"3","3","retrieval","old_objects","296","PharoahReplica.jpg","36","1","730"
"3","3","retrieval","new_objects","297","Drum_Tall.jpg","37","1","858"
"3","3","retrieval","new_objects","298","Toy_Firetruck.jpg","37","1","989"
"3","3","retrieval","new_objects","299","Briefcase_Open.jpg","37","1","745"
"3","3","retrieval","old_objects","300","Ambulance.jpg","36","1","807"
"3","3","retrieval","old_objects","301","Outhouse.jpg","36","1","650"
"3","3","retrieval","old_objects","302","Bottle_Wine.jpg","36","1","603"
"3","3","retrieval","old_objects","303","Lynx.jpg","37","0","600"
"3","3","retrieval","old_objects","304","ShoppingCart.jpg","36","1","973"
"3","3","retrieval","new_objects","306","TomatoSauce.jpg","37","1","1101"
"3","3","retrieval","new_objects","307","Sign_SlipperyRoad.jpg","36","0","808"
"3","3","retrieval","new_objects","308","Bird_Eagle.jpg","36","0","976"
"3","3","retrieval","new_objects","309","ProjectorScreen.jpg","37","1","786"
"3","3","retrieval","new_objects","310","Mixer_Cement.jpg","37","1","867"
"3","3","retrieval","old_objects","311","LampPost_WhiteOrnate.jpg","37","0","672"
"3","3","retrieval","old_objects","312","Strainer_Tea.jpg","36","1","892"
"3","3","retrieval","new_objects","313","Toy_BlocksLetter.jpg","37","1","759"
"3","3","retrieval","old_objects","314","Dill.jpg","36","1","947"
"3","3","retrieval","new_objects","315","EyeChart.jpg","36","0","1158"
"3","3","retrieval","new_objects","316","Bowtie.jpg","37","1","699"
"3","3","retrieval","new_objects","317","Fan_Ceiling.jpg","37","1","1030"
"3","3","retrieval","old_objects","318","DryingMachine.jpg","36","1","966"
"3","3","retrieval","old_objects","319","Tray_Muffin.jpg","36","1","691"
"3","3","retrieval","old_objects","320","Clave.jpg","36","1","633"
"3","3","retrieval","old_objects","321","Jar_Strawberry.jpg","36","1","948"
"3","3","retrieval","old_objects","322","RiceRaw.jpg","36","1","609"
"3","3","retrieval","old_objects","323","Snake_Cobra.jpg","36","1","663"
"3","3","retrieval","new_objects","324","Bagpipes.jpg","36","0","787"
"3","3","retrieval","new_objects","325","Razor.jpg","37","1","709"
"3","3","retrieval","new_objects","326","Cherry.jpg","36","0","668"
"3","3","retrieval","old_objects","327","Battery_AA.jpg","36","1","971"
"3","3","retrieval","old_objects","328","Printer.jpg","36","1","743"
"3","3","retrieval","old_objects","329","Flashlight.jpg","37","0","760"
"3","3","retrieval","old_objects","330","Crutches.jpg","36","1","686"
"3","3","retrieval","old_objects","331","MonkeyPuppet.jpg","36","1","598"
"3","3","retrieval","new_objects","332","PillBottle_Closed.jpg","37","1","624"
"3","3","retrieval","new_objects","333","Parcel.jpg","36","0","655"
"3","3","retrieval","new_objects","334","Peach.jpg","37","1","779"
"3","3","retrieval","old_objects","335","Horn_Hunting.jpg","36","1","664"
"3","3","retrieval","new_objects","336","SpaceShuttle.jpg","37","1","743"
"3","3","retrieval","old_objects","337","Fuse.jpg","37","0","901"
"3","3","retrieval","new_objects","338","Case_Leather.jpg","37","1","709"
"3","3","retrieval","new_objects","339","Noose.jpg","36","0","647"
"3","3","retrieval","old_objects","340","Pot_FlowerClay.jpg","36","1","713"
"3","3","retrieval","old_objects","341","Box_FirstAid.jpg","36","1","709"
"3","3","retrieval","old_objects","342","Chairs_Stacked.jpg","37","0","587"
"3","3","retrieval","old_objects","343","Dress_Blue.jpg","36","1","552"
"3","3","retrieval","new_objects","344","Flute_Tin.jpg","37","1","811"
"3","3","retrieval","new_objects","345","Hay.jpg","37","1","1048"
"3","3","retrieval","old_objects","346","Paddle_Bread.jpg","36","1","958"
"3","3","retrieval","old_objects","347","Hulahoop.jpg","36","1","772"
"3","3","retrieval","old_objects","348","PoliceTape.jpg","36","1","708"
"3","3","retrieval","new_objects","349","Cleaver_Meat.jpg","37","1","815"
"3","3","retrieval","new_objects","350","Fork_Regular.jpg","37","1","759"
"3","3","retrieval","new_objects","351","NetButterfly.jpg","37","1","803"
"3","3","retrieval","old_objects","352","Toy_FigurineEngineer.jpg","36","1","792"
"3","3","retrieval","old_objects","353","Clip_Chip.jpg","36","1","598"
"3","3","retrieval","old_objects","354","Shoes_Snow.jpg","36","1","579"
"3","3","retrieval","new_objects","355","Plate_Decorative.jpg","37","1","879"
"3","3","demographics_block","gender","1","Plate_Decorative.jpg","female","1","19701"
"3","3","demographics_block","age","1","Plate_Decorative.jpg","36","1","19701"
"3","3","demographics_block","education","1","Plate_Decorative.jpg","16","1","19701"
"3","3","demographics_block","left_right_handed","2","Plate_Decorative.jpg","Right","1","9312"
"3","3","demographics_block","raceoption1","2","Plate_Decorative.jpg","0","1","9312"
"3","3","demographics_block","raceoption2","2","Plate_Decorative.jpg","","1","9312"
"3","3","demographics_block","raceoption3","2","Plate_Decorative.jpg","","1","9312"
"3","3","demographics_block","raceoption4","2","Plate_Decorative.jpg","","1","9312"
"3","3","demographics_block","raceoption5","2","Plate_Decorative.jpg","","1","9312"
"3","3","demographics_block","raceoption6","2","Plate_Decorative.jpg","","1","9312"
"3","3","demographics_block","raceoption7","2","Plate_Decorative.jpg","","1","9312"
"3","3","demographics_block","raceoption8","2","Plate_Decorative.jpg","","1","9312"
"3","3","demographics_block","raceoption9","2","Plate_Decorative.jpg","","1","9312"
"3","3","demographics_block","raceother","2","Plate_Decorative.jpg","","1","9312"
"3","3","demographics_block","raceother","2","Plate_Decorative.jpg","","1","9312"
"3","3","demographics_block","english_language","2","Plate_Decorative.jpg","Yes","1","9312"
"3","3","demographics_block","english_languageother","2","Plate_Decorative.jpg","","1","9312"
"3","3","demographics_block","eyesight","3","Plate_Decorative.jpg","Yes","1","11239"
"3","3","demographics_block","colorblind","3","Plate_Decorative.jpg","No","1","11239"
"3","3","worker_id_block","worker_id_textbox","1","Plate_Decorative.jpg","A376MIL4CLLH8R","1","9790"
"4","4","encoding","encoding","1","PlayerFootball.jpg","2","0","2347"
"4","4","encoding","encoding","2","Pretzel_Knot.jpg","6","0","1737"
"4","4","encoding","encoding","3","Plum.jpg","4","0","2356"
"4","4","encoding","encoding","4","Compact_Powder.jpg","2","0","1616"
"4","4","encoding","encoding","5","Belt.jpg","1","0","1852"
"4","4","encoding","encoding","6","Makeup_Compact.jpg","2","0","1689"
"4","4","encoding","encoding","7","Spool_Thread.jpg","1","0","1779"
"4","4","encoding","encoding","8","Pear_Green.jpg","4","0","2112"
"4","4","encoding","encoding","9","ToothBrush.jpg","1","0","2108"
"4","4","encoding","encoding","10","Bus_School.jpg","1","0","807"
"4","4","encoding","encoding","11","AngleGrinder.jpg","1","0","1654"
"4","4","encoding","encoding","12","Lantern_TeaBox.jpg","5","0","2263"
"4","4","encoding","encoding","13","DivingBoard.jpg","7","0","2092"
"4","4","encoding","encoding","14","PizzaCutter.jpg","5","0","2295"
"4","4","encoding","encoding","15","Hook_Ceiling.jpg","5","0","2171"
"4","4","encoding","encoding","16","Strainer_Tea.jpg","3","0","1975"
"4","4","encoding","encoding","17","Toy_FigurineSwing.jpg","4","0","2387"
"4","4","encoding","encoding","18","Scissors.jpg","4","0","1575"
"4","4","encoding","encoding","19","Candy_Cane.jpg","6","0","2059"
"4","4","encoding","encoding","20","RiceRaw.jpg","5","0","2062"
"4","4","encoding","encoding","21","DoorBell.jpg","3","0","2227"
"4","4","encoding","encoding","22","Crossbow.jpg","7","0","1854"
"4","4","encoding","encoding","23","PotatoMasher_Grate.jpg","7","0","1282"
"4","4","encoding","encoding","24","Necklace_Black.jpg","6","0","1903"
"4","4","encoding","encoding","25","MonkeyPuppet.jpg","7","0","1164"
"4","4","encoding","encoding","26","Notepad.jpg","5","0","2414"
"4","4","encoding","encoding","27","Exercise_Stretch.jpg","4","0","2466"
"4","4","encoding","encoding","28","Staircase_Straight.jpg","6","0","1749"
"4","4","encoding","encoding","29","Leaf_Clover.jpg","7","0","1425"
"4","4","encoding","encoding","30","Jar_Strawberry.jpg","7","0","1476"
"4","4","encoding","encoding","31","Lynx.jpg","7","0","1249"
"4","4","encoding","encoding","32","Crutches.jpg","5","0","1764"
"4","4","encoding","encoding","33","Bottle_Baby.jpg","2","0","1712"
"4","4","encoding","encoding","34","Origami_Bird.jpg","1","0","2036"
"4","4","encoding","encoding","35","WaterHeater.jpg","3","0","2711"
"4","4","encoding","encoding","36","Outhouse.jpg","2","0","1828"
"4","4","encoding","encoding","37","ChalkboardEraser.jpg","1","0","2872"
"4","4","encoding","encoding","38","Paddle_Bread.jpg","6","0","2531"
"4","4","encoding","encoding","39","Printer.jpg","6","0","1975"
"4","4","encoding","encoding","40","Drum_Ramadan.jpg","7","0","1387"
"4","4","encoding","encoding","41","Flashlight.jpg","7","0","1250"
"4","4","encoding","encoding","42","Plate_Children.jpg","2","0","2052"
"4","4","encoding","encoding","43","Bottle_Wine.jpg","7","0","1577"
"4","4","encoding","encoding","44","Grape.jpg","7","0","1039"
"4","4","encoding","encoding","45","DiaperChangingStation.jpg","1","0","2227"
"4","4","encoding","encoding","46","Gauge.jpg","1","0","2101"
"4","4","encoding","encoding","47","Skates.jpg","3","0","2216"
"4","4","encoding","encoding","48","SeatBuckle.jpg","1","0","2252"
"4","4","encoding","encoding","49","Caterpillar.jpg","2","0","2080"
"4","4","encoding","encoding","50","Bottle_Champagne.jpg","7","0","1836"
"4","4","encoding","encoding","51","FloorTile.jpg","4","0","1688"
"4","4","encoding","encoding","52","Toy_Lion.jpg","5","0","2476"
"4","4","encoding","encoding","53","Lychee.jpg","1","0","2327"
"4","4","encoding","encoding","54","ShoppingCart.jpg","1","0","1492"
"4","4","encoding","encoding","55","Crib_Standard.jpg","1","0","728"
"4","4","encoding","encoding","56","BridgeWooden.jpg","1","0","1399"
"4","4","encoding","encoding","57","Jack.jpg","6","0","2400"
"4","4","encoding","encoding","58","Bugle.jpg","7","0","1940"
"4","4","encoding","encoding","59","EspressoMachine.jpg","2","0","2264"
"4","4","encoding","encoding","60","Match.jpg","4","0","1444"
"4","4","encoding","encoding","62","Bicycle_Kids.jpg","6","0","1659"
"4","4","encoding","encoding","63","Tray_Muffin.jpg","7","0","1639"
"4","4","encoding","encoding","64","Nutcracker.jpg","5","0","1747"
"4","4","encoding","encoding","65","Mailbox_Antique.jpg","5","0","1687"
"4","4","encoding","encoding","66","PencilSharpener.jpg","1","0","2331"
"4","4","encoding","encoding","67","Handcuffs.jpg","1","0","1543"
"4","4","encoding","encoding","68","Cauliflower.jpg","1","0","943"
"4","4","encoding","encoding","69","Toy_DogBall.jpg","1","0","1371"
"4","4","encoding","encoding","70","Mug_Ceramic.jpg","2","0","2430"
"4","4","encoding","encoding","71","Dress_Blue.jpg","5","0","1996"
"4","4","encoding","encoding","72","SafetyPin.jpg","3","0","2094"
"4","4","encoding","encoding","73","Box_Vials.jpg","0","0","3000"
"4","4","encoding","encoding","74","ChewingGum.jpg","5","0","2333"
"4","4","encoding","encoding","75","CementFinisher.jpg","2","0","2185"
"4","4","encoding","encoding","76","Horn_Hunting.jpg","7","0","2253"
"4","4","encoding","encoding","77","Glass_Beer.jpg","5","0","2065"
"4","4","encoding","encoding","78","Plate_Wooden.jpg","3","0","2156"
"4","4","encoding","encoding","79","Bag_Groceries.jpg","7","0","1776"
"4","4","encoding","encoding","80","TeethMould.jpg","1","0","2532"
"4","4","encoding","encoding","81","ShakerShekere.jpg","4","0","2976"
"4","4","encoding","encoding","82","TurkeyDinner.jpg","0","0","3000"
"4","4","encoding","encoding","83","Hottub.jpg","7","0","1701"
"4","4","encoding","encoding","84","Balcony.jpg","5","0","2129"
"4","4","encoding","encoding","85","Toy_DonkeyPlastic.jpg","4","0","2034"
"4","4","encoding","encoding","86","Snake_Cobra.jpg","2","0","1630"
"4","4","encoding","encoding","87","AirCompressor.jpg","6","0","1436"
"4","4","encoding","encoding","88","Snowboard.jpg","1","0","2360"
"4","4","encoding","encoding","89","Case_Pencil.jpg","1","0","1322"
"4","4","encoding","encoding","90","DayPlanner.jpg","2","0","2022"
"4","4","encoding","encoding","91","Car_Sedan.jpg","5","0","1609"
"4","4","encoding","encoding","92","Cinnamonroll.jpg","7","0","1613"
"4","4","encoding","encoding","93","LampPost_WhiteOrnate.jpg","6","0","1937"
"4","4","encoding","encoding","94","ShearsGarden.jpg","6","0","1317"
"4","4","encoding","encoding","95","Motorcycle.jpg","3","0","1705"
"4","4","encoding","encoding","96","Candle_ChristmasDecor.jpg","6","0","1684"
"4","4","encoding","encoding","97","Ruler_Triangle.jpg","1","0","2105"
"4","4","encoding","encoding","98","DryingMachine.jpg","3","0","1731"
"4","4","encoding","encoding","99","Crayon_Green.jpg","5","0","1871"
"4","4","encoding","encoding","100","DusterFeather.jpg","6","0","1971"
"4","4","encoding","encoding","101","WateringCan_Antique.jpg","7","0","1703"
"4","4","encoding","encoding","102","PoliceTape.jpg","1","0","1610"
"4","4","encoding","encoding","103","Toy_Wooden rings.jpg","1","0","1254"
"4","4","encoding","encoding","104","Perfume.jpg","6","0","1523"
"4","4","encoding","encoding","105","Trumpet.jpg","7","0","1278"
"4","4","encoding","encoding","106","Toy_FigurineEngineer.jpg","1","0","1866"
"4","4","encoding","encoding","107","Plate_Ceramic.jpg","6","0","1646"
"4","4","encoding","encoding","108","Screw.jpg","5","0","2218"
"4","4","encoding","encoding","109","Light_Fixtures.jpg","6","0","1470"
"4","4","encoding","encoding","110","PaintBrushAndPallette.jpg","7","0","1633"
"4","4","encoding","encoding","111","Crackers_Ritz.jpg","5","0","1606"
"4","4","encoding","encoding","112","ToothPaste.jpg","3","0","2575"
"4","4","encoding","encoding","113","FireHydrant.jpg","5","0","1673"
"4","4","encoding","encoding","114","Clamp_Screw.jpg","6","0","1541"
"4","4","encoding","encoding","115","Cross.jpg","4","0","1911"
"4","4","encoding","encoding","116","Thermos_Decorated.jpg","2","0","1795"
"4","4","encoding","encoding","117","PharoahReplica.jpg","5","0","1823"
"4","4","encoding","encoding","118","Box_FirstAid.jpg","1","0","1523"
"4","4","encoding","encoding","119","Toy_Witch.jpg","6","0","1863"
"4","4","encoding","encoding","120","Chairs_Stacked.jpg","4","0","2083"
"4","4","encoding","encoding","121","Pliers_ViceGrip.jpg","6","0","1606"
"4","4","encoding","encoding","123","GingerbreadMan.jpg","7","0","1834"
"4","4","encoding","encoding","124","Pot_FlowerClay.jpg","6","0","1638"
"4","4","encoding","encoding","125","Socks_Baby.jpg","2","0","1323"
"4","4","encoding","encoding","126","Egg_Chocolate.jpg","7","0","1209"
"4","4","encoding","encoding","127","Toy_Train.jpg","2","0","1819"
"4","4","encoding","encoding","128","Clothespin_Red.jpg","1","0","2014"
"4","4","encoding","encoding","129","Wontons.jpg","1","0","1915"
"4","4","encoding","encoding","130","Switch_LightWhite.jpg","1","0","1510"
"4","4","encoding","encoding","131","Grill_Electric.jpg","1","0","1978"
"4","4","encoding","encoding","132","Clave.jpg","5","0","1877"
"4","4","encoding","encoding","133","Fencing_HelmetSwords.jpg","7","0","1329"
"4","4","encoding","encoding","134","ComputerMouse.jpg","2","0","1469"
"4","4","encoding","encoding","135","Camera_Antique.jpg","5","0","1865"
"4","4","encoding","encoding","136","Battery_AA.jpg","1","0","2253"
"4","4","encoding","encoding","137","Backhoe.jpg","7","0","1593"
"4","4","encoding","encoding","138","Dress_Cocktail.jpg","6","0","1821"
"4","4","encoding","encoding","139","Apple_Candy.jpg","1","0","1449"
"4","4","encoding","encoding","140","Weights_Dumbells.jpg","1","0","1621"
"4","4","encoding","encoding","141","Mop.jpg","1","0","616"
"4","4","encoding","encoding","142","Dill.jpg","3","0","2423"
"4","4","encoding","encoding","143","Bottle_Spray.jpg","2","0","1800"
"4","4","encoding","encoding","144","DartBoard.jpg","6","0","1444"
"4","4","encoding","encoding","145","Sign_Wetfloor.jpg","1","0","1632"
"4","4","encoding","encoding","146","Lettuce_GreenLeaf.jpg","5","0","1660"
"4","4","encoding","encoding","147","Mask_Viking.jpg","6","0","1760"
"4","4","encoding","encoding","148","Mirror_Carside.jpg","2","0","1403"
"4","4","encoding","encoding","149","Table_Pool.jpg","7","0","1704"
"4","4","encoding","encoding","150","Stingray.jpg","6","0","2268"
"4","4","encoding","encoding","151","Toy_RobotClassic.jpg","4","0","2199"
"4","4","encoding","encoding","152","Glove_Rubber.jpg","1","0","1555"
"4","4","encoding","encoding","153","Magnifying_Glass.jpg","1","0","1447"
"4","4","encoding","encoding","154","Trunk.jpg","7","0","1427"
"4","4","encoding","encoding","155","Swan.jpg","5","0","1775"
"4","4","encoding","encoding","156","Fuse.jpg","2","0","1585"
"4","4","encoding","encoding","157","Pen_Calligraphy.jpg","4","0","2151"
"4","4","encoding","encoding","158","Film_Roll.jpg","7","0","2250"
"4","4","encoding","encoding","159","Hulahoop.jpg","5","0","1797"
"4","4","encoding","encoding","160","Pipe_Pitch.jpg","1","0","1801"
"4","4","encoding","encoding","161","Brush_Shoe.jpg","1","0","2165"
"4","4","encoding","encoding","162","Sink_Bathroom.jpg","1","0","1808"
"4","4","encoding","encoding","163","Snail.jpg","6","0","1508"
"4","4","encoding","encoding","164","Tetrahedron.jpg","5","0","1825"
"4","4","encoding","encoding","165","Squid_Pink.jpg","7","0","2205"
"4","4","encoding","encoding","166","Branches_Campfire.jpg","7","0","1969"
"4","4","encoding","encoding","167","DryRack_Clothes.jpg","1","0","2060"
"4","4","encoding","encoding","168","Clip_Chip.jpg","1","0","992"
"4","4","encoding","encoding","169","Embosser.jpg","1","0","1812"
"4","4","encoding","encoding","170","Ambulance.jpg","1","0","2024"
"4","4","encoding","encoding","171","Shoes_Snow.jpg","5","0","1598"
"4","4","encoding","encoding","172","Scroll.jpg","6","0","1775"
"4","4","encoding","encoding","173","Guacamole.jpg","1","0","2105"
"4","4","encoding","encoding","174","Toblerone.jpg","7","0","2149"
"4","4","encoding","encoding","175","LifeJacket_Orangejpg.jpg","2","0","2881"
"4","4","encoding","encoding","176","Tambourine.jpg","5","0","1548"
"4","4","encoding","encoding","177","Ruler_Wooden.jpg","1","0","1865"
"4","4","retrieval","new_objects","1","LightHouse.jpg","36","0","1755"
"4","4","retrieval","new_objects","2","Crown.jpg","36","0","814"
"4","4","retrieval","new_objects","3","Car_Vintage.jpg","37","1","1255"
"4","4","retrieval","old_objects","4","Mop.jpg","36","1","838"
"4","4","retrieval","new_objects","5","AirVent.jpg","37","1","965"
"4","4","retrieval","old_objects","6","DivingBoard.jpg","36","1","1127"
"4","4","retrieval","new_objects","7","Cleaver_Meat.jpg","36","0","1435"
"4","4","retrieval","new_objects","8","Toy_BlocksLetter.jpg","37","1","859"
"4","4","retrieval","new_objects","9","Toy_Babydoll.jpg","37","1","745"
"4","4","retrieval","old_objects","10","Pliers_ViceGrip.jpg","36","1","836"
"4","4","retrieval","old_objects","11","Table_Pool.jpg","36","1","884"
"4","4","retrieval","old_objects","12","Bottle_Champagne.jpg","36","1","785"
"4","4","retrieval","old_objects","13","SafetyPin.jpg","36","1","739"
"4","4","retrieval","old_objects","14","CementFinisher.jpg","36","1","822"
"4","4","retrieval","new_objects","15","Box_Cutlery.jpg","37","1","718"
"4","4","retrieval","new_objects","16","SpaceShuttle.jpg","37","1","1202"
"4","4","retrieval","old_objects","17","PizzaCutter.jpg","36","1","811"
"4","4","retrieval","new_objects","18","Chicken_FriedDrum.jpg","37","1","691"
"4","4","retrieval","old_objects","19","Snake_Cobra.jpg","36","1","904"
"4","4","retrieval","new_objects","20","Bus_DoubleDecker.jpg","37","1","757"
"4","4","retrieval","old_objects","21","Match.jpg","36","1","1156"
"4","4","retrieval","old_objects","22","Bottle_Spray.jpg","36","1","805"
"4","4","retrieval","old_objects","23","Origami_Bird.jpg","36","1","640"
"4","4","retrieval","old_objects","24","Toy_DonkeyPlastic.jpg","36","1","791"
"4","4","retrieval","old_objects","25","Perfume.jpg","36","1","777"
"4","4","retrieval","new_objects","26","PaperStack.jpg","37","1","1338"
"4","4","retrieval","old_objects","27","PencilSharpener.jpg","36","1","870"
"4","4","retrieval","old_objects","28","Tetrahedron.jpg","36","1","668"
"4","4","retrieval","old_objects","29","Crutches.jpg","36","1","1170"
"4","4","retrieval","old_objects","30","Lantern_TeaBox.jpg","36","1","941"
"4","4","retrieval","old_objects","31","Cross.jpg","36","1","760"
"4","4","retrieval","old_objects","32","Plate_Wooden.jpg","36","1","826"
"4","4","retrieval","old_objects","33","Sink_Bathroom.jpg","36","1","1098"
"4","4","retrieval","old_objects","34","Nutcracker.jpg","36","1","911"
"4","4","retrieval","new_objects","35","ToothPick.jpg","37","1","835"
"4","4","retrieval","new_objects","36","Pasta_Fettuccine.jpg","37","1","707"
"4","4","retrieval","new_objects","37","Toy_Taxi.jpg","37","1","639"
"4","4","retrieval","old_objects","38","Cauliflower.jpg","36","1","822"
"4","4","retrieval","new_objects","39","Parcel.jpg","37","1","894"
"4","4","retrieval","old_objects","40","PotatoMasher_Grate.jpg","36","1","987"
"4","4","retrieval","old_objects","41","Socks_Baby.jpg","36","1","677"
"4","4","retrieval","new_objects","42","WindshieldWasherFluid.jpg","37","1","794"
"4","4","retrieval","new_objects","43","Chair_Office.jpg","37","1","1003"
"4","4","retrieval","old_objects","44","Notepad.jpg","36","1","836"
"4","4","retrieval","new_objects","45","Razor.jpg","37","1","891"
"4","4","retrieval","new_objects","46","Cherry.jpg","37","1","712"
"4","4","retrieval","new_objects","47","Carrot.jpg","37","1","716"
"4","4","retrieval","new_objects","48","Bagpipes.jpg","37","1","792"
"4","4","retrieval","old_objects","49","ComputerMouse.jpg","36","1","873"
"4","4","retrieval","new_objects","50","Yarmulke.jpg","37","1","631"
"4","4","retrieval","old_objects","51","Apple_Candy.jpg","36","1","838"
"4","4","retrieval","old_objects","52","Bicycle_Kids.jpg","36","1","894"
"4","4","retrieval","old_objects","53","Embosser.jpg","36","1","980"
"4","4","retrieval","old_objects","54","Trumpet.jpg","36","1","954"
"4","4","retrieval","old_objects","55","Mug_Ceramic.jpg","36","1","1061"
"4","4","retrieval","new_objects","56","Carousel.jpg","37","1","932"
"4","4","retrieval","old_objects","57","Battery_AA.jpg","36","1","776"
"4","4","retrieval","new_objects","58","Mask_CPR.jpg","37","1","969"
"4","4","retrieval","new_objects","59","Shield_Antique.jpg","37","1","1491"
"4","4","retrieval","new_objects","60","Brush_Windshield.jpg","36","0","832"
"4","4","retrieval","new_objects","62","BookShelf.jpg","37","1","1555"
"4","4","retrieval","old_objects","63","Box_FirstAid.jpg","36","1","806"
"4","4","retrieval","old_objects","64","Fencing_HelmetSwords.jpg","37","0","703"
"4","4","retrieval","old_objects","65","Bottle_Baby.jpg","36","1","972"
"4","4","retrieval","old_objects","66","Tambourine.jpg","36","1","774"
"4","4","retrieval","new_objects","67","Cabasa.jpg","37","1","887"
"4","4","retrieval","old_objects","68","Belt.jpg","36","1","829"
"4","4","retrieval","old_objects","69","TeethMould.jpg","36","1","652"
"4","4","retrieval","old_objects","70","Crayon_Green.jpg","36","1","691"
"4","4","retrieval","new_objects","71","Pasta_Fusilli.jpg","37","1","904"
"4","4","retrieval","new_objects","72","Stick_Honey.jpg","37","1","1188"
"4","4","retrieval","new_objects","73","Brush_Shaving.jpg","37","1","950"
"4","4","retrieval","old_objects","74","Lynx.jpg","36","1","825"
"4","4","retrieval","new_objects","75","TreeStump.jpg","37","1","864"
"4","4","retrieval","new_objects","76","SkiPoles.jpg","37","1","774"
"4","4","retrieval","new_objects","77","Bandage_Wrap.jpg","37","1","752"
"4","4","retrieval","old_objects","78","Toy_Train.jpg","36","1","851"
"4","4","retrieval","old_objects","79","EspressoMachine.jpg","36","1","961"
"4","4","retrieval","old_objects","80","ToothBrush.jpg","36","1","868"
"4","4","retrieval","old_objects","81","Scroll.jpg","36","1","674"
"4","4","retrieval","old_objects","82","FireHydrant.jpg","36","1","608"
"4","4","retrieval","new_objects","83","Sign_SlipperyRoad.jpg","37","1","1183"
"4","4","retrieval","old_objects","84","AirCompressor.jpg","36","1","905"
"4","4","retrieval","new_objects","85","EyeChart.jpg","37","1","827"
"4","4","retrieval","new_objects","86","PersonWooden.jpg","37","1","834"
"4","4","retrieval","new_objects","87","Toy_Stroller.jpg","37","1","746"
"4","4","retrieval","old_objects","88","RiceRaw.jpg","36","1","757"
"4","4","retrieval","new_objects","89","Camel_Dromedary.jpg","37","1","863"
"4","4","retrieval","old_objects","90","Paddle_Bread.jpg","36","1","685"
"4","4","retrieval","old_objects","91","LampPost_WhiteOrnate.jpg","36","1","1203"
"4","4","retrieval","new_objects","92","Toy_Firetruck.jpg","36","0","1772"
"4","4","retrieval","old_objects","93","Pen_Calligraphy.jpg","36","1","663"
"4","4","retrieval","new_objects","94","Cornucopia.jpg","37","1","949"
"4","4","retrieval","new_objects","95","Suspenders.jpg","37","1","888"
"4","4","retrieval","new_objects","96","Dog_ChowChow.jpg","37","1","1373"
"4","4","retrieval","old_objects","97","Guacamole.jpg","36","1","752"
"4","4","retrieval","new_objects","98","PyramidWooden.jpg","36","0","891"
"4","4","retrieval","old_objects","99","Crackers_Ritz.jpg","36","1","736"
"4","4","retrieval","old_objects","100","Toy_Lion.jpg","36","1","619"
"4","4","retrieval","old_objects","101","Egg_Chocolate.jpg","36","1","612"
"4","4","retrieval","old_objects","102","Magnifying_Glass.jpg","36","1","611"
"4","4","retrieval","new_objects","103","Nuts_Peanuts.jpg","37","1","787"
"4","4","retrieval","old_objects","104","Snail.jpg","37","0","541"
"4","4","retrieval","old_objects","105","Dill.jpg","37","0","744"
"4","4","retrieval","new_objects","106","Lettuce_Iceberg.jpg","37","1","1162"
"4","4","retrieval","old_objects","107","Mask_Viking.jpg","36","1","1093"
"4","4","retrieval","new_objects","108","Toy_Slide.jpg","0","0","2000"
"4","4","retrieval","new_objects","109","VGAport.jpg","37","1","852"
"4","4","retrieval","old_objects","110","Clothespin_Red.jpg","36","1","747"
"4","4","retrieval","new_objects","111","Drum_Tall.jpg","37","1","870"
"4","4","retrieval","new_objects","112","TomatoSauce.jpg","37","1","876"
"4","4","retrieval","old_objects","113","Candle_ChristmasDecor.jpg","36","1","738"
"4","4","retrieval","old_objects","114","DayPlanner.jpg","36","1","709"
"4","4","retrieval","new_objects","115","Crate_Wine.jpg","37","1","861"
