"group","subject","blockcode","trialcode","trialnum","values.stimulus","response","correct","latency"
"2","2","encoding","encoding","1","Level.jpg","0","0","3000"
"2","2","encoding","encoding","2","Boxcutter.jpg","3","0","2244"
"2","2","encoding","encoding","3","BrainSagittal.jpg","2","0","2326"
"2","2","encoding","encoding","4","Tag_Identifier.jpg","2","0","2549"
"2","2","encoding","encoding","5","Stool_Wood.jpg","1","0","2288"
"2","2","encoding","encoding","6","Truck_Pickup.jpg","1","0","2819"
"2","2","encoding","encoding","7","PaperShredder.jpg","1","0","2678"
"2","2","encoding","encoding","8","RibbonSpool.jpg","1","0","2736"
"2","2","encoding","encoding","9","Calculator.jpg","1","0","1324"
"2","2","encoding","encoding","10","Nyala.jpg","2","0","1742"
"2","2","encoding","encoding","11","MechanicalSpring.jpg","1","0","1638"
"2","2","encoding","encoding","12","Chest_Toys.jpg","1","0","1325"
"2","2","encoding","encoding","13","Bathtub.jpg","3","0","2951"
"2","2","encoding","encoding","14","Brace_Neck.jpg","1","0","1773"
"2","2","encoding","encoding","15","Phone_Wireless.jpg","2","0","2431"
"2","2","encoding","encoding","16","Cable_AudioSplitter.jpg","1","0","2415"
"2","2","encoding","encoding","17","Shark_Hammerhead.jpg","3","0","1873"
"2","2","encoding","encoding","18","Hangar.jpg","2","0","2474"
"2","2","encoding","encoding","19","IceScraper.jpg","1","0","1259"
"2","2","encoding","encoding","20","Hat_Beret.jpg","1","0","1214"
"2","2","encoding","encoding","21","Dresser_1.jpg","1","0","1573"
"2","2","encoding","encoding","22","Toast.jpg","1","0","2723"
"2","2","encoding","encoding","23","Microphone.jpg","1","0","1229"
"2","2","encoding","encoding","24","Glove_Baseball.jpg","1","0","761"
"2","2","encoding","encoding","25","Ladybug.jpg","3","0","2938"
"2","2","encoding","encoding","26","Mask_VenetianLongNose.jpg","3","0","2633"
"2","2","encoding","encoding","27","ComputerKeyboard.jpg","0","0","3000"
"2","2","encoding","encoding","28","Seahorse.jpg","4","0","2130"
"2","2","encoding","encoding","29","Windmill_Building.jpg","4","0","1463"
"2","2","encoding","encoding","30","Instrument_Guiro.jpg","0","0","3000"
"2","2","encoding","encoding","31","KeyHook_Empty.jpg","3","0","2594"
"2","2","encoding","encoding","32","Funnel.jpg","1","0","1649"
"2","2","encoding","encoding","33","RemoteControl.jpg","2","0","2538"
"2","2","encoding","encoding","34","Hat_Hard.jpg","0","0","3000"
"2","2","encoding","encoding","35","Bat_Baseball.jpg","1","0","2092"
"2","2","encoding","encoding","36","Shoes_Sneakers.jpg","1","0","1151"
"2","2","encoding","encoding","37","MortarPestle_WhiteMarble.jpg","1","0","1566"
"2","2","encoding","encoding","38","Bird_Peacock.jpg","3","0","2342"
"2","2","encoding","encoding","39","Bell_Hand.jpg","1","0","1831"
"2","2","encoding","encoding","40","Figurine_Ballerina.jpg","0","0","3000"
"2","2","encoding","encoding","41","Helmet_Construction.jpg","1","0","1900"
"2","2","encoding","encoding","42","Puffin.jpg","3","0","1581"
"2","2","encoding","encoding","43","Helmet_Football.jpg","1","0","2473"
"2","2","encoding","encoding","44","Lollipop_Grape.jpg","1","0","2443"
"2","2","encoding","encoding","45","Blackboard.jpg","2","0","2413"
"2","2","encoding","encoding","46","Spoons_MeasuringDetached.jpg","0","0","3000"
"2","2","encoding","encoding","47","Goose_Canadian.jpg","3","0","2254"
"2","2","encoding","encoding","48","Bench_Concrete.jpg","3","0","1468"
"2","2","encoding","encoding","49","Basket_Plastic.jpg","2","0","1726"
"2","2","encoding","encoding","50","Spatula.jpg","2","0","1498"
"2","2","encoding","encoding","51","Toy_Bat.jpg","0","0","3000"
"2","2","encoding","encoding","52","BicycleHandleGrip.jpg","1","0","2845"
"2","2","encoding","encoding","53","Shampoo.jpg","0","0","3000"
"2","2","encoding","encoding","54","Car_Ferrari.jpg","0","0","3000"
"2","2","encoding","encoding","55","Lemon.jpg","2","0","1681"
"2","2","encoding","encoding","56","JuiceBox.jpg","3","0","1996"
"2","2","encoding","encoding","57","Arm.jpg","3","0","2420"
"2","2","encoding","encoding","58","BabyMonitor.jpg","2","0","1685"
"2","2","encoding","encoding","59","Can_OilSpout.jpg","3","0","2459"
"2","2","encoding","encoding","60","Decoration_ChristmasRed.jpg","5","0","1874"
"2","2","encoding","encoding","62","Bottle_Liquor.jpg","3","0","1484"
"2","2","encoding","encoding","63","Chair_Car.jpg","2","0","2740"
"2","2","encoding","encoding","64","Ball_Bowling.jpg","4","0","2955"
"2","2","encoding","encoding","65","Hat_Visor.jpg","2","0","1314"
"2","2","encoding","encoding","66","Coconut.jpg","5","0","1924"
"2","2","encoding","encoding","67","Stick_Bridge.jpg","1","0","1950"
"2","2","encoding","encoding","68","Shoe_WomenHeals.jpg","4","0","2574"
"2","2","encoding","encoding","69","Toy_Truck.jpg","1","0","2317"
"2","2","encoding","encoding","70","PatioHeater.jpg","1","0","1611"
"2","2","encoding","encoding","71","Syrup_Maple.jpg","5","0","2915"
"2","2","encoding","encoding","72","Drum_Cymbal.jpg","3","0","2271"
"2","2","encoding","encoding","73","Shoes_DutchClogs.jpg","2","0","1763"
"2","2","encoding","encoding","74","ChocolateBar_Unwrapped.jpg","5","0","1739"
"2","2","encoding","encoding","75","Fruit_Cactus.jpg","5","0","2684"
"2","2","encoding","encoding","76","CoinRolls.jpg","2","0","2155"
"2","2","encoding","encoding","77","BusStop.jpg","1","0","1374"
"2","2","encoding","encoding","78","HotWaterBottle.jpg","1","0","1544"
"2","2","encoding","encoding","79","Brush_Nail.jpg","1","0","1198"
"2","2","encoding","encoding","80","Toy_Lighthouse.jpg","0","0","3000"
"2","2","encoding","encoding","81","CrepeMaker.jpg","0","0","3000"
"2","2","encoding","encoding","82","Can_Gas.jpg","3","0","2136"
"2","2","encoding","encoding","83","BadgeSpecialAgent.jpg","5","0","2621"
"2","2","encoding","encoding","84","Toy_Zebra.jpg","2","0","1649"
"2","2","encoding","encoding","85","Knife_Hunting.jpg","0","0","3000"
"2","2","encoding","encoding","86","Chair_Bamboo.jpg","5","0","2428"
"2","2","encoding","encoding","87","Spoon_Wooden.jpg","1","0","1693"
"2","2","encoding","encoding","88","Boat_Trailer.jpg","2","0","2049"
"2","2","encoding","encoding","89","RugRoled.jpg","3","0","1660"
"2","2","encoding","encoding","90","CashRegister_Modern.jpg","2","0","2146"
"2","2","encoding","encoding","91","Ring_Diamond.jpg","1","0","2797"
"2","2","encoding","encoding","92","Jar_Cookie.jpg","6","0","2269"
"2","2","encoding","encoding","93","HedgeShears.jpg","2","0","2549"
"2","2","encoding","encoding","94","Trowel.jpg","2","0","2238"
"2","2","encoding","encoding","95","TrapAnimal.jpg","0","0","3000"
"2","2","encoding","encoding","96","Bird_Pelican.jpg","3","0","1221"
"2","2","encoding","encoding","97","Cart_Groceries.jpg","4","0","1981"
"2","2","encoding","encoding","98","Boardgame_ChineseCheckers.jpg","3","0","2415"
"2","2","encoding","encoding","99","Sled.jpg","2","0","1954"
"2","2","encoding","encoding","100","ScaleWeighing.jpg","3","0","2128"
"2","2","encoding","encoding","101","Humidifier.jpg","1","0","2241"
"2","2","encoding","encoding","102","DoubleBass.jpg","1","0","1846"
"2","2","encoding","encoding","103","Toy_SeeSaw.jpg","3","0","2645"
"2","2","encoding","encoding","104","Mattress.jpg","2","0","1896"
"2","2","encoding","encoding","105","Scalpel.jpg","3","0","2025"
"2","2","encoding","encoding","106","Taco.jpg","4","0","2483"
"2","2","encoding","encoding","107","Lamp_Table.jpg","3","0","1343"
"2","2","encoding","encoding","108","DrinkingFountain.jpg","2","0","2535"
"2","2","encoding","encoding","109","DormerWindow.jpg","0","0","3000"
"2","2","encoding","encoding","110","Joystick.jpg","2","0","1617"
"2","2","encoding","encoding","111","Broom_Long.jpg","2","0","2230"
"2","2","encoding","encoding","112","Can_GasSpout.jpg","3","0","1856"
"2","2","encoding","encoding","113","Hand.jpg","2","0","2348"
"2","2","encoding","encoding","114","MassageRoller.jpg","2","0","2113"
"2","2","encoding","encoding","115","CarSuspension.jpg","0","0","3000"
"2","2","encoding","encoding","116","TartStrawberry.jpg","5","0","2036"
"2","2","encoding","encoding","117","Locomotive.jpg","3","0","2185"
"2","2","encoding","encoding","118","Tiara.jpg","2","0","1689"
"2","2","encoding","encoding","119","Flask_Metal.jpg","1","0","2108"
"2","2","encoding","encoding","120","LampPost_OneBulb.jpg","4","0","2131"
"2","2","encoding","encoding","121","LitterScoop.jpg","1","0","2209"
"2","2","encoding","encoding","123","HumanSkeleton.jpg","2","0","1659"
"2","2","encoding","encoding","124","Truck_Dump.jpg","2","0","1957"
"2","2","encoding","encoding","125","Telephone_Booth.jpg","4","0","2393"
"2","2","encoding","encoding","126","Hookah.jpg","3","0","2743"
"2","2","encoding","encoding","127","BowlingPin.jpg","2","0","1371"
"2","2","encoding","encoding","128","Umbrella_Classic.jpg","2","0","1958"
"2","2","encoding","encoding","129","Bag_String.jpg","0","0","3000"
"2","2","encoding","encoding","130","Stool_Metal.jpg","2","0","2795"
"2","2","encoding","encoding","131","Qtip_Single.jpg","2","0","1942"
"2","2","encoding","encoding","132","Photocopier.jpg","1","0","1471"
"2","2","encoding","encoding","133","BakingDish.jpg","1","0","1004"
"2","2","encoding","encoding","134","Mask_Gas.jpg","2","0","2367"
"2","2","encoding","encoding","135","Cast.jpg","1","0","2121"
"2","2","encoding","encoding","136","Guitarcase.jpg","2","0","2580"
"2","2","encoding","encoding","137","Grill_Gas.jpg","5","0","2103"
"2","2","encoding","encoding","138","PokerChips.jpg","2","0","1656"
"2","2","encoding","encoding","139","RibbonString.jpg","2","0","2019"
"2","2","encoding","encoding","140","ColumnMarble.jpg","4","0","2703"
"2","2","encoding","encoding","141","PeasSplit.jpg","2","0","1939"
"2","2","encoding","encoding","142","Barometer_Wood.jpg","3","0","2164"
"2","2","encoding","encoding","143","HumanSkull.jpg","2","0","1628"
"2","2","encoding","encoding","144","Corkboard.jpg","2","0","2242"
"2","2","encoding","encoding","145","Brush_BathBack.jpg","0","0","3000"
"2","2","encoding","encoding","146","FoodMill.jpg","0","0","3000"
"2","2","encoding","encoding","147","Dog_CockerSpaniel.jpg","3","0","2400"
"2","2","encoding","encoding","148","Table_Picnic.jpg","4","0","2279"
"2","2","encoding","encoding","149","Catheter.jpg","1","0","2253"
"2","2","encoding","encoding","150","Thimble.jpg","1","0","1598"
"2","2","encoding","encoding","151","Generator.jpg","2","0","2196"
"2","2","encoding","encoding","152","Tie.jpg","1","0","1711"
"2","2","encoding","encoding","153","VacuumHandheld.jpg","2","0","2098"
"2","2","encoding","encoding","154","Brush_Paint.jpg","2","0","2726"
"2","2","encoding","encoding","155","MagazineRoll.jpg","0","0","3000"
"2","2","encoding","encoding","156","Glasses_Reading.jpg","1","0","1749"
"2","2","encoding","encoding","157","Toy_Chameleon.jpg","2","0","2794"
"2","2","encoding","encoding","158","Blueprints.jpg","3","0","2898"
"2","2","encoding","encoding","159","Card_Deck.jpg","1","0","2205"
"2","2","encoding","encoding","160","FileDivider.jpg","1","0","1258"
"2","2","encoding","encoding","161","DogHouse.jpg","1","0","1653"
"2","2","encoding","encoding","162","AmberWithMosquito.jpg","4","0","2649"
"2","2","encoding","encoding","163","Sign_SpeedLimit25.jpg","2","0","2558"
"2","2","encoding","encoding","164","Projector_Film.jpg","3","0","2673"
"2","2","encoding","encoding","165","SewingPin_Single.jpg","2","0","2778"
"2","2","encoding","encoding","166","CookieCutter_Bell.jpg","3","0","2157"
"2","2","encoding","encoding","167","HoseNozzle.jpg","1","0","2240"
"2","2","encoding","encoding","168","Helicopter.jpg","4","0","2891"
"2","2","encoding","encoding","169","Nuts_Walnut.jpg","2","0","2938"
"2","2","encoding","encoding","170","Chime.jpg","4","0","2908"
"2","2","encoding","encoding","171","Centrifuge.jpg","1","0","2484"
"2","2","encoding","encoding","172","Wheel_Steering.jpg","1","0","1565"
"2","2","encoding","encoding","173","Sign_Construction.jpg","4","0","2464"
"2","2","encoding","encoding","174","SaxophoneSoprano.jpg","2","0","2268"
"2","2","encoding","encoding","175","MetalChain.jpg","1","0","1492"
"2","2","encoding","encoding","176","Cake_Cheese.jpg","4","0","2418"
"2","2","encoding","encoding","177","Hanger.jpg","2","0","1831"
"2","2","retrieval","new_objects","1","Elephant.jpg","0","0","2000"
"2","2","retrieval","old_objects","2","KeyHook_Empty.jpg","36","1","1303"
"2","2","retrieval","old_objects","3","TrapAnimal.jpg","36","1","795"
"2","2","retrieval","new_objects","4","Cloud.jpg","36","0","1159"
"2","2","retrieval","old_objects","5","CrepeMaker.jpg","36","1","1185"
"2","2","retrieval","old_objects","6","Lamp_Table.jpg","37","0","819"
"2","2","retrieval","new_objects","7","Shoe_Men.jpg","36","0","1178"
"2","2","retrieval","new_objects","8","Bird_Cardinal.jpg","37","1","731"
"2","2","retrieval","new_objects","9","BearPolar.jpg","36","0","1118"
"2","2","retrieval","new_objects","10","Lock_Key.jpg","37","1","1620"
"2","2","retrieval","old_objects","11","Spoons_MeasuringDetached.jpg","36","1","1108"
"2","2","retrieval","old_objects","12","Hookah.jpg","36","1","994"
"2","2","retrieval","new_objects","13","Barbecue_Gas.jpg","0","0","2000"
"2","2","retrieval","new_objects","14","SaltShaker.jpg","37","1","1834"
"2","2","retrieval","new_objects","15","Honeycomb.jpg","0","0","2000"
"2","2","retrieval","old_objects","16","Phone_Wireless.jpg","37","0","1632"
"2","2","retrieval","new_objects","17","Basket_Bread.jpg","37","1","1687"
"2","2","retrieval","new_objects","18","SlushieMachine.jpg","37","1","842"
"2","2","retrieval","new_objects","19","Statue_Horse.jpg","37","1","625"
"2","2","retrieval","new_objects","20","DonaldDuck_Toy.jpg","37","1","786"
"2","2","retrieval","new_objects","21","Bib.jpg","37","1","587"
"2","2","retrieval","old_objects","22","Calculator.jpg","36","1","685"
"2","2","retrieval","new_objects","23","CuttingBoard.jpg","37","1","675"
"2","2","retrieval","old_objects","24","ComputerKeyboard.jpg","36","1","571"
"2","2","retrieval","old_objects","25","Stool_Metal.jpg","36","1","655"
"2","2","retrieval","new_objects","26","Ball_8.jpg","37","1","694"
"2","2","retrieval","new_objects","27","SandBagThrowGame.jpg","37","1","1620"
"2","2","retrieval","new_objects","28","Ashtray_Empty.jpg","37","1","665"
"2","2","retrieval","old_objects","29","IceScraper.jpg","36","1","648"
"2","2","retrieval","old_objects","30","BadgeSpecialAgent.jpg","36","1","1352"
"2","2","retrieval","new_objects","31","Tree_Fir.jpg","37","1","772"
"2","2","retrieval","new_objects","32","MeatRaw.jpg","37","1","1565"
"2","2","retrieval","new_objects","33","PropellerFan.jpg","37","1","805"
"2","2","retrieval","old_objects","34","Brush_Paint.jpg","37","0","1455"
"2","2","retrieval","new_objects","35","Toy_Top.jpg","37","1","861"
"2","2","retrieval","old_objects","36","Stick_Bridge.jpg","36","1","1620"
"2","2","retrieval","old_objects","37","Joystick.jpg","37","0","1532"
"2","2","retrieval","new_objects","38","Steam_Cleaner.jpg","36","0","1254"
"2","2","retrieval","old_objects","39","Hat_Hard.jpg","36","1","885"
"2","2","retrieval","old_objects","40","Mask_Gas.jpg","36","1","692"
"2","2","retrieval","old_objects","41","CashRegister_Modern.jpg","36","1","978"
"2","2","retrieval","new_objects","42","Table_PingPong.jpg","37","1","986"
"2","2","retrieval","new_objects","43","Baster.jpg","37","1","1236"
"2","2","retrieval","new_objects","44","LaundryHamper.jpg","37","1","1995"
"2","2","retrieval","new_objects","45","Hook_Fish.jpg","0","0","2000"
"2","2","retrieval","new_objects","46","Currants.jpg","37","1","609"
"2","2","retrieval","old_objects","47","Scalpel.jpg","37","0","563"
"2","2","retrieval","new_objects","48","Drum_Brazilan.jpg","37","1","598"
"2","2","retrieval","old_objects","49","Syrup_Maple.jpg","36","1","873"
"2","2","retrieval","old_objects","50","Locomotive.jpg","36","1","696"
"2","2","retrieval","new_objects","51","Backpack_Travel.jpg","37","1","653"
"2","2","retrieval","old_objects","52","Flask_Metal.jpg","36","1","548"
"2","2","retrieval","old_objects","53","Bench_Concrete.jpg","36","1","873"
"2","2","retrieval","old_objects","54","Blueprints.jpg","36","1","665"
"2","2","retrieval","new_objects","55","Horn_French.jpg","37","1","727"
"2","2","retrieval","old_objects","56","Humidifier.jpg","36","1","732"
"2","2","retrieval","new_objects","57","TailLight.jpg","37","1","521"
"2","2","retrieval","new_objects","58","Bottle_BubbleBlower.jpg","37","1","557"
"2","2","retrieval","new_objects","59","Flags_CheckeredRacing.jpg","37","1","586"
"2","2","retrieval","new_objects","60","Scrabble.jpg","36","0","571"
"2","2","retrieval","new_objects","62","MetalDetector.jpg","37","1","1687"
"2","2","retrieval","new_objects","63","StockingChristmas.jpg","37","1","491"
"2","2","retrieval","old_objects","64","Hand.jpg","36","1","858"
"2","2","retrieval","old_objects","65","Bird_Pelican.jpg","36","1","738"
"2","2","retrieval","old_objects","66","Chair_Bamboo.jpg","36","1","806"
"2","2","retrieval","old_objects","67","Fruit_Cactus.jpg","36","1","696"
"2","2","retrieval","old_objects","68","Drum_Cymbal.jpg","36","1","854"
"2","2","retrieval","new_objects","69","Jug_GallonRed.jpg","36","0","717"
"2","2","retrieval","new_objects","70","Bolt_WithNut.jpg","37","1","730"
"2","2","retrieval","old_objects","71","DrinkingFountain.jpg","36","1","814"
"2","2","retrieval","new_objects","72","CoolingFan_Engine.jpg","37","1","727"
"2","2","retrieval","old_objects","73","VacuumHandheld.jpg","36","1","886"
"2","2","retrieval","old_objects","74","Spoon_Wooden.jpg","37","0","1578"
"2","2","retrieval","new_objects","75","Suit_Women.jpg","37","1","666"
"2","2","retrieval","old_objects","76","Boxcutter.jpg","36","1","842"
"2","2","retrieval","new_objects","77","Swing_Porch.jpg","37","1","577"
"2","2","retrieval","new_objects","78","KitchenCloth.jpg","37","1","490"
"2","2","retrieval","new_objects","79","Instrument_African.jpg","36","0","791"
"2","2","retrieval","old_objects","80","Guitarcase.jpg","36","1","1084"
"2","2","retrieval","new_objects","81","Foam_Accoustic.jpg","37","1","929"
"2","2","retrieval","old_objects","82","Tie.jpg","36","1","1037"
"2","2","retrieval","new_objects","83","PaperTowel_Brown.jpg","37","1","1398"
"2","2","retrieval","new_objects","84","Hose_Garden.jpg","36","0","1094"
"2","2","retrieval","new_objects","85","Flower_Crane.jpg","37","1","699"
"2","2","retrieval","old_objects","86","RibbonSpool.jpg","36","1","929"
"2","2","retrieval","old_objects","87","Umbrella_Classic.jpg","36","1","701"
"2","2","retrieval","old_objects","88","Spatula.jpg","36","1","1644"
"2","2","retrieval","old_objects","89","ChocolateBar_Unwrapped.jpg","37","0","714"
"2","2","retrieval","new_objects","90","Shrub_Boxwood.jpg","36","0","1240"
"2","2","retrieval","old_objects","91","Can_Gas.jpg","36","1","839"
"2","2","retrieval","new_objects","92","Stone_Spa.jpg","37","1","629"
"2","2","retrieval","old_objects","93","Funnel.jpg","36","1","1182"
"2","2","retrieval","new_objects","94","Bench_Park.jpg","36","0","768"
"2","2","retrieval","old_objects","95","Cable_AudioSplitter.jpg","37","0","772"
"2","2","retrieval","new_objects","96","Cat.jpg","37","1","918"
"2","2","retrieval","new_objects","97","HairClipper.jpg","37","1","659"
"2","2","retrieval","new_objects","98","Paddle_PingPong.jpg","37","1","1107"
"2","2","retrieval","new_objects","99","Fortress.jpg","37","1","719"
"2","2","retrieval","new_objects","100","Film_Single.jpg","37","1","636"
"2","2","retrieval","old_objects","101","Bag_String.jpg","37","0","628"
"2","2","retrieval","new_objects","102","PanCooking.jpg","37","1","669"
"2","2","retrieval","old_objects","103","Shoe_WomenHeals.jpg","36","1","1013"
"2","2","retrieval","old_objects","104","Chest_Toys.jpg","37","0","949"
"2","2","retrieval","new_objects","105","Boardgame_Chess.jpg","36","0","1968"
"2","2","retrieval","old_objects","106","Mattress.jpg","36","1","729"
"2","2","retrieval","new_objects","107","Organ.jpg","37","1","981"
"2","2","retrieval","new_objects","108","VialLab.jpg","37","1","464"
"2","2","retrieval","old_objects","109","Shoes_Sneakers.jpg","36","1","1392"
"2","2","retrieval","new_objects","110","MouthGuard.jpg","37","1","585"
"2","2","retrieval","old_objects","111","Sign_SpeedLimit25.jpg","36","1","756"
"2","2","retrieval","new_objects","112","Glass_Ball.jpg","37","1","535"
"2","2","retrieval","new_objects","113","Light_Halogen.jpg","37","1","666"
"2","2","retrieval","old_objects","114","Puffin.jpg","37","0","643"
"2","2","retrieval","new_objects","115","Lips_Real.jpg","37","1","555"
"2","2","retrieval","old_objects","116","Tiara.jpg","36","1","710"
"2","2","retrieval","old_objects","117","Trowel.jpg","36","1","668"
"2","2","retrieval","new_objects","118","Archery_Arrows.jpg","37","1","615"
"2","2","retrieval","old_objects","119","Nyala.jpg","36","1","736"
"2","2","retrieval","old_objects","120","HotWaterBottle.jpg","37","0","605"
"2","2","retrieval","old_objects","121","Basket_Plastic.jpg","36","1","782"
"2","2","retrieval","old_objects","123","Can_GasSpout.jpg","36","1","1144"
"2","2","retrieval","new_objects","124","Sieve_TopView.jpg","37","1","683"
"2","2","retrieval","old_objects","125","BakingDish.jpg","36","1","771"
"2","2","retrieval","new_objects","126","IceCream_Popsicle.jpg","37","1","573"
"2","2","retrieval","old_objects","127","CoinRolls.jpg","36","1","1200"
"2","2","retrieval","old_objects","128","Glove_Baseball.jpg","37","0","513"
"2","2","retrieval","new_objects","129","MobilityScooter.jpg","37","1","568"
"2","2","retrieval","old_objects","130","Microphone.jpg","37","0","491"
"2","2","retrieval","new_objects","131","CigarCutter.jpg","37","1","586"
"2","2","retrieval","old_objects","132","Shampoo.jpg","36","1","780"
"2","2","retrieval","old_objects","133","Centrifuge.jpg","36","1","694"
"2","2","retrieval","old_objects","134","PeasSplit.jpg","36","1","620"
"2","2","retrieval","old_objects","135","Boat_Trailer.jpg","36","1","830"
"2","2","retrieval","new_objects","136","Toy_WinnieThePooh.jpg","37","1","590"
"2","2","retrieval","new_objects","137","sign_traffic.jpg","37","1","879"
"2","2","retrieval","old_objects","138","PaperShredder.jpg","37","0","1014"
"2","2","retrieval","old_objects","139","RemoteControl.jpg","36","1","1071"
"2","2","retrieval","new_objects","140","Boardgame_Checkers.jpg","37","1","900"
"2","2","retrieval","old_objects","141","Tag_Identifier.jpg","36","1","818"
"2","2","retrieval","new_objects","142","Mango.jpg","37","1","747"
"2","2","retrieval","new_objects","143","Coral.jpg","37","1","558"
"2","2","retrieval","old_objects","144","Taco.jpg","36","1","626"
"2","2","retrieval","old_objects","145","HumanSkull.jpg","36","1","772"
"2","2","retrieval","new_objects","146","Stone_Mill.jpg","37","1","606"
"2","2","retrieval","new_objects","147","Ramekin.jpg","37","1","687"
"2","2","retrieval","new_objects","148","Wire_ElectricalSingle.jpg","37","1","725"
"2","2","retrieval","new_objects","149","Ball_Football.jpg","37","1","729"
"2","2","retrieval","new_objects","150","WashRack.jpg","37","1","629"
"2","2","retrieval","new_objects","151","Ashtray_Cigarettes.jpg","37","1","645"
"2","2","retrieval","old_objects","152","Shoes_DutchClogs.jpg","36","1","750"
"2","2","retrieval","old_objects","153","Dresser_1.jpg","36","1","1794"
"2","2","retrieval","old_objects","154","Bathtub.jpg","37","0","1058"
"2","2","retrieval","old_objects","155","Grill_Gas.jpg","36","1","737"
"2","2","retrieval","new_objects","156","Notebook.jpg","37","1","685"
"2","2","retrieval","new_objects","157","TinChristmas.jpg","37","1","1316"
"2","2","retrieval","new_objects","158","Tube.jpg","37","1","607"
"2","2","retrieval","new_objects","159","Toy_Tank.jpg","37","1","609"
"2","2","retrieval","old_objects","160","ScaleWeighing.jpg","37","0","547"
"2","2","retrieval","old_objects","161","BusStop.jpg","37","0","544"
"2","2","retrieval","new_objects","162","Ruler_Digital.jpg","37","1","628"
"2","2","retrieval","new_objects","163","ShotGlassTray.jpg","37","1","573"
"2","2","retrieval","old_objects","164","Decoration_ChristmasRed.jpg","36","1","665"
"2","2","retrieval","new_objects","165","Cassette_Audio.jpg","37","1","711"
"2","2","retrieval","old_objects","166","BabyMonitor.jpg","37","0","525"
"2","2","retrieval","new_objects","167","MousepadAndMouse.jpg","37","1","690"
"2","2","retrieval","old_objects","168","FileDivider.jpg","37","0","529"
"2","2","retrieval","old_objects","169","Instrument_Guiro.jpg","36","1","725"
"2","2","retrieval","new_objects","170","Hat_Feather.jpg","37","1","650"
"2","2","retrieval","old_objects","171","Sled.jpg","37","0","657"
"2","2","retrieval","old_objects","172","Cart_Groceries.jpg","36","1","658"
"2","2","retrieval","new_objects","173","Bicycle_Adult.jpg","37","1","618"
"2","2","retrieval","new_objects","174","Thermometer_Room.jpg","37","1","602"
"2","2","retrieval","new_objects","175","Desk_School.jpg","37","1","571"
"2","2","retrieval","old_objects","176","HedgeShears.jpg","36","1","839"
"2","2","retrieval","new_objects","177","Stamper.jpg","37","1","559"
"2","2","retrieval","new_objects","178","Honeydew_yellow.jpg","37","1","595"
"2","2","retrieval","new_objects","179","Golf_Bag.jpg","37","1","581"
"2","2","retrieval","new_objects","180","Cup_sippy.jpg","37","1","702"
"2","2","retrieval","old_objects","181","Coconut.jpg","36","1","557"
"2","2","retrieval","old_objects","182","TartStrawberry.jpg","36","1","545"
"2","2","retrieval","new_objects","184","Brush_Cleaning.jpg","37","1","787"
"2","2","retrieval","old_objects","185","Brush_BathBack.jpg","36","1","765"
"2","2","retrieval","new_objects","186","Spoon_Serving.jpg","37","1","600"
"2","2","retrieval","old_objects","187","Truck_Pickup.jpg","36","1","658"
"2","2","retrieval","old_objects","188","Toy_Truck.jpg","37","0","482"
"2","2","retrieval","new_objects","189","Toy_TableSet.jpg","37","1","584"
"2","2","retrieval","old_objects","190","MechanicalSpring.jpg","36","1","643"
"2","2","retrieval","new_objects","191","ChariotGold.jpg","37","1","635"
"2","2","retrieval","new_objects","192","Boot_Rain.jpg","37","1","628"
"2","2","retrieval","new_objects","193","Saw.jpg","37","1","701"
"2","2","retrieval","new_objects","194","Cork.jpg","37","1","906"
"2","2","retrieval","old_objects","195","Chair_Car.jpg","37","0","856"
"2","2","retrieval","new_objects","196","AirTank.jpg","37","1","624"
"2","2","retrieval","new_objects","197","Honeydew_Green.jpg","37","1","729"
"2","2","retrieval","old_objects","198","Ball_Bowling.jpg","36","1","998"
"2","2","retrieval","new_objects","199","Paddle_Canoe.jpg","37","1","655"
"2","2","retrieval","old_objects","200","Bat_Baseball.jpg","36","1","1102"
"2","2","retrieval","new_objects","201","Light_Traffic.jpg","37","1","595"
"2","2","retrieval","old_objects","202","Knife_Hunting.jpg","37","0","565"
"2","2","retrieval","old_objects","203","Brush_Nail.jpg","36","1","977"
"2","2","retrieval","old_objects","204","Chime.jpg","36","1","884"
"2","2","retrieval","old_objects","205","Bell_Hand.jpg","37","0","682"
"2","2","retrieval","old_objects","206","Truck_Dump.jpg","37","0","708"
"2","2","retrieval","old_objects","207","SewingPin_Single.jpg","36","1","710"
"2","2","retrieval","old_objects","208","Nuts_Walnut.jpg","36","1","788"
"2","2","retrieval","old_objects","209","Thimble.jpg","36","1","741"
"2","2","retrieval","new_objects","210","BuildingChinese.jpg","37","1","633"
"2","2","retrieval","new_objects","211","Notepad_WithPen.jpg","37","1","489"
"2","2","retrieval","old_objects","212","Hanger.jpg","37","0","424"
"2","2","retrieval","old_objects","213","Hat_Visor.jpg","37","0","850"
"2","2","retrieval","old_objects","214","SaxophoneSoprano.jpg","37","0","737"
"2","2","retrieval","old_objects","215","BrainSagittal.jpg","36","1","662"
"2","2","retrieval","new_objects","216","Syringe_Needle.jpg","37","1","1030"
"2","2","retrieval","new_objects","217","Apple_RedAndGreen.jpg","37","1","709"
"2","2","retrieval","old_objects","218","Toy_Lighthouse.jpg","37","0","572"
"2","2","retrieval","old_objects","219","Telephone_Booth.jpg","36","1","655"
"2","2","retrieval","old_objects","220","LampPost_OneBulb.jpg","36","1","718"
"2","2","retrieval","old_objects","221","RibbonString.jpg","36","1","627"
"2","2","retrieval","new_objects","222","Tractor_Yellow.jpg","37","1","586"
"2","2","retrieval","new_objects","223","Cranberry.jpg","37","1","556"
"2","2","retrieval","new_objects","224","SewingPin_Cushion.jpg","37","1","578"
"2","2","retrieval","new_objects","225","Lighter_Yellow.jpg","37","1","563"
"2","2","retrieval","old_objects","226","Photocopier.jpg","36","1","701"
"2","2","retrieval","new_objects","227","Sphinx.jpg","37","1","883"
"2","2","retrieval","old_objects","228","MortarPestle_WhiteMarble.jpg","36","1","849"
"2","2","retrieval","new_objects","229","Makeup_Foundation.jpg","37","1","680"
"2","2","retrieval","old_objects","230","AmberWithMosquito.jpg","36","1","703"
"2","2","retrieval","old_objects","231","Toy_SeeSaw.jpg","36","1","853"
"2","2","retrieval","old_objects","232","Windmill_Building.jpg","37","0","677"
"2","2","retrieval","new_objects","233","Table_Set.jpg","37","1","602"
"2","2","retrieval","old_objects","234","Qtip_Single.jpg","36","1","652"
"2","2","retrieval","old_objects","235","Dog_CockerSpaniel.jpg","36","1","1076"
"2","2","retrieval","new_objects","236","RollingPin.jpg","37","1","954"
"2","2","retrieval","new_objects","237","SlideViewer.jpg","37","1","598"
"2","2","retrieval","old_objects","238","LitterScoop.jpg","37","0","471"
"2","2","retrieval","new_objects","239","Paratrooper.jpg","37","1","630"
"2","2","retrieval","old_objects","240","PatioHeater.jpg","36","1","1176"
"2","2","retrieval","new_objects","241","Kazoo.jpg","37","1","641"
"2","2","retrieval","new_objects","242","Toolbox_BlackOpen.jpg","37","1","597"
"2","2","retrieval","new_objects","243","Compressor.jpg","37","1","591"
"2","2","retrieval","old_objects","245","Toy_Zebra.jpg","36","1","1361"
"2","2","retrieval","new_objects","246","CinderBlock.jpg","37","1","651"
"2","2","retrieval","new_objects","247","Spotlight.jpg","37","1","499"
"2","2","retrieval","new_objects","248","FireAlarm.jpg","37","1","537"
"2","2","retrieval","old_objects","249","Lollipop_Grape.jpg","36","1","958"
"2","2","retrieval","new_objects","250","Toy_ModelMolecule.jpg","37","1","712"
"2","2","retrieval","old_objects","251","Hat_Beret.jpg","37","0","885"
"2","2","retrieval","new_objects","252","Crate_Milk.jpg","36","0","738"
"2","2","retrieval","new_objects","253","Flamingo_Cartoon.jpg","37","1","838"
"2","2","retrieval","new_objects","254","Protractor.jpg","37","1","663"
"2","2","retrieval","old_objects","255","Helicopter.jpg","37","0","622"
"2","2","retrieval","new_objects","256","Sign_Caution.jpg","37","1","623"
"2","2","retrieval","old_objects","257","Blackboard.jpg","36","1","936"
"2","2","retrieval","old_objects","258","Toy_Chameleon.jpg","36","1","763"
"2","2","retrieval","new_objects","259","Brooch_Fish.jpg","37","1","686"
"2","2","retrieval","new_objects","260","Tombstone.jpg","37","1","628"
"2","2","retrieval","old_objects","261","RugRoled.jpg","36","1","710"
"2","2","retrieval","old_objects","262","Figurine_Ballerina.jpg","36","1","739"
"2","2","retrieval","old_objects","263","BicycleHandleGrip.jpg","36","1","976"
"2","2","retrieval","old_objects","264","Shark_Hammerhead.jpg","36","1","723"
"2","2","retrieval","new_objects","265","Bucket_Halloween.jpg","37","1","712"
"2","2","retrieval","old_objects","266","Helmet_Construction.jpg","36","1","1173"
"2","2","retrieval","old_objects","267","Car_Ferrari.jpg","36","1","800"
"2","2","retrieval","old_objects","268","CookieCutter_Bell.jpg","36","1","912"
"2","2","retrieval","old_objects","269","MassageRoller.jpg","36","1","766"
"2","2","retrieval","old_objects","270","Level.jpg","36","1","744"
"2","2","retrieval","new_objects","271","Table_Conference.jpg","37","1","1676"
"2","2","retrieval","new_objects","272","HairClip.jpg","37","1","721"
"2","2","retrieval","old_objects","273","DogHouse.jpg","36","1","702"
"2","2","retrieval","old_objects","274","Boardgame_ChineseCheckers.jpg","36","1","964"
"2","2","retrieval","new_objects","275","StampAndSeal.jpg","37","1","599"
"2","2","retrieval","old_objects","276","Sign_Construction.jpg","37","0","729"
"2","2","retrieval","old_objects","277","Table_Picnic.jpg","36","1","653"
"2","2","retrieval","new_objects","278","Bowl_Chopsticks.jpg","37","1","661"
"2","2","retrieval","old_objects","279","Glasses_Reading.jpg","36","1","1213"
"2","2","retrieval","new_objects","280","Glass_Cup.jpg","37","1","590"
"2","2","retrieval","new_objects","281","Bag_Doctor.jpg","37","1","1047"
"2","2","retrieval","new_objects","282","ButterDish.jpg","37","1","679"
"2","2","retrieval","old_objects","283","Ring_Diamond.jpg","37","0","525"
"2","2","retrieval","old_objects","284","FoodMill.jpg","36","1","738"
"2","2","retrieval","old_objects","285","Goose_Canadian.jpg","36","1","703"
"2","2","retrieval","new_objects","286","Lock_Bike.jpg","37","1","468"
"2","2","retrieval","new_objects","287","Cup_Styrofoam.jpg","37","1","700"
"2","2","retrieval","new_objects","288","VacuumHose.jpg","37","1","521"
"2","2","retrieval","new_objects","289","Toy_RabbitPlushie.jpg","37","1","607"
"2","2","retrieval","old_objects","290","Brace_Neck.jpg","0","0","2000"
"2","2","retrieval","new_objects","291","Candy_Cotton.jpg","37","1","778"
"2","2","retrieval","old_objects","292","Ladybug.jpg","36","1","1807"
"2","2","retrieval","new_objects","293","DryRack_Dishes.jpg","37","1","843"
"2","2","retrieval","old_objects","294","Arm.jpg","36","1","995"
"2","2","retrieval","new_objects","295","Pipe_Drain.jpg","36","0","884"
"2","2","retrieval","new_objects","296","Soap.jpg","37","1","699"
"2","2","retrieval","new_objects","297","Bottle_Specimen.jpg","37","1","1087"
"2","2","retrieval","old_objects","298","BowlingPin.jpg","36","1","1037"
"2","2","retrieval","new_objects","299","Playground.jpg","0","0","2000"
"2","2","retrieval","old_objects","300","MetalChain.jpg","36","1","957"
"2","2","retrieval","old_objects","301","Hangar.jpg","36","1","816"
"2","2","retrieval","old_objects","302","Lemon.jpg","36","1","1431"
"2","2","retrieval","old_objects","303","Cake_Cheese.jpg","36","1","670"
"2","2","retrieval","old_objects","304","Bottle_Liquor.jpg","36","1","821"
"2","2","retrieval","old_objects","306","ColumnMarble.jpg","36","1","1316"
"2","2","retrieval","new_objects","307","Dreamcatcher.jpg","37","1","616"
"2","2","retrieval","old_objects","308","Cast.jpg","36","1","1241"
"2","2","retrieval","new_objects","309","PhoneCase.jpg","37","1","832"
"2","2","retrieval","old_objects","310","DormerWindow.jpg","37","0","792"
"2","2","retrieval","old_objects","311","Generator.jpg","37","0","1082"
"2","2","retrieval","new_objects","312","Pants.jpg","37","1","703"
"2","2","retrieval","new_objects","313","Microscope.jpg","37","1","709"
"2","2","retrieval","new_objects","314","ButterChurn.jpg","36","0","1155"
"2","2","retrieval","old_objects","315","Can_OilSpout.jpg","36","1","1670"
"2","2","retrieval","new_objects","316","PulleyWooden.jpg","37","1","748"
"2","2","retrieval","old_objects","317","Seahorse.jpg","36","1","869"
"2","2","retrieval","new_objects","318","Deodorant.jpg","37","1","867"
"2","2","retrieval","old_objects","319","Broom_Long.jpg","36","1","874"
"2","2","retrieval","new_objects","320","Pitcher.jpg","37","1","768"
"2","2","retrieval","old_objects","321","DoubleBass.jpg","36","1","1034"
"2","2","retrieval","old_objects","322","Barometer_Wood.jpg","36","1","793"
"2","2","retrieval","new_objects","323","Drill.jpg","37","1","619"
"2","2","retrieval","old_objects","324","Card_Deck.jpg","36","1","753"
"2","2","retrieval","old_objects","325","JuiceBox.jpg","37","0","637"
"2","2","retrieval","old_objects","326","CarSuspension.jpg","36","1","893"
"2","2","retrieval","old_objects","327","Corkboard.jpg","36","1","667"
"2","2","retrieval","new_objects","328","Table_AntiqueWooden.jpg","37","1","626"
"2","2","retrieval","old_objects","329","PokerChips.jpg","36","1","722"
"2","2","retrieval","new_objects","330","Toy_Chicken.jpg","37","1","1047"
"2","2","retrieval","new_objects","331","Tribunal_Wooden.jpg","37","1","894"
"2","2","retrieval","new_objects","332","KiddiePool.jpg","37","1","1403"
"2","2","retrieval","old_objects","333","Mask_VenetianLongNose.jpg","36","1","900"
"2","2","retrieval","old_objects","334","Toast.jpg","36","1","881"
"2","2","retrieval","new_objects","335","Bat_Cricket.jpg","37","1","727"
"2","2","retrieval","new_objects","336","Camera_Video.jpg","37","1","628"
"2","2","retrieval","old_objects","337","Wheel_Steering.jpg","36","1","820"
"2","2","retrieval","old_objects","338","MagazineRoll.jpg","36","1","828"
"2","2","retrieval","new_objects","339","House_Doll.jpg","36","0","572"
"2","2","retrieval","old_objects","340","Bird_Peacock.jpg","36","1","535"
"2","2","retrieval","new_objects","341","Fruit_Carambola.jpg","0","0","2000"
"2","2","retrieval","old_objects","342","HumanSkeleton.jpg","0","0","2000"
"2","2","retrieval","old_objects","343","Helmet_Football.jpg","36","1","633"
"2","2","retrieval","new_objects","344","Egg_Wooden.jpg","37","1","754"
"2","2","retrieval","old_objects","345","HoseNozzle.jpg","36","1","678"
"2","2","retrieval","old_objects","346","Stool_Wood.jpg","36","1","732"
"2","2","retrieval","new_objects","347","Toy_Octopus.jpg","37","1","728"
"2","2","retrieval","new_objects","348","MeatGrinder.jpg","36","0","1252"
"2","2","retrieval","new_objects","349","Fryingpan.jpg","37","1","835"
"2","2","retrieval","new_objects","350","Toolbox_Red.jpg","37","1","611"
"2","2","retrieval","old_objects","351","Projector_Film.jpg","36","1","941"
"2","2","retrieval","old_objects","352","Catheter.jpg","36","1","824"
"2","2","retrieval","old_objects","353","Toy_Bat.jpg","36","1","952"
"2","2","retrieval","old_objects","354","Jar_Cookie.jpg","37","0","635"
"2","2","retrieval","new_objects","355","Boat_Row.jpg","37","1","835"
"2","2","demographics_block","gender","1","Boat_Row.jpg","male","1","16889"
"2","2","demographics_block","age","1","Boat_Row.jpg","33","1","16889"
"2","2","demographics_block","education","1","Boat_Row.jpg","16","1","16889"
"2","2","demographics_block","left_right_handed","2","Boat_Row.jpg","Right","1","10990"
"2","2","demographics_block","raceoption1","2","Boat_Row.jpg","0","1","10990"
"2","2","demographics_block","raceoption2","2","Boat_Row.jpg","","1","10990"
"2","2","demographics_block","raceoption3","2","Boat_Row.jpg","","1","10990"
"2","2","demographics_block","raceoption4","2","Boat_Row.jpg","","1","10990"
"2","2","demographics_block","raceoption5","2","Boat_Row.jpg","","1","10990"
"2","2","demographics_block","raceoption6","2","Boat_Row.jpg","","1","10990"
"2","2","demographics_block","raceoption7","2","Boat_Row.jpg","","1","10990"
"2","2","demographics_block","raceoption8","2","Boat_Row.jpg","","1","10990"
"2","2","demographics_block","raceoption9","2","Boat_Row.jpg","","1","10990"
"2","2","demographics_block","raceother","2","Boat_Row.jpg","","1","10990"
"2","2","demographics_block","raceother","2","Boat_Row.jpg","","1","10990"
"2","2","demographics_block","english_language","2","Boat_Row.jpg","Yes","1","10990"
"2","2","demographics_block","english_languageother","2","Boat_Row.jpg","","1","10990"
"2","2","demographics_block","eyesight","3","Boat_Row.jpg","Yes","1","10914"
"2","2","demographics_block","colorblind","3","Boat_Row.jpg","No","1","10914"
"2","2","worker_id_block","worker_id_textbox","1","Boat_Row.jpg","A38NFX88VZDMJ3","1","6248"
"3","3","encoding","encoding","1","TrapAnimal.jpg","2","0","1805"
"3","3","encoding","encoding","2","ScaleWeighing.jpg","1","0","1588"
"3","3","encoding","encoding","3","Ladybug.jpg","3","0","1987"
"3","3","encoding","encoding","4","Sign_Construction.jpg","1","0","1435"
"3","3","encoding","encoding","5","Locomotive.jpg","1","0","1377"
"3","3","encoding","encoding","6","ComputerKeyboard.jpg","1","0","1816"
"3","3","encoding","encoding","7","Lemon.jpg","1","0","1207"
"3","3","encoding","encoding","8","Seahorse.jpg","3","0","1364"
"3","3","encoding","encoding","9","Arm.jpg","1","0","1452"
"3","3","encoding","encoding","10","Stool_Metal.jpg","1","0","1435"
"3","3","encoding","encoding","11","Bat_Baseball.jpg","1","0","1258"
"3","3","encoding","encoding","12","BakingDish.jpg","1","0","1241"
"3","3","encoding","encoding","13","Boat_Trailer.jpg","2","0","1647"
"3","3","encoding","encoding","14","DoubleBass.jpg","5","0","1725"
"3","3","encoding","encoding","15","Bottle_Liquor.jpg","1","0","1516"
"3","3","encoding","encoding","16","DormerWindow.jpg","1","0","1387"
"3","3","encoding","encoding","17","RemoteControl.jpg","1","0","1305"
"3","3","encoding","encoding","18","Taco.jpg","5","0","1512"
"3","3","encoding","encoding","19","HumanSkull.jpg","4","0","2007"
"3","3","encoding","encoding","20","HedgeShears.jpg","1","0","1373"
"3","3","encoding","encoding","21","Nyala.jpg","2","0","1325"
"3","3","encoding","encoding","22","Chime.jpg","3","0","1611"
"3","3","encoding","encoding","23","Toast.jpg","1","0","1297"
"3","3","encoding","encoding","24","Wheel_Steering.jpg","1","0","1384"
"3","3","encoding","encoding","25","Bird_Pelican.jpg","1","0","1462"
"3","3","encoding","encoding","26","AmberWithMosquito.jpg","4","0","1949"
"3","3","encoding","encoding","27","Bench_Concrete.jpg","3","0","1669"
"3","3","encoding","encoding","28","Truck_Pickup.jpg","2","0","1492"
"3","3","encoding","encoding","29","Instrument_Guiro.jpg","3","0","1581"
"3","3","encoding","encoding","30","ChocolateBar_Unwrapped.jpg","3","0","1599"
"3","3","encoding","encoding","31","Toy_Zebra.jpg","4","0","1711"
"3","3","encoding","encoding","32","Bathtub.jpg","6","0","1789"
"3","3","encoding","encoding","33","PatioHeater.jpg","1","0","1277"
"3","3","encoding","encoding","34","Decoration_ChristmasRed.jpg","1","0","1403"
"3","3","encoding","encoding","35","Can_Gas.jpg","1","0","1307"
"3","3","encoding","encoding","36","Brush_Paint.jpg","2","0","1289"
"3","3","encoding","encoding","37","Toy_SeeSaw.jpg","2","0","1696"
"3","3","encoding","encoding","38","Helicopter.jpg","3","0","2061"
"3","3","encoding","encoding","39","Glasses_Reading.jpg","1","0","1389"
"3","3","encoding","encoding","40","Ball_Bowling.jpg","5","0","1429"
"3","3","encoding","encoding","41","PokerChips.jpg","5","0","1483"
"3","3","encoding","encoding","42","Boardgame_ChineseCheckers.jpg","1","0","2170"
"3","3","encoding","encoding","43","Syrup_Maple.jpg","1","0","1631"
"3","3","encoding","encoding","44","PeasSplit.jpg","1","0","1445"
"3","3","encoding","encoding","45","Photocopier.jpg","1","0","1293"
"3","3","encoding","encoding","46","Humidifier.jpg","2","0","1395"
"3","3","encoding","encoding","47","Drum_Cymbal.jpg","3","0","1435"
"3","3","encoding","encoding","48","Hanger.jpg","1","0","1354"
"3","3","encoding","encoding","49","BusStop.jpg","1","0","1352"
"3","3","encoding","encoding","50","Shampoo.jpg","1","0","1264"
"3","3","encoding","encoding","51","DogHouse.jpg","1","0","1407"
"3","3","encoding","encoding","52","RugRoled.jpg","1","0","1453"
"3","3","encoding","encoding","53","Centrifuge.jpg","1","0","1892"
"3","3","encoding","encoding","54","FoodMill.jpg","1","0","1569"
"3","3","encoding","encoding","55","Sled.jpg","1","0","1496"
"3","3","encoding","encoding","56","Qtip_Single.jpg","2","0","1536"
"3","3","encoding","encoding","57","RibbonString.jpg","1","0","1399"
"3","3","encoding","encoding","58","MetalChain.jpg","1","0","1294"
"3","3","encoding","encoding","59","SewingPin_Single.jpg","1","0","1380"
"3","3","encoding","encoding","60","Chair_Car.jpg","1","0","1450"
"3","3","encoding","encoding","62","Barometer_Wood.jpg","1","0","1348"
"3","3","encoding","encoding","63","Trowel.jpg","1","0","1210"
"3","3","encoding","encoding","64","Toy_Bat.jpg","5","0","1617"
"3","3","encoding","encoding","65","BrainSagittal.jpg","2","0","1814"
"3","3","encoding","encoding","66","Fruit_Cactus.jpg","3","0","1942"
"3","3","encoding","encoding","67","DrinkingFountain.jpg","1","0","1197"
"3","3","encoding","encoding","68","ColumnMarble.jpg","3","0","1834"
"3","3","encoding","encoding","69","HotWaterBottle.jpg","1","0","1250"
"3","3","encoding","encoding","70","Brace_Neck.jpg","1","0","1474"
"3","3","encoding","encoding","71","Thimble.jpg","5","0","1647"
"3","3","encoding","encoding","72","Funnel.jpg","1","0","1151"
"3","3","encoding","encoding","73","KeyHook_Empty.jpg","1","0","1365"
"3","3","encoding","encoding","74","Spatula.jpg","1","0","1234"
"3","3","encoding","encoding","75","Hangar.jpg","1","0","1266"
"3","3","encoding","encoding","76","IceScraper.jpg","1","0","1074"
"3","3","encoding","encoding","77","Bell_Hand.jpg","1","0","1336"
"3","3","encoding","encoding","78","VacuumHandheld.jpg","1","0","1422"
"3","3","encoding","encoding","79","Calculator.jpg","1","0","1332"
"3","3","encoding","encoding","80","Chest_Toys.jpg","2","0","1788"
"3","3","encoding","encoding","81","Microphone.jpg","1","0","1306"
"3","3","encoding","encoding","82","Boxcutter.jpg","1","0","1433"
"3","3","encoding","encoding","83","CashRegister_Modern.jpg","1","0","1297"
"3","3","encoding","encoding","84","Dog_CockerSpaniel.jpg","4","0","1454"
"3","3","encoding","encoding","85","Hat_Visor.jpg","1","0","1367"
"3","3","encoding","encoding","86","Umbrella_Classic.jpg","1","0","1285"
"3","3","encoding","encoding","87","Toy_Truck.jpg","1","0","1187"
"3","3","encoding","encoding","88","Telephone_Booth.jpg","2","0","1457"
"3","3","encoding","encoding","89","Lollipop_Grape.jpg","2","0","1367"
"3","3","encoding","encoding","90","Helmet_Football.jpg","1","0","1327"
"3","3","encoding","encoding","91","Nuts_Walnut.jpg","1","0","1350"
"3","3","encoding","encoding","92","HoseNozzle.jpg","1","0","1317"
"3","3","encoding","encoding","93","Puffin.jpg","2","0","1443"
"3","3","encoding","encoding","94","Windmill_Building.jpg","7","0","1450"
"3","3","encoding","encoding","95","Hookah.jpg","7","0","1545"
"3","3","encoding","encoding","96","CrepeMaker.jpg","1","0","1519"
"3","3","encoding","encoding","97","Spoon_Wooden.jpg","1","0","1278"
"3","3","encoding","encoding","98","Blueprints.jpg","1","0","1581"
"3","3","encoding","encoding","99","Hat_Beret.jpg","1","0","1587"
"3","3","encoding","encoding","100","Goose_Canadian.jpg","3","0","1674"
"3","3","encoding","encoding","101","Bird_Peacock.jpg","5","0","1281"
"3","3","encoding","encoding","102","Car_Ferrari.jpg","1","0","1495"
"3","3","encoding","encoding","103","Toy_Chameleon.jpg","2","0","1735"
"3","3","encoding","encoding","104","BowlingPin.jpg","5","0","1212"
"3","3","encoding","encoding","105","Truck_Dump.jpg","1","0","1125"
"3","3","encoding","encoding","106","Tiara.jpg","4","0","1628"
"3","3","encoding","encoding","107","Corkboard.jpg","1","0","1449"
"3","3","encoding","encoding","108","Stick_Bridge.jpg","1","0","1753"
"3","3","encoding","encoding","109","Helmet_Construction.jpg","1","0","1161"
"3","3","encoding","encoding","110","Generator.jpg","1","0","1326"
"3","3","encoding","encoding","111","Dresser_1.jpg","1","0","1430"
"3","3","encoding","encoding","112","Cable_AudioSplitter.jpg","1","0","1258"
"3","3","encoding","encoding","113","SaxophoneSoprano.jpg","1","0","1252"
"3","3","encoding","encoding","114","Spoons_MeasuringDetached.jpg","2","0","1490"
"3","3","encoding","encoding","115","Guitarcase.jpg","2","0","1792"
"3","3","encoding","encoding","116","Can_GasSpout.jpg","1","0","1232"
"3","3","encoding","encoding","117","Figurine_Ballerina.jpg","1","0","1542"
"3","3","encoding","encoding","118","BabyMonitor.jpg","2","0","1612"
"3","3","encoding","encoding","119","JuiceBox.jpg","4","0","1643"
"3","3","encoding","encoding","120","Catheter.jpg","1","0","1407"
"3","3","encoding","encoding","121","Shark_Hammerhead.jpg","2","0","1353"
"3","3","encoding","encoding","123","Tag_Identifier.jpg","1","0","1270"
"3","3","encoding","encoding","124","BicycleHandleGrip.jpg","1","0","1460"
"3","3","encoding","encoding","125","FileDivider.jpg","1","0","1234"
"3","3","encoding","encoding","126","Flask_Metal.jpg","1","0","1241"
"3","3","encoding","encoding","127","LitterScoop.jpg","1","0","1119"
"3","3","encoding","encoding","128","Mask_Gas.jpg","1","0","1262"
"3","3","encoding","encoding","129","CarSuspension.jpg","1","0","1293"
"3","3","encoding","encoding","130","Projector_Film.jpg","1","0","1188"
"3","3","encoding","encoding","131","RibbonSpool.jpg","1","0","1308"
"3","3","encoding","encoding","132","Shoes_DutchClogs.jpg","7","0","1345"
"3","3","encoding","encoding","133","Mask_VenetianLongNose.jpg","2","0","1271"
"3","3","encoding","encoding","134","Bag_String.jpg","1","0","1223"
"3","3","encoding","encoding","135","CoinRolls.jpg","3","0","1646"
"3","3","encoding","encoding","136","Broom_Long.jpg","1","0","1244"
"3","3","encoding","encoding","137","Jar_Cookie.jpg","1","0","1443"
"3","3","encoding","encoding","138","Chair_Bamboo.jpg","1","0","1323"
"3","3","encoding","encoding","139","Knife_Hunting.jpg","1","0","1185"
"3","3","encoding","encoding","140","Phone_Wireless.jpg","1","0","1305"
"3","3","encoding","encoding","141","Table_Picnic.jpg","1","0","1184"
"3","3","encoding","encoding","142","MechanicalSpring.jpg","2","0","1055"
"3","3","encoding","encoding","143","Grill_Gas.jpg","5","0","1468"
"3","3","encoding","encoding","144","Shoes_Sneakers.jpg","2","0","1410"
"3","3","encoding","encoding","145","Hat_Hard.jpg","1","0","1178"
"3","3","encoding","encoding","146","Sign_SpeedLimit25.jpg","1","0","1697"
"3","3","encoding","encoding","147","Mattress.jpg","1","0","1399"
"3","3","encoding","encoding","148","Toy_Lighthouse.jpg","4","0","1619"
"3","3","encoding","encoding","149","MortarPestle_WhiteMarble.jpg","2","0","1420"
"3","3","encoding","encoding","150","LampPost_OneBulb.jpg","1","0","1667"
"3","3","encoding","encoding","151","Stool_Wood.jpg","1","0","1097"
"3","3","encoding","encoding","152","PaperShredder.jpg","1","0","1304"
"3","3","encoding","encoding","153","Scalpel.jpg","1","0","1168"
"3","3","encoding","encoding","154","Blackboard.jpg","1","0","1295"
"3","3","encoding","encoding","155","Can_OilSpout.jpg","1","0","1150"
"3","3","encoding","encoding","156","Basket_Plastic.jpg","1","0","1198"
"3","3","encoding","encoding","157","CookieCutter_Bell.jpg","7","0","1541"
"3","3","encoding","encoding","158","Lamp_Table.jpg","1","0","1508"
"3","3","encoding","encoding","159","MagazineRoll.jpg","1","0","1385"
"3","3","encoding","encoding","160","Cast.jpg","1","0","1472"
"3","3","encoding","encoding","161","MassageRoller.jpg","1","0","1534"
"3","3","encoding","encoding","162","Ring_Diamond.jpg","2","0","1582"
"3","3","encoding","encoding","163","Coconut.jpg","5","0","1340"
"3","3","encoding","encoding","164","BadgeSpecialAgent.jpg","1","0","1299"
"3","3","encoding","encoding","165","Brush_Nail.jpg","1","0","1218"
"3","3","encoding","encoding","166","Brush_BathBack.jpg","1","0","1289"
"3","3","encoding","encoding","167","Joystick.jpg","1","0","1254"
"3","3","encoding","encoding","168","Level.jpg","2","0","1293"
"3","3","encoding","encoding","169","Hand.jpg","1","0","1285"
"3","3","encoding","encoding","170","Cake_Cheese.jpg","2","0","1523"
"3","3","encoding","encoding","171","Cart_Groceries.jpg","3","0","1601"
"3","3","encoding","encoding","172","Glove_Baseball.jpg","1","0","1441"
"3","3","encoding","encoding","173","Card_Deck.jpg","7","0","1591"
"3","3","encoding","encoding","174","HumanSkeleton.jpg","1","0","1414"
"3","3","encoding","encoding","175","Shoe_WomenHeals.jpg","1","0","1381"
"3","3","encoding","encoding","176","Tie.jpg","1","0","1107"
"3","3","encoding","encoding","177","TartStrawberry.jpg","7","0","1449"
"3","3","retrieval","old_objects","1","Nuts_Walnut.jpg","36","1","858"
"3","3","retrieval","new_objects","2","Stone_Mill.jpg","37","1","758"
"3","3","retrieval","new_objects","3","Bottle_Specimen.jpg","37","1","654"
"3","3","retrieval","old_objects","4","Brush_BathBack.jpg","36","1","611"
"3","3","retrieval","new_objects","5","Cloud.jpg","37","1","665"
"3","3","retrieval","old_objects","6","Stool_Metal.jpg","36","1","645"
"3","3","retrieval","old_objects","7","Thimble.jpg","36","1","753"
"3","3","retrieval","old_objects","8","Instrument_Guiro.jpg","36","1","746"
"3","3","retrieval","old_objects","9","Lemon.jpg","36","1","739"
"3","3","retrieval","new_objects","10","BuildingChinese.jpg","37","1","732"
"3","3","retrieval","new_objects","11","Notebook.jpg","37","1","917"
"3","3","retrieval","old_objects","12","Guitarcase.jpg","36","1","792"
"3","3","retrieval","old_objects","13","Blueprints.jpg","36","1","551"
"3","3","retrieval","old_objects","14","Ball_Bowling.jpg","36","1","759"
"3","3","retrieval","new_objects","15","CuttingBoard.jpg","37","1","799"
"3","3","retrieval","old_objects","16","CrepeMaker.jpg","36","1","790"
"3","3","retrieval","old_objects","17","Toy_Bat.jpg","36","1","590"
"3","3","retrieval","old_objects","18","FileDivider.jpg","36","1","700"
"3","3","retrieval","old_objects","19","Spatula.jpg","36","1","711"
"3","3","retrieval","new_objects","20","sign_traffic.jpg","37","1","697"
"3","3","retrieval","old_objects","21","Bird_Peacock.jpg","36","1","756"
"3","3","retrieval","new_objects","22","Ashtray_Cigarettes.jpg","37","1","629"
"3","3","retrieval","new_objects","23","Ashtray_Empty.jpg","37","1","786"
"3","3","retrieval","new_objects","24","FireAlarm.jpg","37","1","833"
"3","3","retrieval","new_objects","25","Cat.jpg","37","1","719"
"3","3","retrieval","new_objects","26","Fruit_Carambola.jpg","37","1","689"
"3","3","retrieval","old_objects","27","DoubleBass.jpg","36","1","860"
"3","3","retrieval","new_objects","28","Sphinx.jpg","37","1","672"
"3","3","retrieval","new_objects","29","MouthGuard.jpg","37","1","772"
"3","3","retrieval","new_objects","30","Hat_Feather.jpg","37","1","668"
"3","3","retrieval","old_objects","31","PaperShredder.jpg","36","1","648"
"3","3","retrieval","old_objects","32","Cable_AudioSplitter.jpg","36","1","717"
"3","3","retrieval","old_objects","33","CookieCutter_Bell.jpg","36","1","567"
"3","3","retrieval","old_objects","34","Telephone_Booth.jpg","36","1","623"
"3","3","retrieval","old_objects","35","Tiara.jpg","36","1","613"
"3","3","retrieval","new_objects","36","Brush_Cleaning.jpg","37","1","795"
"3","3","retrieval","old_objects","37","DrinkingFountain.jpg","36","1","761"
"3","3","retrieval","new_objects","38","Toy_TableSet.jpg","37","1","649"
"3","3","retrieval","new_objects","39","Camera_Video.jpg","37","1","710"
"3","3","retrieval","old_objects","40","Fruit_Cactus.jpg","36","1","504"
"3","3","retrieval","new_objects","41","Barbecue_Gas.jpg","37","1","771"
"3","3","retrieval","old_objects","42","PokerChips.jpg","36","1","811"
"3","3","retrieval","old_objects","43","Cart_Groceries.jpg","36","1","545"
"3","3","retrieval","new_objects","44","SlideViewer.jpg","37","1","682"
"3","3","retrieval","new_objects","45","Table_PingPong.jpg","37","1","669"
"3","3","retrieval","old_objects","46","Toy_Lighthouse.jpg","36","1","657"
"3","3","retrieval","old_objects","47","Phone_Wireless.jpg","36","1","662"
"3","3","retrieval","old_objects","48","Blackboard.jpg","36","1","553"
"3","3","retrieval","new_objects","49","MetalDetector.jpg","37","1","730"
"3","3","retrieval","new_objects","50","Bicycle_Adult.jpg","37","1","644"
"3","3","retrieval","old_objects","51","Microphone.jpg","36","1","704"
"3","3","retrieval","new_objects","52","Bag_Doctor.jpg","37","1","707"
"3","3","retrieval","new_objects","53","Hook_Fish.jpg","37","1","654"
"3","3","retrieval","old_objects","54","Sled.jpg","36","1","698"
"3","3","retrieval","new_objects","55","Egg_Wooden.jpg","37","1","693"
"3","3","retrieval","old_objects","56","HoseNozzle.jpg","36","1","792"
"3","3","retrieval","new_objects","57","TinChristmas.jpg","37","1","598"
"3","3","retrieval","old_objects","58","Knife_Hunting.jpg","36","1","733"
"3","3","retrieval","old_objects","59","Can_GasSpout.jpg","36","1","822"
"3","3","retrieval","old_objects","60","Cast.jpg","36","1","629"
"3","3","retrieval","old_objects","62","Shoes_Sneakers.jpg","36","1","684"
"3","3","retrieval","old_objects","63","TrapAnimal.jpg","36","1","799"
"3","3","retrieval","old_objects","64","Shoe_WomenHeals.jpg","36","1","614"
"3","3","retrieval","old_objects","65","Hat_Beret.jpg","36","1","732"
"3","3","retrieval","new_objects","66","Foam_Accoustic.jpg","36","0","565"
"3","3","retrieval","new_objects","67","Pants.jpg","37","1","694"
"3","3","retrieval","old_objects","68","Chest_Toys.jpg","36","1","672"
"3","3","retrieval","new_objects","69","Bottle_BubbleBlower.jpg","37","1","628"
"3","3","retrieval","old_objects","70","Toy_Chameleon.jpg","36","1","593"
"3","3","retrieval","new_objects","71","Thermometer_Room.jpg","37","1","656"
"3","3","retrieval","old_objects","72","Boat_Trailer.jpg","36","1","645"
"3","3","retrieval","new_objects","73","Toy_Octopus.jpg","37","1","618"
"3","3","retrieval","old_objects","74","SaxophoneSoprano.jpg","36","1","623"
"3","3","retrieval","old_objects","75","KeyHook_Empty.jpg","36","1","637"
"3","3","retrieval","old_objects","76","Shoes_DutchClogs.jpg","36","1","507"
"3","3","retrieval","old_objects","77","Shark_Hammerhead.jpg","36","1","789"
"3","3","retrieval","new_objects","78","Drum_Brazilan.jpg","37","1","885"
"3","3","retrieval","new_objects","79","Dreamcatcher.jpg","37","1","744"
"3","3","retrieval","old_objects","80","MetalChain.jpg","36","1","656"
"3","3","retrieval","new_objects","81","Kazoo.jpg","37","1","693"
"3","3","retrieval","new_objects","82","Statue_Horse.jpg","37","1","664"
"3","3","retrieval","old_objects","83","IceScraper.jpg","36","1","716"
"3","3","retrieval","new_objects","84","PhoneCase.jpg","37","1","678"
"3","3","retrieval","new_objects","85","RollingPin.jpg","37","1","722"
"3","3","retrieval","old_objects","86","VacuumHandheld.jpg","36","1","747"
"3","3","retrieval","new_objects","87","Jug_GallonRed.jpg","36","0","684"
"3","3","retrieval","new_objects","88","Tree_Fir.jpg","37","1","592"
"3","3","retrieval","old_objects","89","Hookah.jpg","36","1","663"
"3","3","retrieval","new_objects","90","Soap.jpg","37","1","690"
"3","3","retrieval","new_objects","91","Glass_Ball.jpg","37","1","718"
"3","3","retrieval","old_objects","92","Helmet_Football.jpg","36","1","656"
"3","3","retrieval","old_objects","93","Grill_Gas.jpg","36","1","861"
"3","3","retrieval","old_objects","94","Catheter.jpg","36","1","609"
"3","3","retrieval","old_objects","95","Mask_VenetianLongNose.jpg","36","1","599"
"3","3","retrieval","new_objects","96","Coral.jpg","37","1","710"
"3","3","retrieval","old_objects","97","Bat_Baseball.jpg","36","1","600"
"3","3","retrieval","old_objects","98","Car_Ferrari.jpg","36","1","638"
"3","3","retrieval","old_objects","99","Figurine_Ballerina.jpg","36","1","628"
"3","3","retrieval","new_objects","100","Fryingpan.jpg","37","1","609"
"3","3","retrieval","old_objects","101","Bench_Concrete.jpg","36","1","624"
"3","3","retrieval","old_objects","102","Tag_Identifier.jpg","36","1","622"
"3","3","retrieval","new_objects","103","Table_Conference.jpg","37","1","580"
"3","3","retrieval","new_objects","104","Hose_Garden.jpg","37","1","683"
"3","3","retrieval","old_objects","105","MagazineRoll.jpg","36","1","655"
"3","3","retrieval","new_objects","106","CoolingFan_Engine.jpg","37","1","812"
"3","3","retrieval","new_objects","107","Brooch_Fish.jpg","37","1","601"
"3","3","retrieval","old_objects","108","Broom_Long.jpg","36","1","592"
"3","3","retrieval","new_objects","109","Bench_Park.jpg","36","0","791"
"3","3","retrieval","new_objects","110","Ball_Football.jpg","37","1","782"
"3","3","retrieval","old_objects","111","Windmill_Building.jpg","36","1","789"
"3","3","retrieval","old_objects","112","Tie.jpg","37","0","781"
"3","3","retrieval","new_objects","113","Compressor.jpg","37","1","716"
"3","3","retrieval","new_objects","114","Makeup_Foundation.jpg","37","1","542"
"3","3","retrieval","new_objects","115","SaltShaker.jpg","37","1","614"
"3","3","retrieval","new_objects","116","AirTank.jpg","36","0","893"
"3","3","retrieval","new_objects","117","Lips_Real.jpg","37","1","631"
"3","3","retrieval","new_objects","118","Pitcher.jpg","37","1","652"
"3","3","retrieval","old_objects","119","Generator.jpg","36","1","881"
"3","3","retrieval","old_objects","120","RugRoled.jpg","36","1","613"
"3","3","retrieval","new_objects","121","Organ.jpg","37","1","683"
"3","3","retrieval","new_objects","123","Honeydew_Green.jpg","37","1","874"
"3","3","retrieval","new_objects","124","Cranberry.jpg","37","1","646"
"3","3","retrieval","old_objects","125","Toy_Truck.jpg","36","1","546"
"3","3","retrieval","old_objects","126","Chime.jpg","36","1","491"
"3","3","retrieval","new_objects","127","StampAndSeal.jpg","37","1","718"
"3","3","retrieval","old_objects","128","Projector_Film.jpg","36","1","640"
"3","3","retrieval","new_objects","129","Tube.jpg","37","1","845"
"3","3","retrieval","new_objects","130","ChariotGold.jpg","37","1","738"
"3","3","retrieval","new_objects","131","Tribunal_Wooden.jpg","37","1","755"
"3","3","retrieval","old_objects","132","Boxcutter.jpg","36","1","652"
"3","3","retrieval","old_objects","133","AmberWithMosquito.jpg","36","1","649"
"3","3","retrieval","new_objects","134","Bucket_Halloween.jpg","37","1","637"
"3","3","retrieval","old_objects","135","Goose_Canadian.jpg","36","1","578"
"3","3","retrieval","new_objects","136","SandBagThrowGame.jpg","37","1","658"
"3","3","retrieval","new_objects","137","Honeydew_yellow.jpg","37","1","759"
"3","3","retrieval","new_objects","138","Boat_Row.jpg","37","1","590"
"3","3","retrieval","old_objects","139","Truck_Dump.jpg","36","1","910"
"3","3","retrieval","old_objects","140","RemoteControl.jpg","36","1","537"
"3","3","retrieval","old_objects","141","MassageRoller.jpg","36","1","530"
"3","3","retrieval","new_objects","142","Flags_CheckeredRacing.jpg","37","1","571"
"3","3","retrieval","new_objects","143","Tombstone.jpg","37","1","683"
"3","3","retrieval","old_objects","144","HumanSkeleton.jpg","36","1","550"
"3","3","retrieval","new_objects","145","Table_AntiqueWooden.jpg","37","1","567"
"3","3","retrieval","new_objects","146","Bird_Cardinal.jpg","37","1","591"
"3","3","retrieval","old_objects","147","Bathtub.jpg","36","1","670"
"3","3","retrieval","old_objects","148","Barometer_Wood.jpg","36","1","627"
"3","3","retrieval","new_objects","149","WashRack.jpg","37","1","568"
"3","3","retrieval","new_objects","150","Elephant.jpg","37","1","576"
"3","3","retrieval","old_objects","151","BadgeSpecialAgent.jpg","36","1","656"
"3","3","retrieval","old_objects","152","ComputerKeyboard.jpg","36","1","573"
"3","3","retrieval","old_objects","153","Humidifier.jpg","36","1","581"
"3","3","retrieval","old_objects","154","Mask_Gas.jpg","36","1","636"
"3","3","retrieval","new_objects","155","Paddle_PingPong.jpg","37","1","825"
"3","3","retrieval","old_objects","156","Centrifuge.jpg","36","1","679"
"3","3","retrieval","old_objects","157","Hanger.jpg","36","1","642"
"3","3","retrieval","new_objects","158","Saw.jpg","37","1","719"
"3","3","retrieval","new_objects","159","Instrument_African.jpg","37","1","761"
"3","3","retrieval","new_objects","160","MeatRaw.jpg","37","1","689"
"3","3","retrieval","new_objects","161","MeatGrinder.jpg","37","1","629"
"3","3","retrieval","new_objects","162","DonaldDuck_Toy.jpg","37","1","586"
"3","3","retrieval","new_objects","163","Lock_Key.jpg","37","1","585"
"3","3","retrieval","old_objects","164","RibbonSpool.jpg","36","1","609"
"3","3","retrieval","new_objects","165","Suit_Women.jpg","37","1","582"
"3","3","retrieval","new_objects","166","Toy_Chicken.jpg","37","1","566"
"3","3","retrieval","new_objects","167","Notepad_WithPen.jpg","37","1","582"
"3","3","retrieval","old_objects","168","Calculator.jpg","36","1","837"
"3","3","retrieval","new_objects","169","DryRack_Dishes.jpg","37","1","634"
"3","3","retrieval","new_objects","170","Shrub_Boxwood.jpg","37","1","592"
"3","3","retrieval","new_objects","171","Spoon_Serving.jpg","37","1","623"
"3","3","retrieval","old_objects","172","Boardgame_ChineseCheckers.jpg","36","1","717"
"3","3","retrieval","new_objects","173","Mango.jpg","37","1","695"
"3","3","retrieval","old_objects","174","Can_OilSpout.jpg","37","0","673"
"3","3","retrieval","old_objects","175","Lollipop_Grape.jpg","36","1","677"
"3","3","retrieval","new_objects","176","Microscope.jpg","37","1","808"
"3","3","retrieval","old_objects","177","BusStop.jpg","36","1","895"
"3","3","retrieval","new_objects","178","Boardgame_Chess.jpg","37","1","674"
"3","3","retrieval","new_objects","179","CinderBlock.jpg","37","1","782"
"3","3","retrieval","new_objects","180","Flamingo_Cartoon.jpg","37","1","893"
"3","3","retrieval","new_objects","181","PulleyWooden.jpg","37","1","840"
"3","3","retrieval","new_objects","182","Cork.jpg","37","1","693"
"3","3","retrieval","old_objects","184","Photocopier.jpg","36","1","562"
"3","3","retrieval","old_objects","185","Bag_String.jpg","36","1","602"
"3","3","retrieval","new_objects","186","Ramekin.jpg","37","1","737"
"3","3","retrieval","old_objects","187","Glove_Baseball.jpg","36","1","697"
"3","3","retrieval","new_objects","188","HairClip.jpg","37","1","596"
"3","3","retrieval","new_objects","189","Toy_ModelMolecule.jpg","37","1","531"
"3","3","retrieval","old_objects","190","Ladybug.jpg","36","1","565"
"3","3","retrieval","old_objects","191","Table_Picnic.jpg","36","1","549"
"3","3","retrieval","new_objects","192","ButterChurn.jpg","37","1","677"
"3","3","retrieval","new_objects","193","Toy_WinnieThePooh.jpg","37","1","577"
"3","3","retrieval","old_objects","194","Toast.jpg","36","1","592"
"3","3","retrieval","old_objects","195","Helmet_Construction.jpg","36","1","544"
"3","3","retrieval","old_objects","196","Dresser_1.jpg","36","1","624"
"3","3","retrieval","new_objects","197","Ball_8.jpg","37","1","695"
"3","3","retrieval","new_objects","198","Playground.jpg","37","1","689"
"3","3","retrieval","old_objects","199","CashRegister_Modern.jpg","36","1","748"
"3","3","retrieval","old_objects","200","Taco.jpg","36","1","541"
"3","3","retrieval","old_objects","201","Stool_Wood.jpg","36","1","599"
"3","3","retrieval","old_objects","202","LampPost_OneBulb.jpg","36","1","557"
"3","3","retrieval","new_objects","203","Syringe_Needle.jpg","37","1","590"
"3","3","retrieval","old_objects","204","Seahorse.jpg","36","1","549"
"3","3","retrieval","new_objects","205","Glass_Cup.jpg","37","1","694"
"3","3","retrieval","new_objects","206","SewingPin_Cushion.jpg","37","1","672"
"3","3","retrieval","new_objects","207","PanCooking.jpg","37","1","605"
"3","3","retrieval","old_objects","208","Bell_Hand.jpg","36","1","667"
"3","3","retrieval","new_objects","209","Candy_Cotton.jpg","37","1","551"
"3","3","retrieval","old_objects","210","Locomotive.jpg","36","1","752"
"3","3","retrieval","new_objects","211","Toy_Top.jpg","37","1","657"
"3","3","retrieval","new_objects","212","Paratrooper.jpg","37","1","573"
"3","3","retrieval","new_objects","213","VacuumHose.jpg","37","1","637"
"3","3","retrieval","old_objects","214","Drum_Cymbal.jpg","36","1","555"
"3","3","retrieval","new_objects","215","Pipe_Drain.jpg","37","1","635"
"3","3","retrieval","old_objects","216","FoodMill.jpg","37","0","696"
"3","3","retrieval","old_objects","217","Corkboard.jpg","36","1","643"
"3","3","retrieval","new_objects","218","Fortress.jpg","37","1","664"
"3","3","retrieval","new_objects","219","Scrabble.jpg","37","1","636"
"3","3","retrieval","old_objects","220","BowlingPin.jpg","36","1","553"
"3","3","retrieval","old_objects","221","Toy_SeeSaw.jpg","36","1","666"
"3","3","retrieval","old_objects","222","Helicopter.jpg","36","1","678"
"3","3","retrieval","new_objects","223","Lighter_Yellow.jpg","37","1","641"
"3","3","retrieval","new_objects","224","Basket_Bread.jpg","37","1","711"
"3","3","retrieval","old_objects","225","Truck_Pickup.jpg","36","1","592"
"3","3","retrieval","new_objects","226","House_Doll.jpg","37","1","647"
"3","3","retrieval","old_objects","227","RibbonString.jpg","36","1","548"
"3","3","retrieval","old_objects","228","Level.jpg","36","1","788"
"3","3","retrieval","old_objects","229","Umbrella_Classic.jpg","36","1","596"
"3","3","retrieval","new_objects","230","MobilityScooter.jpg","37","1","610"
"3","3","retrieval","old_objects","231","Shampoo.jpg","36","1","728"
"3","3","retrieval","old_objects","232","Hat_Visor.jpg","36","1","585"
"3","3","retrieval","old_objects","233","MechanicalSpring.jpg","36","1","545"
"3","3","retrieval","new_objects","234","BearPolar.jpg","37","1","642"
"3","3","retrieval","old_objects","235","Glasses_Reading.jpg","37","0","1055"
"3","3","retrieval","old_objects","236","Brace_Neck.jpg","36","1","796"
"3","3","retrieval","old_objects","237","Puffin.jpg","36","1","699"
"3","3","retrieval","old_objects","238","HotWaterBottle.jpg","36","1","749"
"3","3","retrieval","new_objects","239","Sign_Caution.jpg","37","1","782"
"3","3","retrieval","old_objects","240","DormerWindow.jpg","36","1","589"
"3","3","retrieval","new_objects","241","ButterDish.jpg","37","1","772"
"3","3","retrieval","old_objects","242","Mattress.jpg","36","1","540"
"3","3","retrieval","old_objects","243","Funnel.jpg","37","0","686"
"3","3","retrieval","old_objects","245","CarSuspension.jpg","37","0","563"
"3","3","retrieval","new_objects","246","ShotGlassTray.jpg","37","1","975"
"3","3","retrieval","old_objects","247","Cake_Cheese.jpg","36","1","723"
"3","3","retrieval","old_objects","248","MortarPestle_WhiteMarble.jpg","36","1","549"
"3","3","retrieval","new_objects","249","Protractor.jpg","37","1","598"
"3","3","retrieval","old_objects","250","Spoon_Wooden.jpg","36","1","748"
"3","3","retrieval","old_objects","251","Hangar.jpg","36","1","693"
"3","3","retrieval","new_objects","252","Crate_Milk.jpg","36","0","560"
"3","3","retrieval","new_objects","253","PropellerFan.jpg","37","1","632"
"3","3","retrieval","new_objects","254","TailLight.jpg","37","1","557"
"3","3","retrieval","new_objects","255","Cup_sippy.jpg","37","1","486"
"3","3","retrieval","old_objects","256","ChocolateBar_Unwrapped.jpg","36","1","569"
"3","3","retrieval","old_objects","257","Hand.jpg","36","1","585"
"3","3","retrieval","new_objects","258","Currants.jpg","37","1","616"
"3","3","retrieval","new_objects","259","PaperTowel_Brown.jpg","37","1","639"
"3","3","retrieval","new_objects","260","Stone_Spa.jpg","37","1","571"
"3","3","retrieval","new_objects","261","Swing_Porch.jpg","37","1","731"
"3","3","retrieval","old_objects","262","HedgeShears.jpg","36","1","621"
"3","3","retrieval","new_objects","263","Stamper.jpg","37","1","699"
"3","3","retrieval","old_objects","264","Bottle_Liquor.jpg","36","1","646"
"3","3","retrieval","old_objects","265","Basket_Plastic.jpg","36","1","682"
"3","3","retrieval","new_objects","266","Toy_RabbitPlushie.jpg","37","1","582"
"3","3","retrieval","old_objects","267","Wheel_Steering.jpg","36","1","597"
"3","3","retrieval","new_objects","268","HairClipper.jpg","37","1","683"
"3","3","retrieval","old_objects","269","Bird_Pelican.jpg","36","1","695"
"3","3","retrieval","new_objects","270","Table_Set.jpg","37","1","602"
"3","3","retrieval","old_objects","271","BicycleHandleGrip.jpg","36","1","688"
"3","3","retrieval","new_objects","272","Golf_Bag.jpg","37","1","635"
"3","3","retrieval","old_objects","273","SewingPin_Single.jpg","36","1","601"
"3","3","retrieval","new_objects","274","CigarCutter.jpg","37","1","719"
"3","3","retrieval","old_objects","275","Hat_Hard.jpg","36","1","705"
"3","3","retrieval","new_objects","276","Bowl_Chopsticks.jpg","37","1","676"
"3","3","retrieval","old_objects","277","Card_Deck.jpg","36","1","672"
"3","3","retrieval","new_objects","278","Bolt_WithNut.jpg","37","1","661"
"3","3","retrieval","new_objects","279","Film_Single.jpg","37","1","768"
"3","3","retrieval","old_objects","280","Dog_CockerSpaniel.jpg","36","1","696"
"3","3","retrieval","new_objects","281","Apple_RedAndGreen.jpg","37","1","707"
"3","3","retrieval","new_objects","282","MousepadAndMouse.jpg","37","1","605"
"3","3","retrieval","old_objects","283","Brush_Paint.jpg","36","1","579"
"3","3","retrieval","old_objects","284","Flask_Metal.jpg","36","1","675"
"3","3","retrieval","old_objects","285","Lamp_Table.jpg","36","1","583"
"3","3","retrieval","new_objects","286","Toolbox_BlackOpen.jpg","37","1","678"
"3","3","retrieval","new_objects","287","VialLab.jpg","37","1","601"
"3","3","retrieval","old_objects","288","Joystick.jpg","36","1","568"
"3","3","retrieval","old_objects","289","Trowel.jpg","36","1","720"
"3","3","retrieval","new_objects","290","Cup_Styrofoam.jpg","37","1","626"
"3","3","retrieval","new_objects","291","Cassette_Audio.jpg","37","1","639"
"3","3","retrieval","old_objects","292","HumanSkull.jpg","36","1","845"
"3","3","retrieval","new_objects","293","Sieve_TopView.jpg","37","1","666"
"3","3","retrieval","old_objects","294","LitterScoop.jpg","36","1","758"
"3","3","retrieval","old_objects","295","Brush_Nail.jpg","36","1","662"
"3","3","retrieval","old_objects","296","Ring_Diamond.jpg","36","1","554"
"3","3","retrieval","new_objects","297","Bib.jpg","37","1","571"
"3","3","retrieval","old_objects","298","CoinRolls.jpg","36","1","619"
"3","3","retrieval","old_objects","299","Arm.jpg","36","1","593"
"3","3","retrieval","old_objects","300","Nyala.jpg","36","1","800"
"3","3","retrieval","old_objects","301","Qtip_Single.jpg","36","1","575"
"3","3","retrieval","old_objects","302","Chair_Bamboo.jpg","36","1","631"
"3","3","retrieval","old_objects","303","Scalpel.jpg","36","1","756"
"3","3","retrieval","new_objects","304","Paddle_Canoe.jpg","37","1","725"
"3","3","retrieval","new_objects","306","KiddiePool.jpg","37","1","691"
"3","3","retrieval","new_objects","307","Deodorant.jpg","37","1","742"
"3","3","retrieval","new_objects","308","Honeycomb.jpg","37","1","631"
"3","3","retrieval","new_objects","309","Drill.jpg","37","1","788"
"3","3","retrieval","old_objects","310","ColumnMarble.jpg","36","1","556"
"3","3","retrieval","new_objects","311","StockingChristmas.jpg","37","1","548"
"3","3","retrieval","old_objects","312","BakingDish.jpg","36","1","597"
"3","3","retrieval","new_objects","313","Baster.jpg","37","1","604"
"3","3","retrieval","old_objects","314","Syrup_Maple.jpg","36","1","650"
"3","3","retrieval","new_objects","315","KitchenCloth.jpg","37","1","607"
"3","3","retrieval","old_objects","316","Jar_Cookie.jpg","36","1","614"
"3","3","retrieval","new_objects","317","Light_Traffic.jpg","37","1","731"
"3","3","retrieval","new_objects","318","Lock_Bike.jpg","37","1","876"
"3","3","retrieval","new_objects","319","IceCream_Popsicle.jpg","37","1","624"
"3","3","retrieval","old_objects","320","Coconut.jpg","36","1","614"
"3","3","retrieval","new_objects","321","Steam_Cleaner.jpg","37","1","700"
"3","3","retrieval","old_objects","322","JuiceBox.jpg","36","1","599"
"3","3","retrieval","new_objects","323","SlushieMachine.jpg","37","1","702"
"3","3","retrieval","new_objects","324","Ruler_Digital.jpg","37","1","616"
"3","3","retrieval","old_objects","325","Stick_Bridge.jpg","37","0","582"
"3","3","retrieval","new_objects","326","Flower_Crane.jpg","37","1","550"
"3","3","retrieval","new_objects","327","Tractor_Yellow.jpg","37","1","598"
"3","3","retrieval","new_objects","328","Bat_Cricket.jpg","37","1","589"
"3","3","retrieval","old_objects","329","BabyMonitor.jpg","36","1","668"
"3","3","retrieval","new_objects","330","Spotlight.jpg","37","1","584"
"3","3","retrieval","new_objects","331","Backpack_Travel.jpg","37","1","719"
"3","3","retrieval","old_objects","332","Decoration_ChristmasRed.jpg","36","1","578"
"3","3","retrieval","new_objects","333","Wire_ElectricalSingle.jpg","37","1","665"
"3","3","retrieval","old_objects","334","Can_Gas.jpg","36","1","613"
"3","3","retrieval","old_objects","335","PeasSplit.jpg","36","1","499"
"3","3","retrieval","new_objects","336","Boot_Rain.jpg","37","1","670"
"3","3","retrieval","new_objects","337","Toolbox_Red.jpg","37","1","634"
"3","3","retrieval","new_objects","338","Desk_School.jpg","37","1","615"
"3","3","retrieval","new_objects","339","Horn_French.jpg","37","1","621"
"3","3","retrieval","new_objects","340","Boardgame_Checkers.jpg","37","1","667"
"3","3","retrieval","new_objects","341","Light_Halogen.jpg","37","1","623"
"3","3","retrieval","old_objects","342","DogHouse.jpg","36","1","565"
"3","3","retrieval","old_objects","343","Toy_Zebra.jpg","36","1","597"
"3","3","retrieval","old_objects","344","TartStrawberry.jpg","36","1","532"
"3","3","retrieval","old_objects","345","BrainSagittal.jpg","36","1","629"
"3","3","retrieval","old_objects","346","PatioHeater.jpg","36","1","602"
"3","3","retrieval","old_objects","347","Sign_SpeedLimit25.jpg","36","1","489"
"3","3","retrieval","new_objects","348","Shoe_Men.jpg","37","1","660"
"3","3","retrieval","old_objects","349","Sign_Construction.jpg","36","1","840"
"3","3","retrieval","new_objects","350","Toy_Tank.jpg","37","1","589"
"3","3","retrieval","old_objects","351","Chair_Car.jpg","36","1","749"
"3","3","retrieval","new_objects","352","Archery_Arrows.jpg","37","1","558"
"3","3","retrieval","new_objects","353","LaundryHamper.jpg","37","1","629"
"3","3","retrieval","old_objects","354","ScaleWeighing.jpg","36","1","723"
"3","3","retrieval","old_objects","355","Spoons_MeasuringDetached.jpg","36","1","693"
"3","3","demographics_block","gender","1","Spoons_MeasuringDetached.jpg","female","1","14397"
"3","3","demographics_block","age","1","Spoons_MeasuringDetached.jpg","38","1","14397"
"3","3","demographics_block","education","1","Spoons_MeasuringDetached.jpg","15","1","14397"
"3","3","demographics_block","left_right_handed","2","Spoons_MeasuringDetached.jpg","Right","1","6656"
"3","3","demographics_block","raceoption1","2","Spoons_MeasuringDetached.jpg","0","1","6656"
"3","3","demographics_block","raceoption2","2","Spoons_MeasuringDetached.jpg","","1","6656"
"3","3","demographics_block","raceoption3","2","Spoons_MeasuringDetached.jpg","","1","6656"
"3","3","demographics_block","raceoption4","2","Spoons_MeasuringDetached.jpg","","1","6656"
"3","3","demographics_block","raceoption5","2","Spoons_MeasuringDetached.jpg","","1","6656"
"3","3","demographics_block","raceoption6","2","Spoons_MeasuringDetached.jpg","","1","6656"
"3","3","demographics_block","raceoption7","2","Spoons_MeasuringDetached.jpg","","1","6656"
"3","3","demographics_block","raceoption8","2","Spoons_MeasuringDetached.jpg","","1","6656"
"3","3","demographics_block","raceoption9","2","Spoons_MeasuringDetached.jpg","","1","6656"
"3","3","demographics_block","raceother","2","Spoons_MeasuringDetached.jpg","","1","6656"
"3","3","demographics_block","raceother","2","Spoons_MeasuringDetached.jpg","","1","6656"
"3","3","demographics_block","english_language","2","Spoons_MeasuringDetached.jpg","Yes","1","6656"
"3","3","demographics_block","english_languageother","2","Spoons_MeasuringDetached.jpg","","1","6656"
"3","3","demographics_block","eyesight","3","Spoons_MeasuringDetached.jpg","Yes","1","6174"
"3","3","demographics_block","colorblind","3","Spoons_MeasuringDetached.jpg","No","1","6174"
"3","3","worker_id_block","worker_id_textbox","1","Spoons_MeasuringDetached.jpg","A2196WCNDZULFS","1","13677"
"6","6","encoding","encoding","1","Stick_Bridge.jpg","0","0","3000"
"6","6","encoding","encoding","2","Windmill_Building.jpg","0","0","3000"
"6","6","encoding","encoding","3","Blueprints.jpg","0","0","3000"
"6","6","encoding","encoding","4","DormerWindow.jpg","0","0","3000"
"6","6","encoding","encoding","5","Broom_Long.jpg","0","0","3000"
"6","6","encoding","encoding","6","Chair_Car.jpg","0","0","3000"
"6","6","encoding","encoding","7","VacuumHandheld.jpg","0","0","3000"
"6","6","encoding","encoding","8","Instrument_Guiro.jpg","0","0","3000"
"6","6","encoding","encoding","9","CarSuspension.jpg","0","0","3000"
"6","6","encoding","encoding","10","Jar_Cookie.jpg","0","0","3000"
"6","6","encoding","encoding","11","Knife_Hunting.jpg","0","0","3000"
"6","6","encoding","encoding","12","Spoon_Wooden.jpg","0","0","3000"
"6","6","encoding","encoding","13","Brush_Paint.jpg","0","0","3000"
"6","6","encoding","encoding","14","Glasses_Reading.jpg","0","0","3000"
"6","6","encoding","encoding","15","Shark_Hammerhead.jpg","0","0","3000"
"6","6","encoding","encoding","16","Stool_Wood.jpg","0","0","3000"
"6","6","encoding","encoding","17","Blackboard.jpg","0","0","3000"
"6","6","encoding","encoding","18","Hand.jpg","0","0","3000"
"6","6","encoding","encoding","19","Mask_VenetianLongNose.jpg","0","0","3000"
"6","6","encoding","encoding","20","Glove_Baseball.jpg","0","0","3000"
"6","6","encoding","encoding","21","Card_Deck.jpg","0","0","3000"
"6","6","encoding","encoding","22","Cable_AudioSplitter.jpg","7","0","937"
"6","6","encoding","encoding","23","Photocopier.jpg","0","0","3000"
"6","6","encoding","encoding","24","BusStop.jpg","0","0","3000"
"6","6","encoding","encoding","25","ChocolateBar_Unwrapped.jpg","0","0","3000"
"6","6","encoding","encoding","26","Can_Gas.jpg","0","0","3000"
"6","6","encoding","encoding","27","MetalChain.jpg","0","0","3000"
"6","6","encoding","encoding","28","Wheel_Steering.jpg","0","0","3000"
"6","6","encoding","encoding","29","SaxophoneSoprano.jpg","0","0","3000"
"6","6","encoding","encoding","30","Sign_Construction.jpg","6","0","1294"
"6","6","encoding","encoding","31","Telephone_Booth.jpg","0","0","3000"
"6","6","encoding","encoding","32","Tag_Identifier.jpg","0","0","3000"
"6","6","encoding","encoding","33","Flask_Metal.jpg","0","0","3000"
"6","6","encoding","encoding","34","RugRoled.jpg","0","0","3000"
"6","6","encoding","encoding","35","Hookah.jpg","0","0","3000"
"6","6","encoding","encoding","36","BowlingPin.jpg","0","0","3000"
"6","6","encoding","encoding","37","BakingDish.jpg","0","0","3000"
"6","6","encoding","encoding","38","Truck_Pickup.jpg","0","0","3000"
"6","6","encoding","encoding","39","Bat_Baseball.jpg","0","0","3000"
"6","6","encoding","encoding","40","MechanicalSpring.jpg","0","0","3000"
"6","6","encoding","encoding","41","Car_Ferrari.jpg","0","0","3000"
"6","6","encoding","encoding","42","SewingPin_Single.jpg","0","0","3000"
"6","6","encoding","encoding","43","Goose_Canadian.jpg","0","0","3000"
"6","6","encoding","encoding","44","DogHouse.jpg","0","0","3000"
"6","6","encoding","encoding","45","Bag_String.jpg","0","0","3000"
"6","6","encoding","encoding","46","TrapAnimal.jpg","0","0","3000"
"6","6","encoding","encoding","47","Level.jpg","0","0","3000"
"6","6","encoding","encoding","48","Cart_Groceries.jpg","0","0","3000"
"6","6","encoding","encoding","49","PatioHeater.jpg","0","0","3000"
"6","6","encoding","encoding","50","Ladybug.jpg","0","0","3000"
"6","6","encoding","encoding","51","Mattress.jpg","0","0","3000"
"6","6","encoding","encoding","52","Hangar.jpg","0","0","3000"
"6","6","encoding","encoding","53","Lemon.jpg","0","0","3000"
"6","6","encoding","encoding","54","Humidifier.jpg","0","0","3000"
"6","6","encoding","encoding","55","IceScraper.jpg","0","0","3000"
"6","6","encoding","encoding","56","Hanger.jpg","0","0","3000"
"6","6","encoding","encoding","57","Toast.jpg","0","0","3000"
"6","6","encoding","encoding","58","Coconut.jpg","0","0","3000"
"6","6","encoding","encoding","59","Decoration_ChristmasRed.jpg","0","0","3000"
"6","6","encoding","encoding","60","Brush_BathBack.jpg","0","0","3000"
"6","6","encoding","encoding","62","Toy_Zebra.jpg","4","0","620"
"6","6","encoding","encoding","63","AmberWithMosquito.jpg","0","0","3000"
"6","6","encoding","encoding","64","Chair_Bamboo.jpg","0","0","3000"
"6","6","encoding","encoding","65","Phone_Wireless.jpg","0","0","3000"
"6","6","encoding","encoding","66","Toy_Truck.jpg","0","0","3000"
"6","6","encoding","encoding","67","Truck_Dump.jpg","0","0","3000"
"6","6","encoding","encoding","68","Arm.jpg","0","0","3000"
"6","6","encoding","encoding","69","HumanSkeleton.jpg","0","0","3000"
"6","6","encoding","encoding","70","Ring_Diamond.jpg","0","0","3000"
"6","6","encoding","encoding","71","Toy_Lighthouse.jpg","0","0","3000"
"6","6","encoding","encoding","72","Bottle_Liquor.jpg","0","0","3000"
"6","6","encoding","encoding","73","CrepeMaker.jpg","0","0","3000"
"6","6","encoding","encoding","74","CashRegister_Modern.jpg","0","0","3000"
"6","6","encoding","encoding","75","Puffin.jpg","0","0","3000"
"6","6","encoding","encoding","76","Basket_Plastic.jpg","0","0","3000"
"6","6","encoding","encoding","77","Hat_Hard.jpg","0","0","3000"
"6","6","encoding","encoding","78","Brace_Neck.jpg","0","0","3000"
"6","6","encoding","encoding","79","Boxcutter.jpg","0","0","3000"
"6","6","encoding","encoding","80","Sled.jpg","0","0","3000"
"6","6","encoding","encoding","81","KeyHook_Empty.jpg","0","0","3000"
"6","6","encoding","encoding","82","Corkboard.jpg","0","0","3000"
"6","6","encoding","encoding","83","LampPost_OneBulb.jpg","0","0","3000"
"6","6","encoding","encoding","84","Locomotive.jpg","0","0","3000"
"6","6","encoding","encoding","85","FoodMill.jpg","0","0","3000"
"6","6","encoding","encoding","86","BicycleHandleGrip.jpg","0","0","3000"
"6","6","encoding","encoding","87","Qtip_Single.jpg","0","0","3000"
"6","6","encoding","encoding","88","RibbonSpool.jpg","0","0","3000"
"6","6","encoding","encoding","89","Brush_Nail.jpg","0","0","3000"
"6","6","encoding","encoding","90","Chime.jpg","0","0","3000"
"6","6","encoding","encoding","91","PaperShredder.jpg","0","0","3000"
"6","6","encoding","encoding","92","BrainSagittal.jpg","0","0","3000"
"6","6","encoding","encoding","93","Microphone.jpg","0","0","3000"
"6","6","encoding","encoding","94","Table_Picnic.jpg","0","0","3000"
"6","6","encoding","encoding","95","Ball_Bowling.jpg","0","0","3000"
"6","6","encoding","encoding","96","Cake_Cheese.jpg","0","0","3000"
"6","6","encoding","encoding","97","Dog_CockerSpaniel.jpg","0","0","3000"
"6","6","encoding","encoding","98","Spoons_MeasuringDetached.jpg","0","0","3000"
"6","6","encoding","encoding","99","Funnel.jpg","0","0","3000"
"6","6","encoding","encoding","100","Shampoo.jpg","0","0","3000"
"6","6","encoding","encoding","101","Lamp_Table.jpg","0","0","3000"
"6","6","encoding","encoding","102","HedgeShears.jpg","0","0","3000"
"6","6","encoding","encoding","103","Helmet_Construction.jpg","0","0","3000"
"6","6","encoding","encoding","104","Sign_SpeedLimit25.jpg","0","0","3000"
"6","6","encoding","encoding","105","Shoes_Sneakers.jpg","0","0","3000"
"6","6","encoding","encoding","106","Catheter.jpg","0","0","3000"
"6","6","encoding","encoding","107","MassageRoller.jpg","0","0","3000"
"6","6","encoding","encoding","108","Calculator.jpg","0","0","3000"
"6","6","encoding","encoding","109","Thimble.jpg","0","0","3000"
"6","6","encoding","encoding","110","Toy_Chameleon.jpg","0","0","3000"
"6","6","encoding","encoding","111","Taco.jpg","0","0","3000"
"6","6","encoding","encoding","112","DrinkingFountain.jpg","0","0","3000"
"6","6","encoding","encoding","113","LitterScoop.jpg","0","0","3000"
"6","6","encoding","encoding","114","Syrup_Maple.jpg","0","0","3000"
"6","6","encoding","encoding","115","Seahorse.jpg","0","0","3000"
"6","6","encoding","encoding","116","Can_GasSpout.jpg","0","0","3000"
"6","6","encoding","encoding","117","Bathtub.jpg","0","0","3000"
"6","6","encoding","encoding","118","Dresser_1.jpg","0","0","3000"
"6","6","encoding","encoding","119","Joystick.jpg","0","0","3000"
"6","6","encoding","encoding","120","Bird_Pelican.jpg","0","0","3000"
"6","6","encoding","encoding","121","Centrifuge.jpg","0","0","3000"
"6","6","encoding","encoding","123","CookieCutter_Bell.jpg","0","0","3000"
"6","6","encoding","encoding","124","Bench_Concrete.jpg","0","0","3000"
"6","6","encoding","encoding","125","Toy_Bat.jpg","0","0","3000"
"6","6","encoding","encoding","126","RibbonString.jpg","0","0","3000"
"6","6","encoding","encoding","127","Tiara.jpg","0","0","3000"
"6","6","encoding","encoding","128","Nuts_Walnut.jpg","0","0","3000"
"6","6","encoding","encoding","129","HotWaterBottle.jpg","0","0","3000"
"6","6","encoding","encoding","130","Chest_Toys.jpg","0","0","3000"
"6","6","encoding","encoding","131","MagazineRoll.jpg","0","0","3000"
"6","6","encoding","encoding","132","Boat_Trailer.jpg","0","0","3000"
"6","6","encoding","encoding","133","Shoes_DutchClogs.jpg","0","0","3000"
"6","6","encoding","encoding","134","Mask_Gas.jpg","0","0","3000"
"6","6","encoding","encoding","135","Grill_Gas.jpg","0","0","3000"
"6","6","encoding","encoding","136","RemoteControl.jpg","0","0","3000"
"6","6","encoding","encoding","137","JuiceBox.jpg","0","0","3000"
"6","6","encoding","encoding","138","Lollipop_Grape.jpg","0","0","3000"
"6","6","encoding","encoding","139","TartStrawberry.jpg","0","0","3000"
"6","6","encoding","encoding","140","Stool_Metal.jpg","5","0","1958"
"6","6","encoding","encoding","141","Can_OilSpout.jpg","4","0","756"
"6","6","encoding","encoding","142","Shoe_WomenHeals.jpg","5","0","741"
"6","6","encoding","encoding","143","Helicopter.jpg","0","0","3000"
"6","6","encoding","encoding","144","MortarPestle_WhiteMarble.jpg","5","0","2212"
"6","6","encoding","encoding","145","Spatula.jpg","0","0","3000"
"6","6","encoding","encoding","146","PokerChips.jpg","4","0","1066"
"6","6","encoding","encoding","147","Hat_Beret.jpg","4","0","2194"
"6","6","encoding","encoding","148","ScaleWeighing.jpg","0","0","3000"
"6","6","encoding","encoding","149","ColumnMarble.jpg","0","0","3000"
"6","6","encoding","encoding","150","DoubleBass.jpg","0","0","3000"
"6","6","encoding","encoding","151","CoinRolls.jpg","6","0","997"
"6","6","encoding","encoding","152","Fruit_Cactus.jpg","5","0","2727"
"6","6","encoding","encoding","153","Figurine_Ballerina.jpg","0","0","3000"
"6","6","encoding","encoding","154","BadgeSpecialAgent.jpg","6","0","1160"
"6","6","encoding","encoding","155","Barometer_Wood.jpg","5","0","785"
"6","6","encoding","encoding","156","Guitarcase.jpg","6","0","1065"
"6","6","encoding","encoding","157","Cast.jpg","3","0","859"
"6","6","encoding","encoding","158","Trowel.jpg","6","0","831"
"6","6","encoding","encoding","159","Toy_SeeSaw.jpg","3","0","688"
"6","6","encoding","encoding","160","Hat_Visor.jpg","4","0","505"
"6","6","encoding","encoding","161","Scalpel.jpg","5","0","896"
"6","6","encoding","encoding","162","HumanSkull.jpg","7","0","868"
"6","6","encoding","encoding","163","HoseNozzle.jpg","5","0","1549"
"6","6","encoding","encoding","164","Boardgame_ChineseCheckers.jpg","6","0","973"
"6","6","encoding","encoding","165","Helmet_Football.jpg","4","0","832"
"6","6","encoding","encoding","166","BabyMonitor.jpg","6","0","1455"
"6","6","encoding","encoding","167","Nyala.jpg","4","0","898"
"6","6","encoding","encoding","168","ComputerKeyboard.jpg","6","0","1163"
"6","6","encoding","encoding","169","FileDivider.jpg","5","0","381"
"6","6","encoding","encoding","170","Umbrella_Classic.jpg","4","0","485"
"6","6","encoding","encoding","171","Projector_Film.jpg","5","0","688"
"6","6","encoding","encoding","172","Generator.jpg","4","0","561"
"6","6","encoding","encoding","173","Drum_Cymbal.jpg","5","0","747"
"6","6","encoding","encoding","174","PeasSplit.jpg","5","0","964"
"6","6","encoding","encoding","175","Tie.jpg","6","0","637"
"6","6","encoding","encoding","176","Bell_Hand.jpg","0","0","3000"
"6","6","encoding","encoding","177","Bird_Peacock.jpg","0","0","3000"
"6","6","retrieval","new_objects","1","SaltShaker.jpg","36","0","567"
"6","6","retrieval","old_objects","2","Nyala.jpg","37","0","273"
"6","6","retrieval","old_objects","3","Scalpel.jpg","36","1","376"
"6","6","retrieval","new_objects","4","Toy_Chicken.jpg","36","0","364"
"6","6","retrieval","new_objects","5","Tube.jpg","36","0","255"
"6","6","retrieval","new_objects","6","Bucket_Halloween.jpg","36","0","383"
"6","6","retrieval","old_objects","7","Sign_Construction.jpg","36","1","233"
"6","6","retrieval","old_objects","8","Card_Deck.jpg","37","0","306"
"6","6","retrieval","new_objects","9","Hose_Garden.jpg","37","1","280"
"6","6","retrieval","new_objects","10","Boardgame_Checkers.jpg","37","1","311"
"6","6","retrieval","old_objects","11","Blueprints.jpg","36","1","517"
"6","6","retrieval","new_objects","12","Lighter_Yellow.jpg","37","1","210"
"6","6","retrieval","new_objects","13","IceCream_Popsicle.jpg","37","1","156"
"6","6","retrieval","new_objects","14","Jug_GallonRed.jpg","37","1","537"
"6","6","retrieval","old_objects","15","Brush_BathBack.jpg","37","0","524"
"6","6","retrieval","old_objects","16","Taco.jpg","37","0","137"
"6","6","retrieval","new_objects","17","Mango.jpg","36","0","214"
"6","6","retrieval","new_objects","18","Toy_Top.jpg","36","0","240"
"6","6","retrieval","old_objects","19","Bird_Pelican.jpg","37","0","161"
"6","6","retrieval","old_objects","20","Bell_Hand.jpg","37","0","238"
"6","6","retrieval","new_objects","21","MousepadAndMouse.jpg","36","0","198"
"6","6","retrieval","new_objects","22","Paddle_PingPong.jpg","36","0","297"
"6","6","retrieval","old_objects","23","PeasSplit.jpg","37","0","200"
"6","6","retrieval","new_objects","24","Tombstone.jpg","37","1","50"
"6","6","retrieval","old_objects","25","Toy_Lighthouse.jpg","36","1","99"
"6","6","retrieval","new_objects","26","Deodorant.jpg","36","0","250"
"6","6","retrieval","old_objects","27","CashRegister_Modern.jpg","37","0","258"
"6","6","retrieval","old_objects","28","Locomotive.jpg","37","0","10"
"6","6","retrieval","new_objects","29","MeatRaw.jpg","37","1","245"
"6","6","retrieval","old_objects","30","Shoes_Sneakers.jpg","37","0","118"
"6","6","retrieval","old_objects","31","PaperShredder.jpg","36","1","28"
"6","6","retrieval","new_objects","32","MeatGrinder.jpg","36","0","742"
"6","6","retrieval","new_objects","33","Bag_Doctor.jpg","36","0","65"
"6","6","retrieval","new_objects","34","Spotlight.jpg","36","0","177"
"6","6","retrieval","new_objects","35","StockingChristmas.jpg","36","0","341"
"6","6","retrieval","old_objects","36","Spoon_Wooden.jpg","36","1","10"
"6","6","retrieval","new_objects","37","Bicycle_Adult.jpg","37","1","485"
"6","6","retrieval","new_objects","38","PulleyWooden.jpg","37","1","467"
"6","6","retrieval","old_objects","39","Dog_CockerSpaniel.jpg","36","1","242"
"6","6","retrieval","old_objects","40","RibbonSpool.jpg","36","1","435"
"6","6","retrieval","old_objects","41","PatioHeater.jpg","37","0","243"
"6","6","retrieval","old_objects","42","Instrument_Guiro.jpg","37","0","476"
"6","6","retrieval","old_objects","43","CarSuspension.jpg","37","0","483"
"6","6","retrieval","new_objects","44","Shoe_Men.jpg","36","0","417"
"6","6","retrieval","old_objects","45","Puffin.jpg","36","1","563"
"6","6","retrieval","old_objects","46","BabyMonitor.jpg","37","0","117"
"6","6","retrieval","new_objects","47","SlideViewer.jpg","37","1","331"
"6","6","retrieval","old_objects","48","LitterScoop.jpg","37","0","209"
"6","6","retrieval","old_objects","49","Spoons_MeasuringDetached.jpg","36","1","668"
"6","6","retrieval","new_objects","50","Spoon_Serving.jpg","37","1","249"
"6","6","retrieval","old_objects","51","BicycleHandleGrip.jpg","37","0","202"
"6","6","retrieval","old_objects","52","Jar_Cookie.jpg","37","0","148"
"6","6","retrieval","new_objects","53","Sieve_TopView.jpg","36","0","1"
"6","6","retrieval","new_objects","54","SewingPin_Cushion.jpg","36","0","284"
"6","6","retrieval","old_objects","55","Humidifier.jpg","36","1","291"
"6","6","retrieval","new_objects","56","Wire_ElectricalSingle.jpg","37","1","274"
"6","6","retrieval","new_objects","57","Toy_Tank.jpg","37","1","113"
"6","6","retrieval","old_objects","58","Joystick.jpg","36","1","296"
"6","6","retrieval","old_objects","59","Mattress.jpg","36","1","215"
"6","6","retrieval","old_objects","60","Level.jpg","36","1","249"
"6","6","retrieval","new_objects","62","sign_traffic.jpg","36","0","241"
"6","6","retrieval","old_objects","63","HotWaterBottle.jpg","36","1","202"
"6","6","retrieval","old_objects","64","MassageRoller.jpg","37","0","180"
"6","6","retrieval","new_objects","65","Table_Conference.jpg","37","1","384"
"6","6","retrieval","old_objects","66","DoubleBass.jpg","37","0","226"
"6","6","retrieval","new_objects","67","PanCooking.jpg","36","0","204"
"6","6","retrieval","new_objects","68","Cranberry.jpg","36","0","238"
"6","6","retrieval","new_objects","69","Compressor.jpg","37","1","175"
"6","6","retrieval","old_objects","70","Flask_Metal.jpg","37","0","227"
"6","6","retrieval","new_objects","71","Cassette_Audio.jpg","37","1","428"
"6","6","retrieval","new_objects","72","Drill.jpg","36","0","13"
"6","6","retrieval","old_objects","73","Tie.jpg","36","1","256"
"6","6","retrieval","new_objects","74","Microscope.jpg","36","0","248"
"6","6","retrieval","new_objects","75","House_Doll.jpg","36","0","297"
"6","6","retrieval","new_objects","76","Table_PingPong.jpg","36","0","247"
"6","6","retrieval","new_objects","77","HairClipper.jpg","37","1","231"
"6","6","retrieval","new_objects","78","Apple_RedAndGreen.jpg","37","1","248"
"6","6","retrieval","old_objects","79","CookieCutter_Bell.jpg","36","1","145"
"6","6","retrieval","old_objects","80","Guitarcase.jpg","37","0","294"
"6","6","retrieval","new_objects","81","PropellerFan.jpg","37","1","541"
"6","6","retrieval","new_objects","82","Stone_Spa.jpg","36","0","217"
"6","6","retrieval","new_objects","83","Bat_Cricket.jpg","37","1","123"
"6","6","retrieval","old_objects","84","Cast.jpg","37","0","232"
"6","6","retrieval","old_objects","85","RugRoled.jpg","36","1","1033"
"6","6","retrieval","new_objects","86","Statue_Horse.jpg","37","1","223"
"6","6","retrieval","old_objects","87","ComputerKeyboard.jpg","36","1","1401"
"6","6","retrieval","old_objects","88","Hand.jpg","37","0","376"
"6","6","retrieval","new_objects","89","Lock_Key.jpg","36","0","387"
"6","6","retrieval","new_objects","90","Fortress.jpg","36","0","14"
"6","6","retrieval","new_objects","91","DonaldDuck_Toy.jpg","36","0","112"
"6","6","retrieval","new_objects","92","Hat_Feather.jpg","37","1","287"
"6","6","retrieval","new_objects","93","DryRack_Dishes.jpg","37","1","269"
"6","6","retrieval","new_objects","94","Cup_Styrofoam.jpg","37","1","461"
"6","6","retrieval","new_objects","95","ButterChurn.jpg","37","1","172"
"6","6","retrieval","old_objects","96","LampPost_OneBulb.jpg","36","1","112"
"6","6","retrieval","new_objects","97","Syringe_Needle.jpg","36","0","279"
"6","6","retrieval","new_objects","98","Bowl_Chopsticks.jpg","36","0","14"
"6","6","retrieval","old_objects","99","Shoe_WomenHeals.jpg","37","0","385"
"6","6","retrieval","new_objects","100","Sphinx.jpg","37","1","364"
"6","6","retrieval","old_objects","101","BadgeSpecialAgent.jpg","37","0","16"
"6","6","retrieval","old_objects","102","Wheel_Steering.jpg","37","0","522"
"6","6","retrieval","old_objects","103","HumanSkull.jpg","36","1","295"
"6","6","retrieval","old_objects","104","Syrup_Maple.jpg","36","1","373"
"6","6","retrieval","new_objects","105","VacuumHose.jpg","36","0","304"
"6","6","retrieval","new_objects","106","Pitcher.jpg","36","0","807"
"6","6","retrieval","new_objects","107","SlushieMachine.jpg","36","0","1007"
"6","6","retrieval","old_objects","108","Dresser_1.jpg","37","0","6"
