"group","subject","blockcode","trialcode","trialnum","values.stimulus","response","correct","latency"
"11","11","encoding","encoding","1","Bark.jpg","1","0","2192"
"11","11","encoding","encoding","2","Kebab_Vegetables.jpg","3","0","1701"
"11","11","encoding","encoding","3","Crate_Wine.jpg","2","0","1688"
"11","11","encoding","encoding","4","Cookie.jpg","2","0","1621"
"11","11","encoding","encoding","5","Suspenders.jpg","1","0","1702"
"11","11","encoding","encoding","6","Kangaroo.jpg","1","0","1440"
"11","11","encoding","encoding","7","Boar.jpg","2","0","1918"
"11","11","encoding","encoding","8","Bagpipes.jpg","1","0","1553"
"11","11","encoding","encoding","9","IceCubes.jpg","1","0","1058"
"11","11","encoding","encoding","10","Squash_Butternut.jpg","1","0","1111"
"11","11","encoding","encoding","11","Bandage_Adhesive.jpg","3","0","1992"
"11","11","encoding","encoding","12","Domino.jpg","1","0","1382"
"11","11","encoding","encoding","13","Keg.jpg","1","0","1356"
"11","11","encoding","encoding","14","SoundMixer_Blue.jpg","1","0","1331"
"11","11","encoding","encoding","15","GPS.jpg","1","0","1134"
"11","11","encoding","encoding","16","Cabasa.jpg","1","0","1430"
"11","11","encoding","encoding","17","MatchBook.jpg","2","0","2168"
"11","11","encoding","encoding","18","Toy_Taxi.jpg","1","0","1388"
"11","11","encoding","encoding","19","Eggplant.jpg","1","0","985"
"11","11","encoding","encoding","20","SpaceShuttle.jpg","4","0","1693"
"11","11","encoding","encoding","21","Hotdog_WithBun.jpg","1","0","1563"
"11","11","encoding","encoding","22","Clock_Digital.jpg","1","0","1460"
"11","11","encoding","encoding","23","ProjectorScreen.jpg","1","0","922"
"11","11","encoding","encoding","24","Seal_Toy.jpg","1","0","1281"
"11","11","encoding","encoding","25","Broccoli.jpg","1","0","1613"
"11","11","encoding","encoding","26","Shield_Antique.jpg","2","0","1653"
"11","11","encoding","encoding","27","PyramidWooden.jpg","1","0","1565"
"11","11","encoding","encoding","28","Lantern_Chinese.jpg","1","0","1057"
"11","11","encoding","encoding","29","Case_Leather.jpg","1","0","970"
"11","11","encoding","encoding","30","Stool_Foot.jpg","1","0","929"
"11","11","encoding","encoding","31","KnifeHolder.jpg","1","0","1190"
"11","11","encoding","encoding","32","Parcel.jpg","1","0","1066"
"11","11","encoding","encoding","33","Box_GiftTopView.jpg","1","0","820"
"11","11","encoding","encoding","34","Thermostat.jpg","1","0","1042"
"11","11","encoding","encoding","35","LeatherPuncherTool.jpg","1","0","992"
"11","11","encoding","encoding","36","TreeStump.jpg","1","0","920"
"11","11","encoding","encoding","37","Jar_Honey.jpg","1","0","1136"
"11","11","encoding","encoding","38","Chair_Office.jpg","1","0","856"
"11","11","encoding","encoding","39","Sign_Washroom.jpg","1","0","1860"
"11","11","encoding","encoding","40","Pasta_Fusilli.jpg","1","0","2103"
"11","11","encoding","encoding","41","Fork_Regular.jpg","1","0","985"
"11","11","encoding","encoding","42","OperaGlasses.jpg","0","0","3000"
"11","11","encoding","encoding","43","Loofa.jpg","1","0","1805"
"11","11","encoding","encoding","44","ConnectorPlug.jpg","1","0","1467"
"11","11","encoding","encoding","45","Chair_Dining.jpg","1","0","1208"
"11","11","encoding","encoding","46","Bible.jpg","1","0","2296"
"11","11","encoding","encoding","47","WalkieTalkie_Red.jpg","1","0","2151"
"11","11","encoding","encoding","48","Toad.jpg","2","0","1870"
"11","11","encoding","encoding","49","Bird_Eagle.jpg","5","0","1732"
"11","11","encoding","encoding","50","Gloves_WhiteKnit.jpg","1","0","1605"
"11","11","encoding","encoding","51","Bag_PaperWithFlour.jpg","1","0","1444"
"11","11","encoding","encoding","52","Jacks.jpg","1","0","1105"
"11","11","encoding","encoding","53","PumpBreast.jpg","1","0","1491"
"11","11","encoding","encoding","54","Panda.jpg","2","0","1902"
"11","11","encoding","encoding","55","Nuts_Peanuts.jpg","1","0","1342"
"11","11","encoding","encoding","56","Box_Present.jpg","1","0","951"
"11","11","encoding","encoding","57","ManholeCover.jpg","1","0","906"
"11","11","encoding","encoding","58","Drum_Tall.jpg","1","0","1172"
"11","11","encoding","encoding","59","PaperStack.jpg","1","0","814"
"11","11","encoding","encoding","60","Toy_Babydoll.jpg","1","0","1183"
"11","11","encoding","encoding","62","Coatrack.jpg","1","0","2073"
"11","11","encoding","encoding","63","RecordPlayer.jpg","1","0","1341"
"11","11","encoding","encoding","64","Speaker_Computer.jpg","1","0","1068"
"11","11","encoding","encoding","65","Toy_BlocksLetter.jpg","1","0","1511"
"11","11","encoding","encoding","66","Corn_Kernels.jpg","1","0","1428"
"11","11","encoding","encoding","67","TelephoneSwitchboard.jpg","1","0","2117"
"11","11","encoding","encoding","68","Hay.jpg","1","0","864"
"11","11","encoding","encoding","69","ProcessorFood_Modern.jpg","1","0","769"
"11","11","encoding","encoding","70","Truck_VintageBlue.jpg","1","0","977"
"11","11","encoding","encoding","71","Brush_Shaving.jpg","1","0","1366"
"11","11","encoding","encoding","72","Toy_Firetruck.jpg","1","0","936"
"11","11","encoding","encoding","73","GasStation.jpg","1","0","1087"
"11","11","encoding","encoding","74","CasketOpen.jpg","4","0","2768"
"11","11","encoding","encoding","75","LightBulb_Christmas.jpg","1","0","2354"
"11","11","encoding","encoding","76","Dog_ChowChow.jpg","3","0","1889"
"11","11","encoding","encoding","77","Barrel_Wine.jpg","1","0","1608"
"11","11","encoding","encoding","78","Toy_Stroller.jpg","1","0","1098"
"11","11","encoding","encoding","79","Drink_Cocktail.jpg","1","0","779"
"11","11","encoding","encoding","80","Earrings_Dangling.jpg","1","0","914"
"11","11","encoding","encoding","81","Binder.jpg","1","0","952"
"11","11","encoding","encoding","82","IceCubes copy.jpg","1","0","937"
"11","11","encoding","encoding","83","Hawk.jpg","2","0","1860"
"11","11","encoding","encoding","84","SkiPoles.jpg","1","0","1524"
"11","11","encoding","encoding","85","TomatoSauce.jpg","1","0","1108"
"11","11","encoding","encoding","86","Paddle_Beach.jpg","1","0","984"
"11","11","encoding","encoding","87","Sign_Parking.jpg","1","0","860"
"11","11","encoding","encoding","88","Candleholder_LampShaped.jpg","1","0","1006"
"11","11","encoding","encoding","89","Pot_BlackOld.jpg","1","0","1006"
"11","11","encoding","encoding","90","Telephone_Dial.jpg","1","0","641"
"11","11","encoding","encoding","91","LightHouse.jpg","1","0","978"
"11","11","encoding","encoding","92","Cherry.jpg","1","0","737"
"11","11","encoding","encoding","93","Brush_Windshield.jpg","1","0","798"
"11","11","encoding","encoding","94","BookShelf.jpg","1","0","709"
"11","11","encoding","encoding","95","Noose.jpg","1","0","636"
"11","11","encoding","encoding","96","USBKey.jpg","1","0","1633"
"11","11","encoding","encoding","97","Sign_TrafficArrow.jpg","1","0","1083"
"11","11","encoding","encoding","98","PirateFlag.jpg","2","0","1692"
"11","11","encoding","encoding","99","Folder_Plastic.jpg","1","0","1637"
"11","11","encoding","encoding","100","Stick_Honey.jpg","1","0","986"
"11","11","encoding","encoding","101","Icepick.jpg","1","0","660"
"11","11","encoding","encoding","102","Flute_Tin.jpg","1","0","1040"
"11","11","encoding","encoding","103","Toy_RobotTransformer.jpg","1","0","1288"
"11","11","encoding","encoding","104","Mask_CPR.jpg","1","0","1682"
"11","11","encoding","encoding","105","Spoon_Baby.jpg","1","0","1112"
"11","11","encoding","encoding","106","Cooler.jpg","1","0","738"
"11","11","encoding","encoding","107","Sign_SlipperyRoad.jpg","1","0","713"
"11","11","encoding","encoding","108","WindowBlinds.jpg","1","0","792"
"11","11","encoding","encoding","109","Pepper_Chili.jpg","2","0","2008"
"11","11","encoding","encoding","110","Ferret.jpg","3","0","2293"
"11","11","encoding","encoding","111","Toy_Tractor_1.jpg","1","0","1463"
"11","11","encoding","encoding","112","Sculpture_MetalMan.jpg","1","0","926"
"11","11","encoding","encoding","113","Cart_Wooden.jpg","1","0","1121"
"11","11","encoding","encoding","114","Toy_Slide.jpg","1","0","946"
"11","11","encoding","encoding","115","Toy_Boat.jpg","1","0","778"
"11","11","encoding","encoding","116","Spear.jpg","3","0","2474"
"11","11","encoding","encoding","117","HairCurler.jpg","1","0","1602"
"11","11","encoding","encoding","118","Cleaver_Meat.jpg","1","0","1607"
"11","11","encoding","encoding","119","Pot_TurkishCoffee.jpg","1","0","1210"
"11","11","encoding","encoding","120","MusicSheet.jpg","1","0","1057"
"11","11","encoding","encoding","121","Box_Cutlery.jpg","1","0","994"
"11","11","encoding","encoding","123","Donut.jpg","2","0","2151"
"11","11","encoding","encoding","124","Mask_Masquerade.jpg","1","0","1421"
"11","11","encoding","encoding","125","Fridge.jpg","1","0","934"
"11","11","encoding","encoding","126","ToothPick.jpg","1","0","1284"
"11","11","encoding","encoding","127","AirVent.jpg","1","0","1203"
"11","11","encoding","encoding","128","WireStripper.jpg","1","0","982"
"11","11","encoding","encoding","129","Camel_Dromedary.jpg","1","0","1478"
"11","11","encoding","encoding","130","Shoe_Highheel.jpg","1","0","1054"
"11","11","encoding","encoding","131","Plate_Decorative.jpg","1","0","1149"
"11","11","encoding","encoding","132","Briefcase_Open.jpg","1","0","1038"
"11","11","encoding","encoding","133","WindshieldWasherFluid.jpg","1","0","976"
"11","11","encoding","encoding","134","Bag_Hand.jpg","1","0","1439"
"11","11","encoding","encoding","135","Pasta_Shell.jpg","1","0","1170"
"11","11","encoding","encoding","136","Peach.jpg","1","0","1183"
"11","11","encoding","encoding","137","Mask_HockeyGoalie.jpg","1","0","1371"
"11","11","encoding","encoding","138","Razor.jpg","1","0","1165"
"11","11","encoding","encoding","139","Pot_Cooking.jpg","1","0","1033"
"11","11","encoding","encoding","140","EyeChart.jpg","1","0","1069"
"11","11","encoding","encoding","141","Pot_CastIron.jpg","1","0","921"
"11","11","encoding","encoding","142","Artichoke.jpg","1","0","1106"
"11","11","encoding","encoding","143","Toy_PoliceCar.jpg","1","0","1179"
"11","11","encoding","encoding","144","Chair_PlasticGreen.jpg","1","0","775"
"11","11","encoding","encoding","145","Bowtie.jpg","1","0","953"
"11","11","encoding","encoding","146","Mixer_Cement.jpg","1","0","1189"
"11","11","encoding","encoding","147","Lettuce_Iceberg.jpg","1","0","1334"
"11","11","encoding","encoding","148","NetButterfly.jpg","1","0","1041"
"11","11","encoding","encoding","149","Yarmulke.jpg","1","0","1145"
"11","11","encoding","encoding","150","Chicken_FriedDrum.jpg","1","0","1469"
"11","11","encoding","encoding","151","PersonWooden.jpg","1","0","1315"
"11","11","encoding","encoding","152","CoffeePot.jpg","1","0","949"
"11","11","encoding","encoding","153","CableConnecter.jpg","1","0","1255"
"11","11","encoding","encoding","154","Bus_DoubleDecker.jpg","1","0","933"
"11","11","encoding","encoding","155","Doll_Rag.jpg","1","0","1243"
"11","11","encoding","encoding","156","Carrot.jpg","1","0","1077"
"11","11","encoding","encoding","157","Dart.jpg","1","0","2333"
"11","11","encoding","encoding","158","HairDryer.jpg","1","0","1168"
"11","11","encoding","encoding","159","ChessPiece_Knight.jpg","1","0","1089"
"11","11","encoding","encoding","160","Glass_Bowl.jpg","1","0","771"
"11","11","encoding","encoding","161","Helmet_Bicycle.jpg","1","0","1226"
"11","11","encoding","encoding","162","VGAport.jpg","1","0","1069"
"11","11","encoding","encoding","163","TelescopeSpacecraft.jpg","3","0","2661"
"11","11","encoding","encoding","164","Car_Vintage.jpg","2","0","1649"
"11","11","encoding","encoding","165","Carousel.jpg","1","0","1509"
"11","11","encoding","encoding","166","PillBottle_Closed.jpg","1","0","1033"
"11","11","encoding","encoding","167","Fan_Ceiling.jpg","1","0","1366"
"11","11","encoding","encoding","168","Pipette.jpg","1","0","1325"
"11","11","encoding","encoding","169","Bandage_Wrap.jpg","1","0","1301"
"11","11","encoding","encoding","170","Bowl_Chinese.jpg","1","0","842"
"11","11","encoding","encoding","171","Lei.jpg","1","0","808"
"11","11","encoding","encoding","172","Spatula_1.jpg","1","0","837"
"11","11","encoding","encoding","173","Pasta_Fettuccine.jpg","1","0","880"
"11","11","encoding","encoding","174","Cornucopia.jpg","1","0","1647"
"11","11","encoding","encoding","175","Crown.jpg","1","0","1724"
"11","11","encoding","encoding","176","Desk_White.jpg","1","0","1057"
"11","11","encoding","encoding","177","Missile.jpg","3","0","2071"
"11","11","retrieval","new_objects","1","CertificateFramed.jpg","37","1","1142"
"11","11","retrieval","new_objects","2","NailFiles.jpg","37","1","873"
"11","11","retrieval","old_objects","3","Pepper_Chili.jpg","36","1","895"
"11","11","retrieval","new_objects","4","Makeup_Bag.jpg","37","1","1025"
"11","11","retrieval","old_objects","5","Panda.jpg","36","1","1321"
"11","11","retrieval","old_objects","6","Toy_Tractor_1.jpg","36","1","1388"
"11","11","retrieval","new_objects","7","Toy_MrPotatoHeadjpg.jpg","37","1","817"
"11","11","retrieval","new_objects","8","Bowl_Glass.jpg","36","0","931"
"11","11","retrieval","old_objects","9","Domino.jpg","36","1","779"
"11","11","retrieval","new_objects","10","Hockey_Puck.jpg","37","1","1100"
"11","11","retrieval","old_objects","11","Stick_Honey.jpg","36","1","902"
"11","11","retrieval","old_objects","12","Bark.jpg","36","1","628"
"11","11","retrieval","old_objects","13","Cherry.jpg","36","1","671"
"11","11","retrieval","old_objects","14","Pot_TurkishCoffee.jpg","36","1","942"
"11","11","retrieval","old_objects","15","ManholeCover.jpg","36","1","566"
"11","11","retrieval","new_objects","16","Croissant.jpg","37","1","718"
"11","11","retrieval","old_objects","17","SpaceShuttle.jpg","36","1","736"
"11","11","retrieval","old_objects","18","Sculpture_MetalMan.jpg","36","1","560"
"11","11","retrieval","old_objects","19","Box_GiftTopView.jpg","36","1","527"
"11","11","retrieval","new_objects","20","Case_CD.jpg","37","1","912"
"11","11","retrieval","new_objects","21","Toy_Christmastree.jpg","37","1","678"
"11","11","retrieval","old_objects","22","Glass_Bowl.jpg","36","1","608"
"11","11","retrieval","old_objects","23","Bandage_Adhesive.jpg","36","1","596"
"11","11","retrieval","new_objects","24","Fan_Blades.jpg","37","1","1100"
"11","11","retrieval","old_objects","25","PillBottle_Closed.jpg","36","1","890"
"11","11","retrieval","new_objects","26","Pants_Jeans.jpg","37","1","850"
"11","11","retrieval","old_objects","27","MatchBook.jpg","36","1","777"
"11","11","retrieval","new_objects","28","Bowl_Cereal.jpg","37","1","980"
"11","11","retrieval","new_objects","29","Exercise_Machine.jpg","37","1","951"
"11","11","retrieval","old_objects","30","PaperStack.jpg","36","1","738"
"11","11","retrieval","old_objects","31","PersonWooden.jpg","36","1","467"
"11","11","retrieval","old_objects","32","HairDryer.jpg","36","1","595"
"11","11","retrieval","old_objects","33","CoffeePot.jpg","36","1","549"
"11","11","retrieval","old_objects","34","Sign_TrafficArrow.jpg","36","1","712"
"11","11","retrieval","old_objects","35","Sign_Parking.jpg","36","1","582"
"11","11","retrieval","new_objects","36","DrainPlug.jpg","37","1","814"
"11","11","retrieval","old_objects","37","Chair_Office.jpg","36","1","744"
"11","11","retrieval","new_objects","38","Bird_Falcon.jpg","37","1","1071"
"11","11","retrieval","old_objects","39","Spear.jpg","36","1","966"
"11","11","retrieval","new_objects","40","Lectern.jpg","37","1","927"
"11","11","retrieval","old_objects","41","Missile.jpg","36","1","688"
"11","11","retrieval","old_objects","42","NetButterfly.jpg","36","1","1044"
"11","11","retrieval","new_objects","43","Barbecue_Charcoal.jpg","37","1","816"
"11","11","retrieval","new_objects","44","PowderProtein.jpg","37","1","905"
"11","11","retrieval","new_objects","45","Sandwich_Egg.jpg","37","1","984"
"11","11","retrieval","old_objects","46","TelephoneSwitchboard.jpg","36","1","768"
"11","11","retrieval","new_objects","47","Horseshoe.jpg","37","1","722"
"11","11","retrieval","old_objects","48","Gloves_WhiteKnit.jpg","36","1","700"
"11","11","retrieval","old_objects","49","Shield_Antique.jpg","36","1","555"
"11","11","retrieval","old_objects","50","Bag_Hand.jpg","36","1","976"
"11","11","retrieval","old_objects","51","Peach.jpg","36","1","712"
"11","11","retrieval","new_objects","52","MoneyBill50.jpg","37","1","696"
"11","11","retrieval","new_objects","53","Jars_PetFood.jpg","37","1","1215"
"11","11","retrieval","new_objects","54","Blade_Tablesaw.jpg","37","1","601"
"11","11","retrieval","old_objects","55","OperaGlasses.jpg","37","0","777"
"11","11","retrieval","old_objects","56","Barrel_Wine.jpg","36","1","707"
"11","11","retrieval","old_objects","57","WalkieTalkie_Red.jpg","36","1","671"
"11","11","retrieval","old_objects","58","Paddle_Beach.jpg","36","1","649"
"11","11","retrieval","old_objects","59","Squash_Butternut.jpg","37","0","1480"
"11","11","retrieval","old_objects","60","Jacks.jpg","36","1","746"
"11","11","retrieval","new_objects","62","Telephone_DialAntique.jpg","37","1","948"
"11","11","retrieval","old_objects","63","USBKey.jpg","36","1","1369"
"11","11","retrieval","old_objects","64","Hawk.jpg","36","1","1095"
"11","11","retrieval","old_objects","65","WireStripper.jpg","36","1","814"
"11","11","retrieval","new_objects","66","Guitar_Electric.jpg","37","1","768"
"11","11","retrieval","old_objects","67","Cooler.jpg","36","1","870"
"11","11","retrieval","old_objects","68","Bag_PaperWithFlour.jpg","36","1","729"
"11","11","retrieval","new_objects","69","CodeDoorLock.jpg","37","1","786"
"11","11","retrieval","new_objects","70","Bowl_Flour.jpg","37","1","1177"
"11","11","retrieval","old_objects","71","Thermostat.jpg","36","1","798"
"11","11","retrieval","old_objects","72","ChessPiece_Knight.jpg","36","1","605"
"11","11","retrieval","old_objects","73","Lantern_Chinese.jpg","36","1","778"
"11","11","retrieval","new_objects","74","LightBulb_Blue.jpg","37","1","685"
"11","11","retrieval","new_objects","75","PylonTraffic.jpg","37","1","938"
"11","11","retrieval","new_objects","76","Window.jpg","37","1","637"
"11","11","retrieval","old_objects","77","Drink_Cocktail.jpg","37","0","642"
"11","11","retrieval","old_objects","78","Toy_Stroller.jpg","36","1","732"
"11","11","retrieval","new_objects","79","Wallet_ClosedBlack.jpg","37","1","811"
"11","11","retrieval","old_objects","80","SkiPoles.jpg","36","1","769"
"11","11","retrieval","old_objects","81","GPS.jpg","37","0","705"
"11","11","retrieval","new_objects","82","Hotdog_Weiner.jpg","37","1","1526"
"11","11","retrieval","old_objects","83","WindowBlinds.jpg","37","0","1210"
"11","11","retrieval","old_objects","84","Cleaver_Meat.jpg","36","1","810"
"11","11","retrieval","old_objects","85","ToothPick.jpg","36","1","515"
"11","11","retrieval","old_objects","86","Bus_DoubleDecker.jpg","37","0","1640"
"11","11","retrieval","new_objects","87","Pyramid.jpg","37","1","1545"
"11","11","retrieval","old_objects","88","Toy_RobotTransformer.jpg","36","1","943"
"11","11","retrieval","new_objects","89","ShinPads.jpg","37","1","996"
"11","11","retrieval","new_objects","90","Rock_Mimetite.jpg","37","1","841"
"11","11","retrieval","new_objects","91","Gloves_Bicycle.jpg","37","1","727"
"11","11","retrieval","old_objects","92","Pasta_Fettuccine.jpg","36","1","793"
"11","11","retrieval","old_objects","93","Hotdog_WithBun.jpg","36","1","793"
"11","11","retrieval","new_objects","94","Jar_JellyBeans.jpg","37","1","783"
"11","11","retrieval","new_objects","95","Truck_Box.jpg","37","1","1691"
"11","11","retrieval","new_objects","96","ChocolateBar_HalfUnwrapped.jpg","37","1","1066"
"11","11","retrieval","new_objects","97","PortaPotty.jpg","37","1","870"
"11","11","retrieval","new_objects","98","Phone_Public.jpg","37","1","802"
"11","11","retrieval","new_objects","99","Button.jpg","37","1","609"
"11","11","retrieval","new_objects","100","SculptureMetalFish.jpg","37","1","823"
"11","11","retrieval","old_objects","101","Noose.jpg","36","1","896"
"11","11","retrieval","old_objects","102","WindshieldWasherFluid.jpg","36","1","702"
"11","11","retrieval","new_objects","103","DoorKnob.jpg","37","1","748"
"11","11","retrieval","old_objects","104","Truck_VintageBlue.jpg","36","1","1044"
"11","11","retrieval","new_objects","105","PowerDoorPushButton.jpg","37","1","827"
"11","11","retrieval","old_objects","106","Ferret.jpg","36","1","1189"
"11","11","retrieval","old_objects","107","ConnectorPlug.jpg","37","0","1103"
"11","11","retrieval","new_objects","108","Bread_Melon.jpg","37","1","1363"
"11","11","retrieval","new_objects","109","Statue_ManHorse.jpg","37","1","724"
"11","11","retrieval","old_objects","110","Speaker_Computer.jpg","36","1","745"
"11","11","retrieval","new_objects","111","Chair_Folding.jpg","37","1","936"
"11","11","retrieval","old_objects","112","AirVent.jpg","36","1","1083"
"11","11","retrieval","old_objects","113","Jar_Honey.jpg","36","1","883"
"11","11","retrieval","new_objects","114","Pasta_Spaghetti.jpg","37","1","1173"
"11","11","retrieval","new_objects","115","Clock_Radio.jpg","37","1","1187"
"11","11","retrieval","old_objects","116","Plate_Decorative.jpg","36","1","788"
"11","11","retrieval","old_objects","117","VGAport.jpg","36","1","581"
"11","11","retrieval","new_objects","118","Bag_Diaper.jpg","37","1","686"
"11","11","retrieval","old_objects","119","Candleholder_LampShaped.jpg","36","1","788"
"11","11","retrieval","old_objects","120","Chicken_FriedDrum.jpg","36","1","872"
"11","11","retrieval","new_objects","121","RibbonPin.jpg","37","1","657"
"11","11","retrieval","new_objects","123","Bread_Carrot.jpg","37","1","742"
"11","11","retrieval","old_objects","124","Clock_Digital.jpg","36","1","764"
"11","11","retrieval","old_objects","125","Cookie.jpg","36","1","1145"
"11","11","retrieval","new_objects","126","Toaster_Antique.jpg","37","1","745"
"11","11","retrieval","old_objects","127","Toy_Boat.jpg","37","0","1409"
"11","11","retrieval","old_objects","128","Bowtie.jpg","36","1","829"
"11","11","retrieval","old_objects","129","BookShelf.jpg","36","1","869"
"11","11","retrieval","new_objects","130","Toy_RockingHorseBeige.jpg","37","1","753"
"11","11","retrieval","new_objects","131","Glass_bottle.jpg","37","1","918"
"11","11","retrieval","new_objects","132","Hat_Beanie.jpg","37","1","643"
"11","11","retrieval","new_objects","133","Bowl_Pasta.jpg","37","1","687"
"11","11","retrieval","new_objects","134","Tape_Clear.jpg","37","1","571"
"11","11","retrieval","new_objects","135","Gecko.jpg","37","1","1635"
"11","11","retrieval","old_objects","136","Box_Present.jpg","36","1","740"
"11","11","retrieval","old_objects","137","HairCurler.jpg","36","1","1107"
"11","11","retrieval","old_objects","138","Parcel.jpg","36","1","736"
"11","11","retrieval","new_objects","139","Skirt_Long.jpg","37","1","1112"
"11","11","retrieval","new_objects","140","ShoeLace_Round.jpg","37","1","1663"
"11","11","retrieval","new_objects","141","RiceCooker.jpg","37","1","1701"
"11","11","retrieval","old_objects","142","Boar.jpg","36","1","653"
"11","11","retrieval","new_objects","143","IroningBoard.jpg","37","1","916"
"11","11","retrieval","new_objects","144","Towel.jpg","37","1","788"
"11","11","retrieval","old_objects","145","Chair_Dining.jpg","36","1","959"
"11","11","retrieval","old_objects","146","PyramidWooden.jpg","36","1","793"
"11","11","retrieval","new_objects","147","Cake_Birthday.jpg","37","1","734"
"11","11","retrieval","old_objects","148","Bird_Eagle.jpg","36","1","1147"
"11","11","retrieval","old_objects","149","Loofa.jpg","36","1","790"
"11","11","retrieval","new_objects","150","EyeDrops.jpg","37","1","753"
"11","11","retrieval","new_objects","151","Clock_Grandfather.jpg","37","1","767"
"11","11","retrieval","new_objects","152","JukeboxAntique.jpg","37","1","780"
"11","11","retrieval","old_objects","153","LightHouse.jpg","36","1","834"
"11","11","retrieval","old_objects","154","Sign_SlipperyRoad.jpg","36","1","641"
"11","11","retrieval","new_objects","155","Jug_GallonWhite.jpg","36","0","578"
"11","11","retrieval","old_objects","156","Doll_Rag.jpg","36","1","681"
"11","11","retrieval","old_objects","157","ProjectorScreen.jpg","36","1","1021"
"11","11","retrieval","old_objects","158","Pot_Cooking.jpg","36","1","1194"
"11","11","retrieval","new_objects","159","Chair_High.jpg","37","1","1372"
"11","11","retrieval","new_objects","160","Candy_Lozenge.jpg","37","1","779"
"11","11","retrieval","new_objects","161","MilkPitcher.jpg","37","1","809"
"11","11","retrieval","new_objects","162","ElasticBand.jpg","37","1","721"
"11","11","retrieval","new_objects","163","Cannister_Gas.jpg","37","1","781"
"11","11","retrieval","old_objects","164","LeatherPuncherTool.jpg","36","1","875"
"11","11","retrieval","new_objects","165","Waffle.jpg","37","1","956"
"11","11","retrieval","new_objects","166","AllTerrain.jpg","37","1","829"
"11","11","retrieval","old_objects","167","Spatula_1.jpg","36","1","803"
"11","11","retrieval","new_objects","168","Crowbar.jpg","37","1","1121"
"11","11","retrieval","new_objects","169","CarLighter.jpg","37","1","1300"
"11","11","retrieval","old_objects","170","Fork_Regular.jpg","37","0","736"
"11","11","retrieval","new_objects","171","Peppermill.jpg","37","1","843"
"11","11","retrieval","new_objects","172","Barometer.jpg","37","1","777"
"11","11","retrieval","new_objects","173","ShowerCap.jpg","37","1","912"
"11","11","retrieval","new_objects","174","Bowl_Sugar.jpg","37","1","922"
"11","11","retrieval","new_objects","175","Blueberry.jpg","37","1","994"
"11","11","retrieval","old_objects","176","RecordPlayer.jpg","36","1","786"
"11","11","retrieval","new_objects","177","Popcorn.jpg","37","1","939"
"11","11","retrieval","old_objects","178","Kangaroo.jpg","36","1","812"
"11","11","retrieval","old_objects","179","CableConnecter.jpg","36","1","963"
"11","11","retrieval","new_objects","180","ContactLens.jpg","37","1","1484"
"11","11","retrieval","old_objects","181","Fridge.jpg","37","0","1096"
"11","11","retrieval","new_objects","182","Statue_Head.jpg","37","1","1774"
"11","11","retrieval","new_objects","184","Briefcase_Silver.jpg","37","1","1640"
"11","11","retrieval","old_objects","185","Lettuce_Iceberg.jpg","36","1","784"
"11","11","retrieval","new_objects","186","AnsweringMachine.jpg","37","1","955"
"11","11","retrieval","old_objects","187","Folder_Plastic.jpg","37","0","765"
"11","11","retrieval","old_objects","188","Dart.jpg","36","1","909"
"11","11","retrieval","new_objects","189","Playard.jpg","37","1","906"
"11","11","retrieval","old_objects","190","CasketOpen.jpg","36","1","1043"
"11","11","retrieval","new_objects","191","Pants_Firefighter.jpg","37","1","1019"
"11","11","retrieval","new_objects","192","Cart_Janitor.jpg","36","0","1549"
"11","11","retrieval","new_objects","193","Cannoli.jpg","37","1","1288"
"11","11","retrieval","new_objects","194","Pliers_NeedleNose.jpg","37","1","774"
"11","11","retrieval","new_objects","195","Kebab_Meat.jpg","36","0","982"
"11","11","retrieval","new_objects","196","Toy_BearBrownPlushie.jpg","37","1","998"
"11","11","retrieval","old_objects","197","Hay.jpg","36","1","811"
"11","11","retrieval","new_objects","198","Tuxedo.jpg","37","1","751"
"11","11","retrieval","new_objects","199","Hoverboard.jpg","37","1","1252"
"11","11","retrieval","old_objects","200","Stool_Foot.jpg","36","1","921"
"11","11","retrieval","new_objects","201","Chipmunk.jpg","37","1","839"
"11","11","retrieval","old_objects","202","Toy_PoliceCar.jpg","36","1","779"
"11","11","retrieval","new_objects","203","Headphones.jpg","37","1","927"
"11","11","retrieval","new_objects","204","Cage_Hamster.jpg","37","1","1043"
"11","11","retrieval","old_objects","205","Icepick.jpg","36","1","737"
"11","11","retrieval","new_objects","206","Beaker.jpg","37","1","993"
"11","11","retrieval","old_objects","207","Cornucopia.jpg","36","1","849"
"11","11","retrieval","old_objects","208","Kebab_Vegetables.jpg","37","0","1082"
"11","11","retrieval","new_objects","209","PostageStamps.jpg","37","1","887"
"11","11","retrieval","new_objects","210","Gun_Glue.jpg","37","1","771"
"11","11","retrieval","new_objects","211","Case_DVD.jpg","37","1","1395"
"11","11","retrieval","old_objects","212","Briefcase_Open.jpg","36","1","1693"
"11","11","retrieval","old_objects","213","TomatoSauce.jpg","36","1","1582"
"11","11","retrieval","old_objects","214","Pipette.jpg","36","1","767"
"11","11","retrieval","old_objects","215","Pasta_Shell.jpg","0","0","2000"
"11","11","retrieval","old_objects","216","Mask_CPR.jpg","36","1","1272"
"11","11","retrieval","old_objects","217","Coatrack.jpg","37","0","1486"
"11","11","retrieval","new_objects","218","DogSled.jpg","37","1","1835"
"11","11","retrieval","new_objects","219","HairBand.jpg","37","1","941"
"11","11","retrieval","new_objects","220","Hat_Explorer.jpg","37","1","667"
"11","11","retrieval","new_objects","221","Swing_Child.jpg","37","1","672"
"11","11","retrieval","old_objects","222","PumpBreast.jpg","36","1","1128"
"11","11","retrieval","new_objects","223","Defribrillator.jpg","37","1","1404"
"11","11","retrieval","old_objects","224","IceCubes.jpg","36","1","717"
"11","11","retrieval","old_objects","225","Crown.jpg","36","1","635"
"11","11","retrieval","new_objects","226","Seal_animal.jpg","37","1","1104"
"11","11","retrieval","new_objects","227","Cymbals.jpg","37","1","1200"
"11","11","retrieval","old_objects","228","Chair_PlasticGreen.jpg","36","1","1137"
"11","11","retrieval","old_objects","229","Sign_Washroom.jpg","36","1","781"
"11","11","retrieval","new_objects","230","Box_Notepaper.jpg","37","1","1035"
"11","11","retrieval","old_objects","231","KnifeHolder.jpg","36","1","929"
"11","11","retrieval","new_objects","232","Ghost.jpg","37","1","751"
"11","11","retrieval","old_objects","233","PirateFlag.jpg","36","1","683"
"11","11","retrieval","old_objects","234","Suspenders.jpg","36","1","822"
"11","11","retrieval","old_objects","235","Telephone_Dial.jpg","36","1","710"
"11","11","retrieval","new_objects","236","Tray_Cafeteria.jpg","37","1","1442"
"11","11","retrieval","old_objects","237","Mask_Masquerade.jpg","36","1","922"
"11","11","retrieval","new_objects","238","VacuumHead.jpg","37","1","1037"
"11","11","retrieval","old_objects","239","Binder.jpg","36","1","758"
"11","11","retrieval","new_objects","240","Maraca.jpg","37","1","1437"
"11","11","retrieval","new_objects","241","Syringe_Blunt.jpg","37","1","813"
"11","11","retrieval","old_objects","242","Nuts_Peanuts.jpg","36","1","905"
"11","11","retrieval","new_objects","243","Lion.jpg","37","1","1442"
"11","11","retrieval","new_objects","245","Chinchilla.jpg","37","1","855"
"11","11","retrieval","old_objects","246","Pot_CastIron.jpg","36","1","1132"
"11","11","retrieval","old_objects","247","Toy_Firetruck.jpg","36","1","1097"
"11","11","retrieval","new_objects","248","House_Stone.jpg","37","1","758"
"11","11","retrieval","old_objects","249","Eggplant.jpg","36","1","1010"
"11","11","retrieval","new_objects","250","CigarCase.jpg","37","1","981"
"11","11","retrieval","old_objects","251","Drum_Tall.jpg","36","1","835"
"11","11","retrieval","new_objects","252","Booth_Carnival.jpg","37","1","1234"
"11","11","retrieval","old_objects","253","Car_Vintage.jpg","36","1","984"
"11","11","retrieval","old_objects","254","Earrings_Dangling.jpg","36","1","699"
"11","11","retrieval","new_objects","255","Chimpanzee.jpg","37","1","813"
"11","11","retrieval","new_objects","256","Envelope_Letter.jpg","37","1","1392"
"11","11","retrieval","old_objects","257","Desk_White.jpg","36","1","775"
"11","11","retrieval","new_objects","258","WaterGun.jpg","36","0","1648"
"11","11","retrieval","new_objects","259","Can_MilkAntique.jpg","36","0","1076"
"11","11","retrieval","old_objects","260","Cabasa.jpg","36","1","750"
"11","11","retrieval","new_objects","261","SmokingPipe.jpg","37","1","956"
"11","11","retrieval","new_objects","262","Milkshake_Strawberry.jpg","37","1","1092"
"11","11","retrieval","old_objects","263","GasStation.jpg","36","1","847"
"11","11","retrieval","old_objects","264","Dog_ChowChow.jpg","36","1","836"
"11","11","retrieval","old_objects","265","Seal_Toy.jpg","36","1","751"
"11","11","retrieval","new_objects","266","Phone_Military.jpg","37","1","1128"
"11","11","retrieval","old_objects","267","Helmet_Bicycle.jpg","36","1","751"
"11","11","retrieval","old_objects","268","Toy_Babydoll.jpg","36","1","604"
"11","11","retrieval","new_objects","269","CandleSnuffer.jpg","37","1","1161"
"11","11","retrieval","new_objects","270","Speakers_Theatre.jpg","37","1","1058"
"11","11","retrieval","old_objects","271","Camel_Dromedary.jpg","36","1","775"
"11","11","retrieval","new_objects","272","Mirror_Handheld.jpg","36","0","617"
"11","11","retrieval","new_objects","273","SpongeScrubbing.jpg","37","1","1127"
"11","11","retrieval","old_objects","274","Bandage_Wrap.jpg","36","1","958"
"11","11","retrieval","new_objects","275","Can_Olives.jpg","37","1","1614"
"11","11","retrieval","new_objects","276","Tricycle.jpg","37","1","707"
"11","11","retrieval","new_objects","277","Walkman.jpg","37","1","613"
"11","11","retrieval","new_objects","278","Gameboy.jpg","37","1","658"
"11","11","retrieval","old_objects","279","Brush_Shaving.jpg","36","1","747"
"11","11","retrieval","old_objects","280","Bible.jpg","36","1","808"
"11","11","retrieval","new_objects","281","MixingGlass.jpg","37","1","854"
"11","11","retrieval","old_objects","282","Toy_Slide.jpg","36","1","820"
"11","11","retrieval","new_objects","283","BumperCar.jpg","37","1","1025"
"11","11","retrieval","old_objects","284","Cart_Wooden.jpg","36","1","1781"
"11","11","retrieval","new_objects","285","Walker_Silver.jpg","37","1","858"
"11","11","retrieval","new_objects","286","ChainRusty.jpg","37","1","756"
"11","11","retrieval","new_objects","287","Carbiner_Ascender.jpg","37","1","666"
"11","11","retrieval","new_objects","288","Pajamas.jpg","37","1","966"
"11","11","retrieval","old_objects","289","Donut.jpg","36","1","685"
"11","11","retrieval","new_objects","290","Giraffe.jpg","37","1","1089"
"11","11","retrieval","new_objects","291","Handbag.jpg","0","0","2000"
"11","11","retrieval","new_objects","292","Pottery.jpg","37","1","1626"
"11","11","retrieval","new_objects","293","BottleOpener.jpg","37","1","821"
"11","11","retrieval","old_objects","294","Box_Cutlery.jpg","36","1","738"
"11","11","retrieval","old_objects","295","Pasta_Fusilli.jpg","37","0","1340"
"11","11","retrieval","old_objects","296","ProcessorFood_Modern.jpg","36","1","809"
"11","11","retrieval","new_objects","297","Bag_Garbage.jpg","37","1","699"
"11","11","retrieval","new_objects","298","Playdoh.jpg","37","1","1587"
"11","11","retrieval","old_objects","299","MusicSheet.jpg","36","1","828"
"11","11","retrieval","new_objects","300","ColoringSet.jpg","37","1","1198"
"11","11","retrieval","old_objects","301","Brush_Windshield.jpg","36","1","830"
"11","11","retrieval","old_objects","302","Spoon_Baby.jpg","36","1","912"
"11","11","retrieval","old_objects","303","Case_Leather.jpg","36","1","671"
"11","11","retrieval","new_objects","304","GrillRack.jpg","37","1","1198"
"11","11","retrieval","new_objects","306","Bench_Black.jpg","37","1","808"
"11","11","retrieval","old_objects","307","Carousel.jpg","37","0","568"
"11","11","retrieval","new_objects","308","TestTube_Single.jpg","37","1","1163"
"11","11","retrieval","old_objects","309","Keg.jpg","36","1","703"
"11","11","retrieval","old_objects","310","Crate_Wine.jpg","36","1","648"
"11","11","retrieval","old_objects","311","Fan_Ceiling.jpg","36","1","769"
"11","11","retrieval","new_objects","312","CashRegister_Antique.jpg","37","1","812"
"11","11","retrieval","old_objects","313","LightBulb_Christmas.jpg","36","1","784"
"11","11","retrieval","old_objects","314","Artichoke.jpg","36","1","567"
"11","11","retrieval","new_objects","315","ComputerKey_Escape.jpg","37","1","966"
"11","11","retrieval","old_objects","316","Flute_Tin.jpg","36","1","873"
"11","11","retrieval","new_objects","317","Harp.jpg","37","1","720"
"11","11","retrieval","new_objects","318","OrangeBlood.jpg","37","1","625"
"11","11","retrieval","new_objects","319","GutterAndDrainPipe.jpg","37","1","717"
"11","11","retrieval","old_objects","320","Bagpipes.jpg","36","1","802"
"11","11","retrieval","old_objects","321","Pot_BlackOld.jpg","36","1","763"
"11","11","retrieval","new_objects","322","TissueBox.jpg","37","1","945"
"11","11","retrieval","new_objects","323","Spoon_WoodenLight.jpg","0","0","2000"
"11","11","retrieval","new_objects","324","ComputerKeyboard_F1.jpg","37","1","866"
"11","11","retrieval","old_objects","325","Lei.jpg","36","1","1010"
"11","11","retrieval","old_objects","326","Toy_BlocksLetter.jpg","36","1","613"
"11","11","retrieval","new_objects","327","Lantern_Tea.jpg","37","1","1028"
"11","11","retrieval","old_objects","328","Bowl_Chinese.jpg","36","1","902"
"11","11","retrieval","new_objects","329","VinylRecord.jpg","37","1","1005"
"11","11","retrieval","old_objects","330","Toy_Taxi.jpg","36","1","1307"
"11","11","retrieval","old_objects","331","IceCubes copy.jpg","36","1","595"
"11","11","retrieval","old_objects","332","SoundMixer_Blue.jpg","36","1","1076"
"11","11","retrieval","old_objects","333","Broccoli.jpg","36","1","614"
"11","11","retrieval","old_objects","334","Mixer_Cement.jpg","36","1","786"
"11","11","retrieval","new_objects","335","Shoes_Pumps.jpg","37","1","1022"
"11","11","retrieval","new_objects","336","Hoodie.jpg","37","1","601"
"11","11","retrieval","old_objects","337","Shoe_Highheel.jpg","36","1","741"
"11","11","retrieval","new_objects","338","BicyclePedal.jpg","37","1","1303"
"11","11","retrieval","new_objects","339","Sword.jpg","37","1","927"
"11","11","retrieval","old_objects","340","Razor.jpg","36","1","1254"
"11","11","retrieval","old_objects","341","TelescopeSpacecraft.jpg","36","1","1070"
"11","11","retrieval","new_objects","342","Torpedo.jpg","37","1","1661"
"11","11","retrieval","old_objects","343","Toad.jpg","36","1","811"
"11","11","retrieval","new_objects","344","Bird_Duck.jpg","37","1","899"
"11","11","retrieval","old_objects","345","Carrot.jpg","36","1","785"
"11","11","retrieval","new_objects","346","Statue_Man.jpg","37","1","1552"
"11","11","retrieval","old_objects","347","TreeStump.jpg","36","1","882"
"11","11","retrieval","new_objects","348","SnowGlobe.jpg","37","1","863"
"11","11","retrieval","old_objects","349","Corn_Kernels.jpg","36","1","725"
"11","11","retrieval","old_objects","350","EyeChart.jpg","36","1","624"
"11","11","retrieval","old_objects","351","Mask_HockeyGoalie.jpg","36","1","802"
"11","11","retrieval","new_objects","352","LicensePlate.jpg","37","1","755"
"11","11","retrieval","new_objects","353","LightBulb_White.jpg","37","1","1706"
"11","11","retrieval","old_objects","354","Yarmulke.jpg","36","1","951"
"11","11","retrieval","new_objects","355","Bag_Gift.jpg","37","1","747"
"11","11","demographics_block","gender","1","Bag_Gift.jpg","male","1","19682"
"11","11","demographics_block","age","1","Bag_Gift.jpg","56","1","19682"
"11","11","demographics_block","education","1","Bag_Gift.jpg","16","1","19682"
"11","11","demographics_block","left_right_handed","2","Bag_Gift.jpg","Right","1","9558"
"11","11","demographics_block","raceoption1","2","Bag_Gift.jpg","0","1","9558"
"11","11","demographics_block","raceoption2","2","Bag_Gift.jpg","","1","9558"
"11","11","demographics_block","raceoption3","2","Bag_Gift.jpg","","1","9558"
"11","11","demographics_block","raceoption4","2","Bag_Gift.jpg","","1","9558"
"11","11","demographics_block","raceoption5","2","Bag_Gift.jpg","","1","9558"
"11","11","demographics_block","raceoption6","2","Bag_Gift.jpg","","1","9558"
"11","11","demographics_block","raceoption7","2","Bag_Gift.jpg","","1","9558"
"11","11","demographics_block","raceoption8","2","Bag_Gift.jpg","","1","9558"
"11","11","demographics_block","raceoption9","2","Bag_Gift.jpg","","1","9558"
"11","11","demographics_block","raceother","2","Bag_Gift.jpg","","1","9558"
"11","11","demographics_block","raceother","2","Bag_Gift.jpg","","1","9558"
"11","11","demographics_block","english_language","2","Bag_Gift.jpg","Yes","1","9558"
"11","11","demographics_block","english_languageother","2","Bag_Gift.jpg","","1","9558"
"11","11","demographics_block","eyesight","3","Bag_Gift.jpg","Yes","1","8169"
"11","11","demographics_block","colorblind","3","Bag_Gift.jpg","No","1","8169"
"11","11","worker_id_block","worker_id_textbox","1","Bag_Gift.jpg","A2PUL3ZDXOW0VZ","1","89618"
"12","12","encoding","encoding","1","Panda.jpg","0","0","3000"
"12","12","encoding","encoding","2","Box_Cutlery.jpg","5","0","1214"
"12","12","encoding","encoding","3","Crate_Wine.jpg","5","0","844"
"12","12","encoding","encoding","4","CasketOpen.jpg","5","0","627"
"12","12","encoding","encoding","5","ChessPiece_Knight.jpg","6","0","1578"
"12","12","encoding","encoding","6","Toy_Slide.jpg","6","0","1384"
"12","12","encoding","encoding","7","Corn_Kernels.jpg","3","0","935"
"12","12","encoding","encoding","8","Cookie.jpg","3","0","2173"
"12","12","encoding","encoding","9","Pipette.jpg","3","0","780"
"12","12","encoding","encoding","10","Eggplant.jpg","5","0","451"
"12","12","encoding","encoding","11","Yarmulke.jpg","6","0","2874"
"12","12","encoding","encoding","12","Pepper_Chili.jpg","2","0","1608"
"12","12","encoding","encoding","13","BookShelf.jpg","6","0","1279"
"12","12","encoding","encoding","14","Toy_BlocksLetter.jpg","5","0","1757"
"12","12","encoding","encoding","15","Cabasa.jpg","5","0","1020"
"12","12","encoding","encoding","16","SoundMixer_Blue.jpg","5","0","883"
"12","12","encoding","encoding","17","Dog_ChowChow.jpg","2","0","1905"
"12","12","encoding","encoding","18","EyeChart.jpg","6","0","1968"
"12","12","encoding","encoding","19","Glass_Bowl.jpg","5","0","1759"
"12","12","encoding","encoding","20","Suspenders.jpg","3","0","2094"
"12","12","encoding","encoding","21","Earrings_Dangling.jpg","5","0","1996"
"12","12","encoding","encoding","22","ProjectorScreen.jpg","5","0","1971"
"12","12","encoding","encoding","23","MatchBook.jpg","5","0","1010"
"12","12","encoding","encoding","24","Bark.jpg","1","0","2864"
"12","12","encoding","encoding","25","IceCubes copy.jpg","6","0","2366"
"12","12","encoding","encoding","26","TreeStump.jpg","2","0","1709"
"12","12","encoding","encoding","27","Shield_Antique.jpg","6","0","1668"
"12","12","encoding","encoding","28","Case_Leather.jpg","6","0","1474"
"12","12","encoding","encoding","29","LightBulb_Christmas.jpg","5","0","1577"
"12","12","encoding","encoding","30","TomatoSauce.jpg","5","0","1368"
"12","12","encoding","encoding","31","Bandage_Wrap.jpg","5","0","1342"
"12","12","encoding","encoding","32","Helmet_Bicycle.jpg","5","0","2501"
"12","12","encoding","encoding","33","Box_GiftTopView.jpg","5","0","1300"
"12","12","encoding","encoding","34","Bowl_Chinese.jpg","5","0","1042"
"12","12","encoding","encoding","35","PaperStack.jpg","5","0","993"
"12","12","encoding","encoding","36","Dart.jpg","6","0","2192"
"12","12","encoding","encoding","37","Hotdog_WithBun.jpg","5","0","2102"
"12","12","encoding","encoding","38","Stick_Honey.jpg","4","0","1621"
"12","12","encoding","encoding","39","Toad.jpg","0","0","3000"
"12","12","encoding","encoding","40","Truck_VintageBlue.jpg","4","0","1042"
"12","12","encoding","encoding","41","OperaGlasses.jpg","6","0","864"
"12","12","encoding","encoding","42","Bagpipes.jpg","0","0","3000"
"12","12","encoding","encoding","43","Bag_Hand.jpg","6","0","789"
"12","12","encoding","encoding","44","Thermostat.jpg","6","0","1420"
"12","12","encoding","encoding","45","VGAport.jpg","6","0","802"
"12","12","encoding","encoding","46","Drum_Tall.jpg","6","0","905"
"12","12","encoding","encoding","47","Missile.jpg","5","0","1943"
"12","12","encoding","encoding","48","Drink_Cocktail.jpg","5","0","2630"
"12","12","encoding","encoding","49","Fan_Ceiling.jpg","5","0","1781"
"12","12","encoding","encoding","50","Bible.jpg","4","0","2364"
"12","12","encoding","encoding","51","Icepick.jpg","0","0","3000"
"12","12","encoding","encoding","52","Pot_CastIron.jpg","0","0","3000"
"12","12","encoding","encoding","53","Domino.jpg","4","0","453"
"12","12","encoding","encoding","54","Car_Vintage.jpg","5","0","420"
"12","12","encoding","encoding","55","Chair_Office.jpg","5","0","707"
"12","12","encoding","encoding","56","AirVent.jpg","7","0","1586"
"12","12","encoding","encoding","57","Telephone_Dial.jpg","5","0","2536"
"12","12","encoding","encoding","58","WalkieTalkie_Red.jpg","6","0","2391"
"12","12","encoding","encoding","59","Broccoli.jpg","1","0","2118"
"12","12","encoding","encoding","60","Plate_Decorative.jpg","5","0","2804"
"12","12","encoding","encoding","62","PirateFlag.jpg","6","0","1876"
"12","12","encoding","encoding","63","WindshieldWasherFluid.jpg","5","0","1811"
"12","12","encoding","encoding","64","Paddle_Beach.jpg","5","0","1474"
"12","12","encoding","encoding","65","CableConnecter.jpg","5","0","1856"
"12","12","encoding","encoding","66","HairCurler.jpg","5","0","911"
"12","12","encoding","encoding","67","Lettuce_Iceberg.jpg","1","0","2037"
"12","12","encoding","encoding","68","Ferret.jpg","3","0","2468"
"12","12","encoding","encoding","69","Jacks.jpg","5","0","2123"
"12","12","encoding","encoding","70","Lantern_Chinese.jpg","5","0","1074"
"12","12","encoding","encoding","71","Bowtie.jpg","6","0","2264"
"12","12","encoding","encoding","72","Coatrack.jpg","5","0","1623"
"12","12","encoding","encoding","73","Cornucopia.jpg","1","0","1629"
"12","12","encoding","encoding","74","Mask_HockeyGoalie.jpg","6","0","996"
"12","12","encoding","encoding","75","SpaceShuttle.jpg","6","0","1611"
"12","12","encoding","encoding","76","Kebab_Vegetables.jpg","6","0","722"
"12","12","encoding","encoding","77","Squash_Butternut.jpg","2","0","1904"
"12","12","encoding","encoding","78","KnifeHolder.jpg","4","0","2263"
"12","12","encoding","encoding","79","Stool_Foot.jpg","5","0","2014"
"12","12","encoding","encoding","80","Donut.jpg","0","0","3000"
"12","12","encoding","encoding","81","Kangaroo.jpg","3","0","1178"
"12","12","encoding","encoding","82","Parcel.jpg","5","0","1393"
"12","12","encoding","encoding","83","Barrel_Wine.jpg","5","0","760"
"12","12","encoding","encoding","84","TelescopeSpacecraft.jpg","5","0","966"
"12","12","encoding","encoding","85","WireStripper.jpg","6","0","1589"
"12","12","encoding","encoding","86","HairDryer.jpg","6","0","1524"
"12","12","encoding","encoding","87","RecordPlayer.jpg","6","0","1738"
"12","12","encoding","encoding","88","Brush_Windshield.jpg","5","0","1456"
"12","12","encoding","encoding","89","IceCubes.jpg","5","0","879"
"12","12","encoding","encoding","90","Folder_Plastic.jpg","5","0","845"
"12","12","encoding","encoding","91","Fridge.jpg","5","0","900"
"12","12","encoding","encoding","92","LightHouse.jpg","5","0","851"
"12","12","encoding","encoding","93","Briefcase_Open.jpg","5","0","770"
"12","12","encoding","encoding","94","Cart_Wooden.jpg","5","0","840"
"12","12","encoding","encoding","95","Box_Present.jpg","5","0","951"
"12","12","encoding","encoding","96","Razor.jpg","5","0","822"
"12","12","encoding","encoding","97","Toy_Firetruck.jpg","5","0","644"
"12","12","encoding","encoding","98","TelephoneSwitchboard.jpg","5","0","675"
"12","12","encoding","encoding","99","Bus_DoubleDecker.jpg","6","0","1849"
"12","12","encoding","encoding","100","Crown.jpg","7","0","1920"
"12","12","encoding","encoding","101","Toy_Stroller.jpg","3","0","2327"
"12","12","encoding","encoding","102","Mask_Masquerade.jpg","3","0","1941"
"12","12","encoding","encoding","103","Gloves_WhiteKnit.jpg","5","0","1428"
"12","12","encoding","encoding","104","Cherry.jpg","5","0","595"
"12","12","encoding","encoding","105","ConnectorPlug.jpg","5","0","906"
"12","12","encoding","encoding","106","Shoe_Highheel.jpg","5","0","1408"
"12","12","encoding","encoding","107","Toy_RobotTransformer.jpg","6","0","2047"
"12","12","encoding","encoding","108","PyramidWooden.jpg","6","0","886"
"12","12","encoding","encoding","109","LeatherPuncherTool.jpg","5","0","1252"
"12","12","encoding","encoding","110","Loofa.jpg","4","0","1851"
"12","12","encoding","encoding","111","Chair_PlasticGreen.jpg","4","0","1698"
"12","12","encoding","encoding","112","Cleaver_Meat.jpg","5","0","2752"
"12","12","encoding","encoding","113","Pasta_Fettuccine.jpg","0","0","3000"
"12","12","encoding","encoding","114","Sign_Parking.jpg","5","0","1021"
"12","12","encoding","encoding","115","Toy_Taxi.jpg","5","0","1364"
"12","12","encoding","encoding","116","NetButterfly.jpg","5","0","779"
"12","12","encoding","encoding","117","Cooler.jpg","5","0","662"
"12","12","encoding","encoding","118","Keg.jpg","5","0","912"
"12","12","encoding","encoding","119","Desk_White.jpg","6","0","2023"
"12","12","encoding","encoding","120","Fork_Regular.jpg","3","0","1925"
"12","12","encoding","encoding","121","Brush_Shaving.jpg","4","0","620"
"12","12","encoding","encoding","123","Boar.jpg","0","0","3000"
"12","12","encoding","encoding","124","Candleholder_LampShaped.jpg","4","0","831"
"12","12","encoding","encoding","125","Pot_BlackOld.jpg","4","0","1286"
"12","12","encoding","encoding","126","Hay.jpg","3","0","1788"
"12","12","encoding","encoding","127","ToothPick.jpg","3","0","2467"
"12","12","encoding","encoding","128","Speaker_Computer.jpg","6","0","1994"
"12","12","encoding","encoding","129","PersonWooden.jpg","5","0","2544"
"12","12","encoding","encoding","130","Peach.jpg","5","0","767"
"12","12","encoding","encoding","131","Mask_CPR.jpg","6","0","1565"
"12","12","encoding","encoding","132","Flute_Tin.jpg","0","0","3000"
"12","12","encoding","encoding","133","Pot_Cooking.jpg","5","0","1018"
"12","12","encoding","encoding","134","Artichoke.jpg","2","0","1545"
"12","12","encoding","encoding","135","Sign_TrafficArrow.jpg","4","0","1584"
"12","12","encoding","encoding","136","Binder.jpg","5","0","926"
"12","12","encoding","encoding","137","Sculpture_MetalMan.jpg","6","0","1725"
"12","12","encoding","encoding","138","Pasta_Shell.jpg","1","0","2444"
"12","12","encoding","encoding","139","Spoon_Baby.jpg","2","0","1586"
"12","12","encoding","encoding","140","GPS.jpg","3","0","761"
"12","12","encoding","encoding","141","USBKey.jpg","4","0","1136"
"12","12","encoding","encoding","142","Chair_Dining.jpg","5","0","1742"
"12","12","encoding","encoding","143","PumpBreast.jpg","6","0","2109"
"12","12","encoding","encoding","144","Bag_PaperWithFlour.jpg","0","0","3000"
"12","12","encoding","encoding","145","Toy_Babydoll.jpg","1","0","2578"
"12","12","encoding","encoding","146","Doll_Rag.jpg","2","0","1992"
"12","12","encoding","encoding","147","Toy_Boat.jpg","7","0","1439"
"12","12","encoding","encoding","148","Pot_TurkishCoffee.jpg","4","0","1893"
"12","12","encoding","encoding","149","SkiPoles.jpg","5","0","1572"
"12","12","encoding","encoding","150","Camel_Dromedary.jpg","0","0","3000"
"12","12","encoding","encoding","151","Sign_SlipperyRoad.jpg","4","0","2281"
"12","12","encoding","encoding","152","Jar_Honey.jpg","2","0","2144"
"12","12","encoding","encoding","153","MusicSheet.jpg","3","0","2102"
"12","12","encoding","encoding","154","Mixer_Cement.jpg","5","0","1149"
"12","12","encoding","encoding","155","WindowBlinds.jpg","5","0","1228"
"12","12","encoding","encoding","156","Bird_Eagle.jpg","2","0","2522"
"12","12","encoding","encoding","157","Seal_Toy.jpg","2","0","1313"
"12","12","encoding","encoding","158","Toy_PoliceCar.jpg","0","0","3000"
"12","12","encoding","encoding","159","Bandage_Adhesive.jpg","5","0","1733"
"12","12","encoding","encoding","160","GasStation.jpg","5","0","708"
"12","12","encoding","encoding","161","Carrot.jpg","2","0","1435"
"12","12","encoding","encoding","162","Hawk.jpg","3","0","2065"
"12","12","encoding","encoding","163","Nuts_Peanuts.jpg","4","0","888"
"12","12","encoding","encoding","164","ManholeCover.jpg","4","0","983"
"12","12","encoding","encoding","165","ProcessorFood_Modern.jpg","5","0","925"
"12","12","encoding","encoding","166","Spatula_1.jpg","5","0","764"
"12","12","encoding","encoding","167","Chicken_FriedDrum.jpg","1","0","1899"
"12","12","encoding","encoding","168","Lei.jpg","2","0","2202"
"12","12","encoding","encoding","169","Spear.jpg","3","0","896"
"12","12","encoding","encoding","170","CoffeePot.jpg","4","0","783"
"12","12","encoding","encoding","171","Pasta_Fusilli.jpg","5","0","1430"
"12","12","encoding","encoding","172","Sign_Washroom.jpg","6","0","1356"
"12","12","encoding","encoding","173","Noose.jpg","7","0","1347"
"12","12","encoding","encoding","174","Carousel.jpg","7","0","2130"
"12","12","encoding","encoding","175","PillBottle_Closed.jpg","6","0","1992"
"12","12","encoding","encoding","176","Toy_Tractor_1.jpg","5","0","1447"
"12","12","encoding","encoding","177","Clock_Digital.jpg","4","0","1317"
"12","12","retrieval","old_objects","1","Mask_Masquerade.jpg","36","1","1795"
"12","12","retrieval","old_objects","2","Domino.jpg","37","0","649"
"12","12","retrieval","new_objects","3","Button.jpg","37","1","1037"
"12","12","retrieval","old_objects","4","OperaGlasses.jpg","37","0","530"
"12","12","retrieval","new_objects","5","RibbonPin.jpg","36","0","1067"
"12","12","retrieval","new_objects","6","Cage_Hamster.jpg","37","1","1086"
"12","12","retrieval","new_objects","7","Skirt_Long.jpg","36","0","1233"
"12","12","retrieval","old_objects","8","Pasta_Fettuccine.jpg","37","0","1477"
"12","12","retrieval","old_objects","9","Toy_BlocksLetter.jpg","37","0","864"
"12","12","retrieval","new_objects","10","JukeboxAntique.jpg","37","1","604"
"12","12","retrieval","old_objects","11","Yarmulke.jpg","36","1","842"
"12","12","retrieval","old_objects","12","Box_Present.jpg","36","1","1231"
"12","12","retrieval","new_objects","13","Pyramid.jpg","36","0","1963"
"12","12","retrieval","old_objects","14","Pot_CastIron.jpg","37","0","755"
"12","12","retrieval","old_objects","15","Broccoli.jpg","36","1","755"
"12","12","retrieval","old_objects","16","Shield_Antique.jpg","36","1","1003"
"12","12","retrieval","new_objects","17","Can_Olives.jpg","36","0","1001"
"12","12","retrieval","old_objects","18","NetButterfly.jpg","36","1","1295"
"12","12","retrieval","new_objects","19","LicensePlate.jpg","36","0","1009"
"12","12","retrieval","old_objects","20","WindshieldWasherFluid.jpg","36","1","759"
"12","12","retrieval","old_objects","21","AirVent.jpg","37","0","1007"
"12","12","retrieval","old_objects","22","Spear.jpg","36","1","933"
"12","12","retrieval","new_objects","23","LightBulb_White.jpg","36","0","966"
"12","12","retrieval","new_objects","24","Box_Notepaper.jpg","36","0","853"
"12","12","retrieval","old_objects","25","KnifeHolder.jpg","37","0","569"
"12","12","retrieval","old_objects","26","Toy_Tractor_1.jpg","37","0","489"
"12","12","retrieval","old_objects","27","MusicSheet.jpg","37","0","507"
"12","12","retrieval","old_objects","28","Doll_Rag.jpg","37","0","845"
"12","12","retrieval","old_objects","29","Cherry.jpg","36","1","1442"
"12","12","retrieval","old_objects","30","Panda.jpg","36","1","919"
"12","12","retrieval","old_objects","31","TomatoSauce.jpg","36","1","728"
"12","12","retrieval","new_objects","32","Headphones.jpg","37","1","993"
"12","12","retrieval","old_objects","33","Cornucopia.jpg","36","1","791"
"12","12","retrieval","old_objects","34","Truck_VintageBlue.jpg","37","0","694"
"12","12","retrieval","old_objects","35","Boar.jpg","36","1","929"
"12","12","retrieval","old_objects","36","Cart_Wooden.jpg","37","0","762"
"12","12","retrieval","new_objects","37","Waffle.jpg","36","0","593"
"12","12","retrieval","new_objects","38","CertificateFramed.jpg","37","1","607"
"12","12","retrieval","old_objects","39","Camel_Dromedary.jpg","36","1","701"
"12","12","retrieval","new_objects","40","Chinchilla.jpg","36","0","663"
"12","12","retrieval","new_objects","41","Statue_Head.jpg","36","0","1211"
"12","12","retrieval","old_objects","42","Toy_Boat.jpg","37","0","968"
"12","12","retrieval","new_objects","43","Guitar_Electric.jpg","37","1","704"
"12","12","retrieval","new_objects","44","Torpedo.jpg","37","1","674"
"12","12","retrieval","old_objects","45","Chair_Office.jpg","37","0","1069"
"12","12","retrieval","new_objects","46","Rock_Mimetite.jpg","37","1","1265"
"12","12","retrieval","new_objects","47","Carbiner_Ascender.jpg","37","1","556"
"12","12","retrieval","old_objects","48","Artichoke.jpg","37","0","444"
"12","12","retrieval","old_objects","49","Lei.jpg","37","0","849"
"12","12","retrieval","old_objects","50","Jacks.jpg","37","0","589"
"12","12","retrieval","new_objects","51","Window.jpg","36","0","1100"
"12","12","retrieval","old_objects","52","Bus_DoubleDecker.jpg","37","0","678"
"12","12","retrieval","old_objects","53","Lantern_Chinese.jpg","37","0","153"
"12","12","retrieval","new_objects","54","ComputerKey_Escape.jpg","37","1","65"
"12","12","retrieval","old_objects","55","Pasta_Fusilli.jpg","37","0","5"
"12","12","retrieval","old_objects","56","BookShelf.jpg","37","0","43"
"12","12","retrieval","old_objects","57","Toad.jpg","37","0","79"
"12","12","retrieval","old_objects","58","Mask_HockeyGoalie.jpg","37","0","1147"
"12","12","retrieval","new_objects","59","Seal_animal.jpg","37","1","1099"
"12","12","retrieval","old_objects","60","Barrel_Wine.jpg","37","0","669"
"12","12","retrieval","old_objects","62","Case_Leather.jpg","37","0","1691"
"12","12","retrieval","old_objects","63","Bandage_Adhesive.jpg","37","0","709"
"12","12","retrieval","new_objects","64","TestTube_Single.jpg","37","1","423"
"12","12","retrieval","new_objects","65","EyeDrops.jpg","37","1","404"
"12","12","retrieval","new_objects","66","Mirror_Handheld.jpg","36","0","754"
"12","12","retrieval","new_objects","67","Bench_Black.jpg","37","1","562"
"12","12","retrieval","old_objects","68","Thermostat.jpg","37","0","602"
"12","12","retrieval","old_objects","69","Sculpture_MetalMan.jpg","37","0","616"
"12","12","retrieval","new_objects","70","Peppermill.jpg","37","1","517"
"12","12","retrieval","new_objects","71","IroningBoard.jpg","37","1","583"
"12","12","retrieval","old_objects","72","Binder.jpg","37","0","429"
"12","12","retrieval","old_objects","73","PyramidWooden.jpg","37","0","563"
"12","12","retrieval","new_objects","74","Bowl_Glass.jpg","36","0","90"
"12","12","retrieval","old_objects","75","Gloves_WhiteKnit.jpg","37","0","509"
"12","12","retrieval","new_objects","76","Chipmunk.jpg","36","0","694"
"12","12","retrieval","new_objects","77","Bag_Gift.jpg","37","1","1104"
"12","12","retrieval","new_objects","78","Briefcase_Silver.jpg","37","1","562"
"12","12","retrieval","new_objects","79","Hockey_Puck.jpg","37","1","697"
"12","12","retrieval","old_objects","80","SoundMixer_Blue.jpg","37","0","636"
"12","12","retrieval","old_objects","81","Toy_Babydoll.jpg","36","1","1545"
"12","12","retrieval","old_objects","82","Earrings_Dangling.jpg","36","1","985"
"12","12","retrieval","new_objects","83","Pajamas.jpg","36","0","664"
"12","12","retrieval","old_objects","84","CoffeePot.jpg","37","0","908"
"12","12","retrieval","old_objects","85","Toy_Firetruck.jpg","0","0","2000"
"12","12","retrieval","old_objects","86","ChessPiece_Knight.jpg","37","0","1092"
"12","12","retrieval","old_objects","87","Clock_Digital.jpg","37","0","743"
"12","12","retrieval","new_objects","88","Fan_Blades.jpg","37","1","567"
"12","12","retrieval","new_objects","89","GutterAndDrainPipe.jpg","37","1","502"
"12","12","retrieval","old_objects","90","Bible.jpg","37","0","952"
"12","12","retrieval","new_objects","91","Playdoh.jpg","37","1","568"
"12","12","retrieval","old_objects","92","HairDryer.jpg","37","0","903"
"12","12","retrieval","new_objects","93","CigarCase.jpg","37","1","1489"
"12","12","retrieval","new_objects","94","ShoeLace_Round.jpg","0","0","2000"
"12","12","retrieval","new_objects","95","MilkPitcher.jpg","37","1","1058"
"12","12","retrieval","new_objects","96","Giraffe.jpg","36","0","390"
"12","12","retrieval","new_objects","97","MixingGlass.jpg","36","0","13"
"12","12","retrieval","new_objects","98","CodeDoorLock.jpg","37","1","42"
"12","12","retrieval","old_objects","99","ToothPick.jpg","37","0","31"
"12","12","retrieval","old_objects","100","Flute_Tin.jpg","36","1","60"
"12","12","retrieval","new_objects","101","Toaster_Antique.jpg","36","0","47"
"12","12","retrieval","old_objects","102","Brush_Windshield.jpg","37","0","20"
"12","12","retrieval","new_objects","103","Walkman.jpg","37","1","33"
"12","12","retrieval","new_objects","104","AllTerrain.jpg","37","1","118"
"12","12","retrieval","new_objects","105","Maraca.jpg","37","1","39"
"12","12","retrieval","new_objects","106","Chair_Folding.jpg","37","1","4"
"12","12","retrieval","new_objects","107","Cannister_Gas.jpg","37","1","282"
"12","12","retrieval","old_objects","108","Cookie.jpg","37","0","21"
"12","12","retrieval","old_objects","109","Speaker_Computer.jpg","37","0","251"
"12","12","retrieval","old_objects","110","CasketOpen.jpg","37","0","127"
"12","12","retrieval","new_objects","111","Lion.jpg","37","1","415"
"12","12","retrieval","new_objects","112","Bowl_Cereal.jpg","37","1","181"
"12","12","retrieval","old_objects","113","ProcessorFood_Modern.jpg","37","0","28"
"12","12","retrieval","new_objects","114","Glass_bottle.jpg","37","1","105"
"12","12","retrieval","new_objects","115","WaterGun.jpg","37","1","211"
"12","12","retrieval","old_objects","116","Seal_Toy.jpg","37","0","216"
"12","12","retrieval","old_objects","117","Fork_Regular.jpg","37","0","30"
"12","12","retrieval","old_objects","118","WireStripper.jpg","37","0","27"
"12","12","retrieval","old_objects","119","Dart.jpg","37","0","97"
"12","12","retrieval","new_objects","120","DrainPlug.jpg","37","1","243"
"12","12","retrieval","old_objects","121","Desk_White.jpg","37","0","31"
"12","12","retrieval","old_objects","123","Parcel.jpg","37","0","1284"
"12","12","retrieval","old_objects","124","Noose.jpg","37","0","751"
"12","12","retrieval","new_objects","125","GrillRack.jpg","37","1","535"
"12","12","retrieval","new_objects","126","Cart_Janitor.jpg","37","1","327"
"12","12","retrieval","old_objects","127","EyeChart.jpg","37","0","1064"
"12","12","retrieval","old_objects","128","Cabasa.jpg","37","0","93"
"12","12","retrieval","old_objects","129","Ferret.jpg","37","0","7"
"12","12","retrieval","new_objects","130","BicyclePedal.jpg","37","1","5"
"12","12","retrieval","old_objects","131","Bark.jpg","37","0","43"
"12","12","retrieval","new_objects","132","Jars_PetFood.jpg","37","1","536"
"12","12","retrieval","old_objects","133","IceCubes copy.jpg","37","0","600"
"12","12","retrieval","new_objects","134","PowerDoorPushButton.jpg","0","0","2000"
"12","12","retrieval","new_objects","135","ShinPads.jpg","37","1","556"
"12","12","retrieval","old_objects","136","Chair_Dining.jpg","37","0","428"
"12","12","retrieval","old_objects","137","Spoon_Baby.jpg","36","1","1049"
"12","12","retrieval","new_objects","138","Blueberry.jpg","36","0","493"
"12","12","retrieval","old_objects","139","Bag_PaperWithFlour.jpg","36","1","544"
"12","12","retrieval","old_objects","140","LightHouse.jpg","36","1","800"
"12","12","retrieval","old_objects","141","Mask_CPR.jpg","37","0","823"
"12","12","retrieval","new_objects","142","Jar_JellyBeans.jpg","36","0","684"
"12","12","retrieval","new_objects","143","ElasticBand.jpg","36","0","735"
"12","12","retrieval","new_objects","144","PowderProtein.jpg","36","0","751"
"12","12","retrieval","new_objects","145","AnsweringMachine.jpg","37","1","831"
"12","12","retrieval","new_objects","146","Bird_Falcon.jpg","36","0","780"
"12","12","retrieval","old_objects","147","Sign_SlipperyRoad.jpg","37","0","715"
"12","12","retrieval","new_objects","148","Hoodie.jpg","37","1","685"
"12","12","retrieval","new_objects","149","Walker_Silver.jpg","37","1","631"
"12","12","retrieval","new_objects","150","Tricycle.jpg","37","1","540"
"12","12","retrieval","old_objects","151","PersonWooden.jpg","37","0","597"
"12","12","retrieval","old_objects","152","Kebab_Vegetables.jpg","36","1","1011"
"12","12","retrieval","old_objects","153","Bag_Hand.jpg","37","0","601"
"12","12","retrieval","new_objects","154","Exercise_Machine.jpg","37","1","711"
"12","12","retrieval","new_objects","155","DogSled.jpg","36","0","1264"
"12","12","retrieval","old_objects","156","Peach.jpg","36","1","869"
"12","12","retrieval","old_objects","157","Crate_Wine.jpg","37","0","1080"
"12","12","retrieval","new_objects","158","Lectern.jpg","37","1","539"
"12","12","retrieval","new_objects","159","NailFiles.jpg","37","1","1131"
"12","12","retrieval","new_objects","160","Hat_Beanie.jpg","37","1","636"
"12","12","retrieval","new_objects","161","Toy_RockingHorseBeige.jpg","37","1","705"
"12","12","retrieval","new_objects","162","HairBand.jpg","37","1","995"
"12","12","retrieval","new_objects","163","Pliers_NeedleNose.jpg","37","1","585"
"12","12","retrieval","old_objects","164","Icepick.jpg","37","0","799"
"12","12","retrieval","old_objects","165","Cleaver_Meat.jpg","37","0","685"
"12","12","retrieval","old_objects","166","CableConnecter.jpg","37","0","536"
"12","12","retrieval","new_objects","167","Pants_Firefighter.jpg","37","1","617"
"12","12","retrieval","old_objects","168","Squash_Butternut.jpg","37","0","486"
"12","12","retrieval","new_objects","169","OrangeBlood.jpg","36","0","577"
"12","12","retrieval","new_objects","170","Spoon_WoodenLight.jpg","36","0","407"
"12","12","retrieval","old_objects","171","Bagpipes.jpg","36","1","421"
"12","12","retrieval","new_objects","172","Speakers_Theatre.jpg","36","0","907"
"12","12","retrieval","new_objects","173","Crowbar.jpg","37","1","1085"
"12","12","retrieval","new_objects","174","Booth_Carnival.jpg","36","0","839"
"12","12","retrieval","old_objects","175","Pot_Cooking.jpg","36","1","980"
"12","12","retrieval","new_objects","176","Gun_Glue.jpg","37","1","883"
"12","12","retrieval","old_objects","177","Drum_Tall.jpg","36","1","765"
"12","12","retrieval","new_objects","178","Bag_Diaper.jpg","36","0","1069"
"12","12","retrieval","new_objects","179","Hat_Explorer.jpg","36","0","600"
"12","12","retrieval","new_objects","180","CashRegister_Antique.jpg","36","0","126"
"12","12","retrieval","old_objects","181","ProjectorScreen.jpg","36","1","159"
"12","12","retrieval","old_objects","182","Pot_TurkishCoffee.jpg","36","1","127"
"12","12","retrieval","new_objects","184","SculptureMetalFish.jpg","37","1","1183"
"12","12","retrieval","new_objects","185","CandleSnuffer.jpg","37","1","37"
"12","12","retrieval","old_objects","186","Shoe_Highheel.jpg","37","0","66"
"12","12","retrieval","old_objects","187","Corn_Kernels.jpg","37","0","21"
"12","12","retrieval","new_objects","188","Tuxedo.jpg","37","1","115"
"12","12","retrieval","old_objects","189","WalkieTalkie_Red.jpg","37","0","116"
"12","12","retrieval","new_objects","190","Sword.jpg","36","0","149"
"12","12","retrieval","new_objects","191","Horseshoe.jpg","36","0","29"
"12","12","retrieval","old_objects","192","Bird_Eagle.jpg","36","1","91"
"12","12","retrieval","old_objects","193","Cooler.jpg","37","0","5"
"12","12","retrieval","new_objects","194","RiceCooker.jpg","37","1","339"
"12","12","retrieval","old_objects","195","Sign_Parking.jpg","37","0","132"
"12","12","retrieval","old_objects","196","Toy_Slide.jpg","37","0","69"
"12","12","retrieval","old_objects","197","PumpBreast.jpg","37","0","160"
"12","12","retrieval","old_objects","198","LightBulb_Christmas.jpg","37","0","208"
"12","12","retrieval","new_objects","199","Case_DVD.jpg","37","1","197"
"12","12","retrieval","old_objects","200","Keg.jpg","37","0","108"
"12","12","retrieval","old_objects","201","Jar_Honey.jpg","37","0","102"
"12","12","retrieval","new_objects","202","SnowGlobe.jpg","37","1","168"
"12","12","retrieval","new_objects","203","Toy_MrPotatoHeadjpg.jpg","37","1","184"
"12","12","retrieval","new_objects","204","Cymbals.jpg","37","1","246"
"12","12","retrieval","new_objects","205","Pottery.jpg","37","1","258"
"12","12","retrieval","new_objects","206","ComputerKeyboard_F1.jpg","37","1","173"
"12","12","retrieval","new_objects","207","ShowerCap.jpg","37","1","221"
"12","12","retrieval","old_objects","208","ConnectorPlug.jpg","37","0","146"
"12","12","retrieval","new_objects","209","Pants_Jeans.jpg","37","1","226"
"12","12","retrieval","old_objects","210","Brush_Shaving.jpg","37","0","231"
"12","12","retrieval","new_objects","211","Shoes_Pumps.jpg","37","1","52"
"12","12","retrieval","new_objects","212","Barometer.jpg","37","1","152"
"12","12","retrieval","new_objects","213","Can_MilkAntique.jpg","37","1","128"
"12","12","retrieval","old_objects","214","TreeStump.jpg","37","0","193"
"12","12","retrieval","old_objects","215","Eggplant.jpg","36","1","824"
"12","12","retrieval","old_objects","216","Bandage_Wrap.jpg","36","1","365"
"12","12","retrieval","new_objects","217","Phone_Military.jpg","36","0","773"
"12","12","retrieval","new_objects","218","BumperCar.jpg","36","0","675"
"12","12","retrieval","new_objects","219","Handbag.jpg","36","0","478"
"12","12","retrieval","old_objects","220","Stick_Honey.jpg","36","1","473"
"12","12","retrieval","old_objects","221","HairCurler.jpg","36","1","133"
"12","12","retrieval","old_objects","222","Briefcase_Open.jpg","36","1","85"
"12","12","retrieval","new_objects","223","Bread_Carrot.jpg","36","0","104"
"12","12","retrieval","old_objects","224","ManholeCover.jpg","36","1","90"
"12","12","retrieval","old_objects","225","Toy_RobotTransformer.jpg","36","1","301"
"12","12","retrieval","old_objects","226","Spatula_1.jpg","37","0","119"
"12","12","retrieval","old_objects","227","VGAport.jpg","37","0","96"
"12","12","retrieval","old_objects","228","Kangaroo.jpg","37","0","26"
"12","12","retrieval","old_objects","229","Box_GiftTopView.jpg","37","0","1048"
"12","12","retrieval","old_objects","230","MatchBook.jpg","36","1","149"
"12","12","retrieval","new_objects","231","Hoverboard.jpg","37","1","53"
"12","12","retrieval","new_objects","232","Makeup_Bag.jpg","37","1","81"
"12","12","retrieval","old_objects","233","Glass_Bowl.jpg","37","0","36"
"12","12","retrieval","new_objects","234","Clock_Radio.jpg","36","0","89"
"12","12","retrieval","old_objects","235","LeatherPuncherTool.jpg","37","0","179"
"12","12","retrieval","old_objects","236","Mixer_Cement.jpg","37","0","59"
"12","12","retrieval","old_objects","237","Pot_BlackOld.jpg","36","1","223"
"12","12","retrieval","old_objects","238","Sign_TrafficArrow.jpg","36","1","44"
"12","12","retrieval","old_objects","239","Chicken_FriedDrum.jpg","36","1","753"
"12","12","retrieval","old_objects","240","Candleholder_LampShaped.jpg","36","1","153"
"12","12","retrieval","old_objects","241","Nuts_Peanuts.jpg","37","0","49"
"12","12","retrieval","new_objects","242","Bowl_Sugar.jpg","37","1","205"
"12","12","retrieval","new_objects","243","CarLighter.jpg","37","1","195"
"12","12","retrieval","new_objects","245","Lantern_Tea.jpg","36","0","514"
"12","12","retrieval","new_objects","246","Tray_Cafeteria.jpg","36","0","275"
"12","12","retrieval","old_objects","247","Fan_Ceiling.jpg","36","1","63"
"12","12","retrieval","old_objects","248","Folder_Plastic.jpg","36","1","227"
"12","12","retrieval","new_objects","249","Wallet_ClosedBlack.jpg","36","0","15"
"12","12","retrieval","old_objects","250","USBKey.jpg","36","1","45"
"12","12","retrieval","new_objects","251","Ghost.jpg","36","0","257"
"12","12","retrieval","old_objects","252","Paddle_Beach.jpg","37","0","109"
"12","12","retrieval","new_objects","253","Milkshake_Strawberry.jpg","37","1","134"
"12","12","retrieval","new_objects","254","Phone_Public.jpg","37","1","103"
"12","12","retrieval","new_objects","255","Towel.jpg","37","1","9"
"12","12","retrieval","new_objects","256","Toy_Christmastree.jpg","37","1","246"
"12","12","retrieval","old_objects","257","Pasta_Shell.jpg","37","0","83"
"12","12","retrieval","new_objects","258","Playard.jpg","37","1","381"
"12","12","retrieval","old_objects","259","Helmet_Bicycle.jpg","37","0","29"
"12","12","retrieval","old_objects","260","Telephone_Dial.jpg","37","0","114"
"12","12","retrieval","old_objects","261","Car_Vintage.jpg","37","0","180"
"12","12","retrieval","new_objects","262","Chair_High.jpg","37","1","187"
"12","12","retrieval","new_objects","263","PortaPotty.jpg","37","1","121"
"12","12","retrieval","new_objects","264","Gloves_Bicycle.jpg","37","1","195"
"12","12","retrieval","old_objects","265","Carrot.jpg","37","0","145"
"12","12","retrieval","new_objects","266","LightBulb_Blue.jpg","36","0","25"
"12","12","retrieval","old_objects","267","Chair_PlasticGreen.jpg","36","1","15"
"12","12","retrieval","old_objects","268","Coatrack.jpg","36","1","69"
"12","12","retrieval","new_objects","269","Beaker.jpg","36","0","144"
"12","12","retrieval","new_objects","270","ContactLens.jpg","36","0","240"
"12","12","retrieval","new_objects","271","Croissant.jpg","37","1","1053"
"12","12","retrieval","new_objects","272","Candy_Lozenge.jpg","36","0","81"
"12","12","retrieval","new_objects","273","Cake_Birthday.jpg","37","1","123"
"12","12","retrieval","old_objects","274","Hay.jpg","36","1","77"
"12","12","retrieval","old_objects","275","SpaceShuttle.jpg","37","0","56"
"12","12","retrieval","old_objects","276","Razor.jpg","37","0","84"
"12","12","retrieval","old_objects","277","Carousel.jpg","37","0","143"
"12","12","retrieval","old_objects","278","RecordPlayer.jpg","37","0","151"
"12","12","retrieval","old_objects","279","Bowtie.jpg","37","0","151"
"12","12","retrieval","old_objects","280","PaperStack.jpg","37","0","39"
"12","12","retrieval","old_objects","281","IceCubes.jpg","37","0","84"
"12","12","retrieval","new_objects","282","PylonTraffic.jpg","37","1","95"
"12","12","retrieval","new_objects","283","Statue_ManHorse.jpg","37","1","153"
"12","12","retrieval","new_objects","284","Cannoli.jpg","37","1","16"
"12","12","retrieval","old_objects","285","Stool_Foot.jpg","37","0","86"
"12","12","retrieval","new_objects","286","Gecko.jpg","37","1","185"
"12","12","retrieval","new_objects","287","Chimpanzee.jpg","36","0","151"
"12","12","retrieval","old_objects","288","Suspenders.jpg","36","1","135"
"12","12","retrieval","new_objects","289","Bowl_Pasta.jpg","36","0","168"
"12","12","retrieval","new_objects","290","PostageStamps.jpg","36","0","143"
"12","12","retrieval","old_objects","291","PillBottle_Closed.jpg","36","1","224"
"12","12","retrieval","new_objects","292","Envelope_Letter.jpg","36","0","206"
"12","12","retrieval","new_objects","293","BottleOpener.jpg","36","0","235"
"12","12","retrieval","new_objects","294","House_Stone.jpg","36","0","184"
"12","12","retrieval","old_objects","295","Drink_Cocktail.jpg","36","1","215"
"12","12","retrieval","old_objects","296","Box_Cutlery.jpg","37","0","204"
"12","12","retrieval","new_objects","297","Kebab_Meat.jpg","36","0","66"
"12","12","retrieval","old_objects","298","Missile.jpg","37","0","181"
"12","12","retrieval","old_objects","299","Fridge.jpg","37","0","69"
"12","12","retrieval","old_objects","300","Lettuce_Iceberg.jpg","37","0","8"
"12","12","retrieval","new_objects","301","ChocolateBar_HalfUnwrapped.jpg","37","1","38"
"12","12","retrieval","old_objects","302","Plate_Decorative.jpg","36","1","35"
"12","12","retrieval","old_objects","303","GPS.jpg","36","1","927"
"12","12","retrieval","old_objects","304","Toy_PoliceCar.jpg","36","1","49"
"12","12","retrieval","new_objects","306","Clock_Grandfather.jpg","36","0","1517"
"12","12","retrieval","new_objects","307","Bread_Melon.jpg","36","0","559"
"12","12","retrieval","new_objects","308","Jug_GallonWhite.jpg","36","0","591"
"12","12","retrieval","new_objects","309","ColoringSet.jpg","36","0","605"
"12","12","retrieval","new_objects","310","Case_CD.jpg","36","0","516"
"12","12","retrieval","new_objects","311","SpongeScrubbing.jpg","36","0","437"
"12","12","retrieval","new_objects","312","Syringe_Blunt.jpg","36","0","489"
"12","12","retrieval","old_objects","313","Donut.jpg","36","1","508"
"12","12","retrieval","new_objects","314","Toy_BearBrownPlushie.jpg","36","0","493"
"12","12","retrieval","old_objects","315","GasStation.jpg","36","1","744"
"12","12","retrieval","new_objects","316","Defribrillator.jpg","36","0","600"
"12","12","retrieval","new_objects","317","Popcorn.jpg","36","0","462"
"12","12","retrieval","new_objects","318","Pasta_Spaghetti.jpg","36","0","489"
"12","12","retrieval","old_objects","319","TelephoneSwitchboard.jpg","36","1","420"
"12","12","retrieval","old_objects","320","PirateFlag.jpg","36","1","425"
"12","12","retrieval","new_objects","321","Bag_Garbage.jpg","36","0","622"
"12","12","retrieval","new_objects","322","Barbecue_Charcoal.jpg","36","0","691"
"12","12","retrieval","old_objects","323","SkiPoles.jpg","36","1","622"
"12","12","retrieval","old_objects","324","TelescopeSpacecraft.jpg","37","0","1259"
"12","12","retrieval","new_objects","325","DoorKnob.jpg","36","0","655"
"12","12","retrieval","new_objects","326","Statue_Man.jpg","37","1","747"
"12","12","retrieval","old_objects","327","Pipette.jpg","37","0","474"
"12","12","retrieval","old_objects","328","Loofa.jpg","37","0","598"
"12","12","retrieval","old_objects","329","WindowBlinds.jpg","37","0","373"
"12","12","retrieval","new_objects","330","Truck_Box.jpg","37","1","612"
"12","12","retrieval","new_objects","331","Bird_Duck.jpg","36","0","849"
"12","12","retrieval","old_objects","332","Toy_Taxi.jpg","37","0","485"
"12","12","retrieval","old_objects","333","Pepper_Chili.jpg","36","1","760"
"12","12","retrieval","new_objects","334","SmokingPipe.jpg","36","0","751"
"12","12","retrieval","new_objects","335","Blade_Tablesaw.jpg","36","0","671"
"12","12","retrieval","new_objects","336","VacuumHead.jpg","37","1","1139"
"12","12","retrieval","new_objects","337","MoneyBill50.jpg","37","1","779"
"12","12","retrieval","new_objects","338","Telephone_DialAntique.jpg","37","1","1362"
"12","12","retrieval","new_objects","339","Gameboy.jpg","37","1","769"
"12","12","retrieval","new_objects","340","ChainRusty.jpg","37","1","569"
"12","12","retrieval","new_objects","341","Tape_Clear.jpg","36","0","888"
"12","12","retrieval","old_objects","342","Dog_ChowChow.jpg","36","1","1163"
"12","12","retrieval","new_objects","343","Harp.jpg","36","0","778"
"12","12","retrieval","new_objects","344","Hotdog_Weiner.jpg","36","0","145"
"12","12","retrieval","new_objects","345","Bowl_Flour.jpg","36","0","57"
"12","12","retrieval","new_objects","346","Swing_Child.jpg","36","0","141"
"12","12","retrieval","new_objects","347","Sandwich_Egg.jpg","36","0","149"
"12","12","retrieval","new_objects","348","VinylRecord.jpg","36","0","157"
"12","12","retrieval","old_objects","349","Hotdog_WithBun.jpg","36","1","61"
"12","12","retrieval","old_objects","350","Toy_Stroller.jpg","36","1","184"
"12","12","retrieval","old_objects","351","Crown.jpg","36","1","111"
"12","12","retrieval","new_objects","352","TissueBox.jpg","36","0","1"
"12","12","retrieval","old_objects","353","Sign_Washroom.jpg","36","1","71"
"12","12","retrieval","old_objects","354","Bowl_Chinese.jpg","36","1","106"
"12","12","retrieval","old_objects","355","Hawk.jpg","36","1","140"
"12","12","demographics_block","gender","1","Hawk.jpg","male","1","42458"
"12","12","demographics_block","age","1","Hawk.jpg","30","1","42458"
"12","12","demographics_block","education","1","Hawk.jpg","16","1","42458"
"12","12","demographics_block","left_right_handed","2","Hawk.jpg","Right","1","37295"
"12","12","demographics_block","raceoption1","2","Hawk.jpg","","1","37295"
"12","12","demographics_block","raceoption2","2","Hawk.jpg","","1","37295"
"12","12","demographics_block","raceoption3","2","Hawk.jpg","","1","37295"
"12","12","demographics_block","raceoption4","2","Hawk.jpg","","1","37295"
"12","12","demographics_block","raceoption5","2","Hawk.jpg","","1","37295"
"12","12","demographics_block","raceoption6","2","Hawk.jpg","5","1","37295"
"12","12","demographics_block","raceoption7","2","Hawk.jpg","","1","37295"
"12","12","demographics_block","raceoption8","2","Hawk.jpg","","1","37295"
"12","12","demographics_block","raceoption9","2","Hawk.jpg","","1","37295"
"12","12","demographics_block","raceother","2","Hawk.jpg","","1","37295"
"12","12","demographics_block","raceother","2","Hawk.jpg","","1","37295"
"12","12","demographics_block","english_language","2","Hawk.jpg","Yes","1","37295"
"12","12","demographics_block","english_languageother","2","Hawk.jpg","","1","37295"
"12","12","demographics_block","eyesight","3","Hawk.jpg","Yes","1","10021"
"12","12","demographics_block","colorblind","3","Hawk.jpg","Yes","1","10021"
"12","12","worker_id_block","worker_id_textbox","1","Hawk.jpg","","1","176147"
"18","18","encoding","encoding","1","TreeStump.jpg","5","0","2350"
"18","18","encoding","encoding","2","PumpBreast.jpg","1","0","2199"
"18","18","encoding","encoding","3","Pasta_Fusilli.jpg","1","0","2013"
"18","18","encoding","encoding","4","Pot_CastIron.jpg","7","0","1699"
"18","18","encoding","encoding","5","Desk_White.jpg","4","0","1625"
"18","18","encoding","encoding","6","Cart_Wooden.jpg","7","0","1879"
"18","18","encoding","encoding","7","Toy_Boat.jpg","3","0","1996"
"18","18","encoding","encoding","8","CasketOpen.jpg","7","0","2530"
"18","18","encoding","encoding","9","KnifeHolder.jpg","3","0","2008"
"18","18","encoding","encoding","10","Ferret.jpg","7","0","1630"
"18","18","encoding","encoding","11","Mask_CPR.jpg","1","0","2067"
"18","18","encoding","encoding","12","HairCurler.jpg","1","0","1450"
"18","18","encoding","encoding","13","Pepper_Chili.jpg","5","0","1368"
"18","18","encoding","encoding","14","Jar_Honey.jpg","6","0","2279"
"18","18","encoding","encoding","15","Bird_Eagle.jpg","7","0","1508"
"18","18","encoding","encoding","16","Sculpture_MetalMan.jpg","2","0","2050"
"18","18","encoding","encoding","17","Stick_Honey.jpg","2","0","1632"
"18","18","encoding","encoding","18","Keg.jpg","1","0","2006"
"18","18","encoding","encoding","19","Mask_Masquerade.jpg","6","0","1572"
"18","18","encoding","encoding","20","Spoon_Baby.jpg","1","0","1641"
"18","18","encoding","encoding","21","Chair_Dining.jpg","2","0","1480"
"18","18","encoding","encoding","22","Sign_TrafficArrow.jpg","1","0","1606"
"18","18","encoding","encoding","23","BookShelf.jpg","4","0","1628"
"18","18","encoding","encoding","24","Thermostat.jpg","3","0","1889"
"18","18","encoding","encoding","25","Yarmulke.jpg","2","0","2071"
"18","18","encoding","encoding","26","MatchBook.jpg","1","0","1741"
"18","18","encoding","encoding","27","WalkieTalkie_Red.jpg","5","0","1739"
"18","18","encoding","encoding","28","Bandage_Wrap.jpg","1","0","1905"
"18","18","encoding","encoding","29","Seal_Toy.jpg","7","0","1607"
"18","18","encoding","encoding","30","Cleaver_Meat.jpg","6","0","1637"
"18","18","encoding","encoding","31","Lei.jpg","5","0","1659"
"18","18","encoding","encoding","32","Car_Vintage.jpg","7","0","1409"
"18","18","encoding","encoding","33","Brush_Windshield.jpg","1","0","1559"
"18","18","encoding","encoding","34","SkiPoles.jpg","6","0","1941"
"18","18","encoding","encoding","35","CoffeePot.jpg","1","0","1899"
"18","18","encoding","encoding","36","Toy_Babydoll.jpg","7","0","1745"
"18","18","encoding","encoding","37","Glass_Bowl.jpg","5","0","1383"
"18","18","encoding","encoding","38","Loofa.jpg","1","0","1589"
"18","18","encoding","encoding","39","PyramidWooden.jpg","2","0","1890"
"18","18","encoding","encoding","40","WindshieldWasherFluid.jpg","1","0","1919"
"18","18","encoding","encoding","41","AirVent.jpg","1","0","2086"
"18","18","encoding","encoding","42","Pot_TurkishCoffee.jpg","7","0","1707"
"18","18","encoding","encoding","43","ConnectorPlug.jpg","1","0","1849"
"18","18","encoding","encoding","44","Shield_Antique.jpg","7","0","1719"
"18","18","encoding","encoding","45","Noose.jpg","4","0","2413"
"18","18","encoding","encoding","46","Drink_Cocktail.jpg","6","0","1722"
"18","18","encoding","encoding","47","TelephoneSwitchboard.jpg","1","0","1737"
"18","18","encoding","encoding","48","Pasta_Shell.jpg","5","0","1910"
"18","18","encoding","encoding","49","RecordPlayer.jpg","5","0","1947"
"18","18","encoding","encoding","50","Plate_Decorative.jpg","7","0","1641"
"18","18","encoding","encoding","51","Crate_Wine.jpg","1","0","2279"
"18","18","encoding","encoding","52","ChessPiece_Knight.jpg","7","0","1908"
"18","18","encoding","encoding","53","Fork_Regular.jpg","4","0","1594"
"18","18","encoding","encoding","54","Clock_Digital.jpg","1","0","2216"
"18","18","encoding","encoding","55","TomatoSauce.jpg","5","0","1654"
"18","18","encoding","encoding","56","Fridge.jpg","5","0","1548"
"18","18","encoding","encoding","57","ToothPick.jpg","1","0","1698"
"18","18","encoding","encoding","58","Box_Present.jpg","7","0","1662"
"18","18","encoding","encoding","59","Toy_PoliceCar.jpg","3","0","2924"
"18","18","encoding","encoding","60","Toy_Stroller.jpg","5","0","1835"
"18","18","encoding","encoding","62","Squash_Butternut.jpg","6","0","1579"
"18","18","encoding","encoding","63","Mask_HockeyGoalie.jpg","7","0","1896"
"18","18","encoding","encoding","64","VGAport.jpg","1","0","1871"
"18","18","encoding","encoding","65","Domino.jpg","6","0","2173"
"18","18","encoding","encoding","66","Bible.jpg","5","0","1938"
"18","18","encoding","encoding","67","Flute_Tin.jpg","1","0","1928"
"18","18","encoding","encoding","68","TelescopeSpacecraft.jpg","7","0","2110"
"18","18","encoding","encoding","69","HairDryer.jpg","1","0","1660"
"18","18","encoding","encoding","70","Fan_Ceiling.jpg","4","0","1442"
"18","18","encoding","encoding","71","Boar.jpg","7","0","1552"
"18","18","encoding","encoding","72","LightBulb_Christmas.jpg","7","0","1933"
"18","18","encoding","encoding","73","Toy_Slide.jpg","4","0","1867"
"18","18","encoding","encoding","74","Folder_Plastic.jpg","1","0","1799"
"18","18","encoding","encoding","75","Gloves_WhiteKnit.jpg","2","0","1879"
"18","18","encoding","encoding","76","Pasta_Fettuccine.jpg","5","0","1836"
"18","18","encoding","encoding","77","Artichoke.jpg","7","0","1482"
"18","18","encoding","encoding","78","Nuts_Peanuts.jpg","7","0","1415"
"18","18","encoding","encoding","79","Hawk.jpg","7","0","1548"
"18","18","encoding","encoding","80","Kangaroo.jpg","7","0","1554"
"18","18","encoding","encoding","81","Sign_Washroom.jpg","1","0","1720"
"18","18","encoding","encoding","82","OperaGlasses.jpg","6","0","1775"
"18","18","encoding","encoding","83","Cookie.jpg","5","0","2004"
"18","18","encoding","encoding","84","IceCubes copy.jpg","4","0","2146"
"18","18","encoding","encoding","85","Dog_ChowChow.jpg","7","0","1512"
"18","18","encoding","encoding","86","Eggplant.jpg","7","0","1518"
"18","18","encoding","encoding","87","Coatrack.jpg","1","0","1843"
"18","18","encoding","encoding","88","ManholeCover.jpg","1","0","1498"
"18","18","encoding","encoding","89","Toad.jpg","7","0","1656"
"18","18","encoding","encoding","90","Suspenders.jpg","1","0","1597"
"18","18","encoding","encoding","91","LightHouse.jpg","7","0","1547"
"18","18","encoding","encoding","92","Cornucopia.jpg","7","0","1457"
"18","18","encoding","encoding","93","Paddle_Beach.jpg","1","0","1479"
"18","18","encoding","encoding","94","PersonWooden.jpg","4","0","1685"
"18","18","encoding","encoding","95","Peach.jpg","7","0","1387"
"18","18","encoding","encoding","96","Bowl_Chinese.jpg","5","0","2073"
"18","18","encoding","encoding","97","Sign_SlipperyRoad.jpg","1","0","1519"
"18","18","encoding","encoding","98","MusicSheet.jpg","5","0","1501"
"18","18","encoding","encoding","99","Parcel.jpg","7","0","1843"
"18","18","encoding","encoding","100","Corn_Kernels.jpg","7","0","1400"
"18","18","encoding","encoding","101","Pot_Cooking.jpg","6","0","2430"
"18","18","encoding","encoding","102","Dart.jpg","4","0","1628"
"18","18","encoding","encoding","103","Brush_Shaving.jpg","5","0","1906"
"18","18","encoding","encoding","104","Sign_Parking.jpg","1","0","1712"
"18","18","encoding","encoding","105","Earrings_Dangling.jpg","7","0","1606"
"18","18","encoding","encoding","106","PillBottle_Closed.jpg","1","0","1652"
"18","18","encoding","encoding","107","IceCubes.jpg","4","0","1545"
"18","18","encoding","encoding","108","Binder.jpg","1","0","1751"
"18","18","encoding","encoding","109","EyeChart.jpg","1","0","2005"
"18","18","encoding","encoding","110","Box_Cutlery.jpg","6","0","1875"
"18","18","encoding","encoding","111","Toy_BlocksLetter.jpg","5","0","1441"
"18","18","encoding","encoding","112","Icepick.jpg","1","0","2075"
"18","18","encoding","encoding","113","Toy_Taxi.jpg","4","0","1749"
"18","18","encoding","encoding","114","Helmet_Bicycle.jpg","6","0","1563"
"18","18","encoding","encoding","115","Hotdog_WithBun.jpg","4","0","1369"
"18","18","encoding","encoding","116","Drum_Tall.jpg","7","0","1727"
"18","18","encoding","encoding","117","Donut.jpg","7","0","1467"
"18","18","encoding","encoding","118","USBKey.jpg","1","0","1738"
"18","18","encoding","encoding","119","Cherry.jpg","7","0","1336"
"18","18","encoding","encoding","120","Carousel.jpg","5","0","1726"
"18","18","encoding","encoding","121","ProjectorScreen.jpg","1","0","1555"
"18","18","encoding","encoding","123","Crown.jpg","7","0","1496"
"18","18","encoding","encoding","124","Bagpipes.jpg","7","0","1678"
"18","18","encoding","encoding","125","Jacks.jpg","5","0","1972"
"18","18","encoding","encoding","126","Shoe_Highheel.jpg","1","0","1874"
"18","18","encoding","encoding","127","Briefcase_Open.jpg","1","0","1656"
"18","18","encoding","encoding","128","GPS.jpg","1","0","1510"
"18","18","encoding","encoding","129","Razor.jpg","1","0","1316"
"18","18","encoding","encoding","130","Spear.jpg","3","0","1633"
"18","18","encoding","encoding","131","Candleholder_LampShaped.jpg","7","0","2063"
"18","18","encoding","encoding","132","Bark.jpg","7","0","1924"
"18","18","encoding","encoding","133","NetButterfly.jpg","1","0","2003"
"18","18","encoding","encoding","134","PirateFlag.jpg","4","0","1665"
"18","18","encoding","encoding","135","Camel_Dromedary.jpg","7","0","1543"
"18","18","encoding","encoding","136","Pot_BlackOld.jpg","7","0","1429"
"18","18","encoding","encoding","137","Speaker_Computer.jpg","4","0","1650"
"18","18","encoding","encoding","138","GasStation.jpg","1","0","1632"
"18","18","encoding","encoding","139","ProcessorFood_Modern.jpg","7","0","1886"
"18","18","encoding","encoding","140","Broccoli.jpg","7","0","1363"
"18","18","encoding","encoding","141","Truck_VintageBlue.jpg","7","0","1441"
"18","18","encoding","encoding","142","Lantern_Chinese.jpg","4","0","1791"
"18","18","encoding","encoding","143","Kebab_Vegetables.jpg","7","0","1605"
"18","18","encoding","encoding","144","Case_Leather.jpg","1","0","1675"
"18","18","encoding","encoding","145","Barrel_Wine.jpg","4","0","1984"
"18","18","encoding","encoding","146","LeatherPuncherTool.jpg","1","0","1775"
"18","18","encoding","encoding","147","PaperStack.jpg","1","0","1500"
"18","18","encoding","encoding","148","Carrot.jpg","7","0","1442"
"18","18","encoding","encoding","149","Bandage_Adhesive.jpg","1","0","1680"
"18","18","encoding","encoding","150","Chair_Office.jpg","4","0","1678"
"18","18","encoding","encoding","151","Bowtie.jpg","4","0","1300"
"18","18","encoding","encoding","152","Lettuce_Iceberg.jpg","7","0","1282"
"18","18","encoding","encoding","153","Cooler.jpg","4","0","1992"
"18","18","encoding","encoding","154","Hay.jpg","6","0","2310"
"18","18","encoding","encoding","155","SpaceShuttle.jpg","7","0","1843"
"18","18","encoding","encoding","156","Missile.jpg","6","0","2113"
"18","18","encoding","encoding","157","SoundMixer_Blue.jpg","1","0","2008"
"18","18","encoding","encoding","158","WindowBlinds.jpg","1","0","1630"
"18","18","encoding","encoding","159","Telephone_Dial.jpg","7","0","2099"
"18","18","encoding","encoding","160","Pipette.jpg","1","0","1841"
"18","18","encoding","encoding","161","WireStripper.jpg","4","0","1440"
"18","18","encoding","encoding","162","Chicken_FriedDrum.jpg","7","0","1693"
"18","18","encoding","encoding","163","Spatula_1.jpg","4","0","1475"
"18","18","encoding","encoding","164","Doll_Rag.jpg","5","0","1865"
"18","18","encoding","encoding","165","Chair_PlasticGreen.jpg","1","0","1559"
"18","18","encoding","encoding","166","Panda.jpg","7","0","1596"
"18","18","encoding","encoding","167","Bag_PaperWithFlour.jpg","1","0","1786"
"18","18","encoding","encoding","168","Mixer_Cement.jpg","4","0","2040"
"18","18","encoding","encoding","169","Cabasa.jpg","4","0","1702"
"18","18","encoding","encoding","170","Stool_Foot.jpg","5","0","1548"
"18","18","encoding","encoding","171","Toy_Firetruck.jpg","7","0","1482"
"18","18","encoding","encoding","172","Bus_DoubleDecker.jpg","7","0","1319"
"18","18","encoding","encoding","173","Toy_Tractor_1.jpg","5","0","1629"
"18","18","encoding","encoding","174","Box_GiftTopView.jpg","7","0","1611"
"18","18","encoding","encoding","175","Toy_RobotTransformer.jpg","7","0","1489"
"18","18","encoding","encoding","176","Bag_Hand.jpg","4","0","1807"
"18","18","encoding","encoding","177","CableConnecter.jpg","1","0","1605"
"18","18","retrieval","new_objects","1","Can_MilkAntique.jpg","37","1","1318"
"18","18","retrieval","new_objects","2","Box_Notepaper.jpg","37","1","907"
"18","18","retrieval","old_objects","3","Bandage_Wrap.jpg","36","1","784"
"18","18","retrieval","old_objects","4","Paddle_Beach.jpg","36","1","803"
"18","18","retrieval","old_objects","5","Peach.jpg","36","1","918"
"18","18","retrieval","new_objects","6","Bowl_Cereal.jpg","37","1","667"
"18","18","retrieval","new_objects","7","Clock_Grandfather.jpg","37","1","850"
"18","18","retrieval","new_objects","8","Jars_PetFood.jpg","37","1","795"
"18","18","retrieval","new_objects","9","Crowbar.jpg","37","1","1046"
"18","18","retrieval","old_objects","10","Drink_Cocktail.jpg","36","1","845"
"18","18","retrieval","old_objects","11","Boar.jpg","36","1","765"
"18","18","retrieval","old_objects","12","Pipette.jpg","36","1","761"
"18","18","retrieval","new_objects","13","VacuumHead.jpg","37","1","789"
"18","18","retrieval","new_objects","14","Hoodie.jpg","37","1","735"
"18","18","retrieval","old_objects","15","Gloves_WhiteKnit.jpg","36","1","781"
"18","18","retrieval","new_objects","16","Bread_Melon.jpg","37","1","776"
"18","18","retrieval","old_objects","17","Toy_Slide.jpg","36","1","875"
"18","18","retrieval","new_objects","18","Toy_Christmastree.jpg","37","1","690"
"18","18","retrieval","old_objects","19","Lei.jpg","36","1","688"
"18","18","retrieval","old_objects","20","SkiPoles.jpg","36","1","711"
"18","18","retrieval","new_objects","21","Phone_Military.jpg","37","1","725"
"18","18","retrieval","old_objects","22","Jar_Honey.jpg","36","1","762"
"18","18","retrieval","old_objects","23","Toy_RobotTransformer.jpg","36","1","654"
"18","18","retrieval","new_objects","24","Bench_Black.jpg","37","1","718"
"18","18","retrieval","new_objects","25","Jug_GallonWhite.jpg","37","1","636"
"18","18","retrieval","old_objects","26","Chair_Office.jpg","36","1","693"
"18","18","retrieval","new_objects","27","Swing_Child.jpg","37","1","668"
"18","18","retrieval","old_objects","28","Pot_Cooking.jpg","36","1","731"
"18","18","retrieval","old_objects","29","Squash_Butternut.jpg","36","1","648"
"18","18","retrieval","old_objects","30","Hotdog_WithBun.jpg","36","1","657"
"18","18","retrieval","new_objects","31","Horseshoe.jpg","37","1","633"
"18","18","retrieval","old_objects","32","Mixer_Cement.jpg","36","1","699"
"18","18","retrieval","new_objects","33","CigarCase.jpg","37","1","649"
"18","18","retrieval","old_objects","34","TelephoneSwitchboard.jpg","37","0","890"
"18","18","retrieval","new_objects","35","PostageStamps.jpg","37","1","768"
"18","18","retrieval","new_objects","36","ColoringSet.jpg","37","1","812"
"18","18","retrieval","new_objects","37","Syringe_Blunt.jpg","37","1","749"
"18","18","retrieval","new_objects","38","Milkshake_Strawberry.jpg","37","1","705"
"18","18","retrieval","new_objects","39","Lion.jpg","37","1","784"
"18","18","retrieval","new_objects","40","Speakers_Theatre.jpg","37","1","723"
"18","18","retrieval","old_objects","41","Bowl_Chinese.jpg","36","1","648"
"18","18","retrieval","new_objects","42","Peppermill.jpg","37","1","721"
"18","18","retrieval","old_objects","43","Eggplant.jpg","36","1","583"
"18","18","retrieval","new_objects","44","EyeDrops.jpg","37","1","642"
"18","18","retrieval","old_objects","45","Razor.jpg","36","1","707"
"18","18","retrieval","new_objects","46","Sandwich_Egg.jpg","37","1","625"
"18","18","retrieval","new_objects","47","Chimpanzee.jpg","37","1","778"
"18","18","retrieval","new_objects","48","Statue_ManHorse.jpg","37","1","797"
"18","18","retrieval","new_objects","49","TestTube_Single.jpg","37","1","640"
"18","18","retrieval","old_objects","50","Fork_Regular.jpg","36","1","680"
"18","18","retrieval","old_objects","51","Pot_CastIron.jpg","36","1","624"
"18","18","retrieval","old_objects","52","Jacks.jpg","36","1","625"
"18","18","retrieval","new_objects","53","Walker_Silver.jpg","37","1","579"
"18","18","retrieval","old_objects","54","USBKey.jpg","36","1","710"
"18","18","retrieval","old_objects","55","CoffeePot.jpg","36","1","628"
"18","18","retrieval","old_objects","56","EyeChart.jpg","36","1","774"
"18","18","retrieval","old_objects","57","Fridge.jpg","36","1","624"
"18","18","retrieval","old_objects","58","Stool_Foot.jpg","36","1","634"
"18","18","retrieval","new_objects","59","Candy_Lozenge.jpg","37","1","596"
"18","18","retrieval","old_objects","60","Artichoke.jpg","36","1","646"
"18","18","retrieval","old_objects","62","Helmet_Bicycle.jpg","36","1","872"
"18","18","retrieval","old_objects","63","PersonWooden.jpg","36","1","679"
"18","18","retrieval","new_objects","64","Glass_bottle.jpg","37","1","670"
"18","18","retrieval","new_objects","65","Bag_Diaper.jpg","37","1","670"
"18","18","retrieval","new_objects","66","Rock_Mimetite.jpg","36","0","733"
"18","18","retrieval","new_objects","67","Fan_Blades.jpg","37","1","738"
"18","18","retrieval","old_objects","68","Bagpipes.jpg","36","1","735"
"18","18","retrieval","old_objects","69","Corn_Kernels.jpg","36","1","540"
"18","18","retrieval","old_objects","70","BookShelf.jpg","36","1","577"
"18","18","retrieval","new_objects","71","LightBulb_White.jpg","37","1","732"
"18","18","retrieval","new_objects","72","Kebab_Meat.jpg","37","1","737"
"18","18","retrieval","new_objects","73","NailFiles.jpg","37","1","630"
"18","18","retrieval","old_objects","74","Cooler.jpg","36","1","567"
"18","18","retrieval","new_objects","75","Statue_Man.jpg","37","1","684"
"18","18","retrieval","new_objects","76","MoneyBill50.jpg","37","1","595"
"18","18","retrieval","new_objects","77","Exercise_Machine.jpg","37","1","654"
"18","18","retrieval","old_objects","78","MusicSheet.jpg","36","1","622"
"18","18","retrieval","new_objects","79","Waffle.jpg","37","1","632"
"18","18","retrieval","old_objects","80","Cabasa.jpg","36","1","625"
"18","18","retrieval","old_objects","81","Shield_Antique.jpg","36","1","570"
"18","18","retrieval","old_objects","82","Toy_Boat.jpg","36","1","830"
