"group","subject","blockcode","trialcode","trialnum","values.stimulus","response","correct","latency"
"19","19","encoding","encoding","1","Turtle.jpg","37","0","1285"
"19","19","encoding","encoding","2","Chimpanzee.jpg","37","0","1239"
"19","19","encoding","encoding","3","Makeup_Foundation.jpg","36","0","911"
"19","19","encoding","encoding","4","Socks_Winter.jpg","36","0","1256"
"19","19","encoding","encoding","5","Staples.jpg","36","0","1225"
"19","19","encoding","encoding","6","Boot_Rain.jpg","37","0","1810"
"19","19","encoding","encoding","7","RamAnimal.jpg","37","0","1138"
"19","19","encoding","encoding","8","WaterFountain.jpg","36","0","1283"
"19","19","encoding","encoding","9","Table_Conference.jpg","36","0","949"
"19","19","encoding","encoding","10","Lunchbox.jpg","37","0","1613"
"19","19","encoding","encoding","11","Statue_Horse.jpg","36","0","959"
"19","19","encoding","encoding","12","Fork_Regular.jpg","36","0","809"
"19","19","encoding","encoding","13","Backpack_Suitcase.jpg","37","0","978"
"19","19","encoding","encoding","14","GatedEntrance.jpg","37","0","894"
"19","19","encoding","encoding","15","Birdhouse.jpg","37","0","771"
"19","19","encoding","encoding","16","HardDrive.jpg","36","0","972"
"19","19","encoding","encoding","17","Jar_Honey.jpg","36","0","1322"
"19","19","encoding","encoding","18","Glove_Baseball.jpg","37","0","930"
"19","19","encoding","encoding","19","Brush_Makeup.jpg","36","0","710"
"19","19","encoding","encoding","20","PencilCase.jpg","36","0","713"
"19","19","encoding","encoding","21","Cat.jpg","36","0","832"
"19","19","encoding","encoding","22","TowerEiffel.jpg","37","0","659"
"19","19","encoding","encoding","23","Hook_Ceiling.jpg","37","0","814"
"19","19","encoding","encoding","24","GranolaBar.jpg","36","0","1030"
"19","19","encoding","encoding","25","Hat_Baseball.jpg","37","0","938"
"19","19","encoding","encoding","26","Necklace_Pearl.jpg","36","0","736"
"19","19","encoding","encoding","27","Switch_LightBlack.jpg","36","0","720"
"19","19","encoding","encoding","28","Bench_Concrete.jpg","37","0","907"
"19","19","encoding","encoding","29","Bell_Hand.jpg","36","0","1037"
"19","19","encoding","encoding","30","Drill.jpg","37","0","1617"
"19","19","encoding","encoding","31","Jetski.jpg","37","0","914"
"19","19","encoding","encoding","32","Chair_Car.jpg","37","0","1792"
"19","19","encoding","encoding","33","Cane_Wooden.jpg","36","0","1922"
"19","19","encoding","encoding","34","Altar.jpg","36","0","1412"
"19","19","encoding","encoding","35","Briefcase_Silver.jpg","37","0","1294"
"19","19","encoding","encoding","36","CraneMachine.jpg","37","0","807"
"19","19","encoding","encoding","37","BicycleWheelRusty.jpg","37","0","837"
"19","19","encoding","encoding","38","Paratrooper.jpg","37","0","799"
"19","19","encoding","encoding","39","Spatula_1.jpg","36","0","923"
"19","19","encoding","encoding","40","Hat_Beret.jpg","36","0","1652"
"19","19","encoding","encoding","41","Clave.jpg","36","0","1953"
"19","19","encoding","encoding","42","DentistOverheadLight.jpg","36","0","1570"
"19","19","encoding","encoding","43","Bucket_Champagne.jpg","36","0","1032"
"19","19","encoding","encoding","44","Boardgame_Chess.jpg","36","0","738"
"19","19","encoding","encoding","45","Bird_Eagle.jpg","37","0","835"
"19","19","encoding","encoding","46","Tape_Dispenser.jpg","36","0","1016"
"19","19","encoding","encoding","47","Colander.jpg","36","0","700"
"19","19","encoding","encoding","48","Door_Blue.jpg","37","0","807"
"19","19","encoding","encoding","49","KeyHook_Empty.jpg","36","0","1013"
"19","19","encoding","encoding","50","Clock_Interior.jpg","36","0","869"
"19","19","encoding","encoding","51","Dynamite.jpg","37","0","807"
"19","19","encoding","encoding","52","Toy_DollOffice.jpg","36","0","770"
"19","19","encoding","encoding","53","HumanSkeleton.jpg","36","0","870"
"19","19","encoding","encoding","54","House_Wooden.jpg","37","0","818"
"19","19","encoding","encoding","55","Toy_DonkeyFur.jpg","36","0","936"
"19","19","encoding","encoding","56","TreeHouse.jpg","37","0","696"
"19","19","encoding","encoding","57","Ship_Cruise.jpg","37","0","791"
"19","19","encoding","encoding","58","Stapler_Regular.jpg","36","0","721"
"19","19","encoding","encoding","59","Syrup_Maple.jpg","36","0","926"
"19","19","encoding","encoding","60","Bench_Wooden.jpg","36","0","897"
"19","19","encoding","encoding","62","Thermos_Decorated.jpg","37","0","1610"
"19","19","encoding","encoding","63","Light_Traffic.jpg","37","0","869"
"19","19","encoding","encoding","64","PanCooking.jpg","36","0","781"
"19","19","encoding","encoding","65","Stick_Drum.jpg","36","0","892"
"19","19","encoding","encoding","66","Camel_Bactrian.jpg","37","0","689"
"19","19","encoding","encoding","67","Case_WoodenOrnate.jpg","36","0","1040"
"19","19","encoding","encoding","68","Sign_OneWay.jpg","37","0","826"
"19","19","encoding","encoding","69","Cup_Latte.jpg","36","0","730"
"19","19","encoding","encoding","70","ScannerShoplifting.jpg","37","0","1117"
"19","19","encoding","encoding","71","Fruit_Cactus.jpg","37","0","1043"
"19","19","encoding","encoding","72","Nightstand.jpg","36","0","733"
"19","19","encoding","encoding","73","Mailbox_Antique.jpg","37","0","1022"
"19","19","encoding","encoding","74","Guitar_Acoustic.jpg","36","0","849"
"19","19","encoding","encoding","75","Mirror_Dental.jpg","36","0","846"
"19","19","encoding","encoding","76","InflatableSleepingBag.jpg","37","0","979"
"19","19","encoding","encoding","77","LightHouse.jpg","37","0","731"
"19","19","encoding","encoding","78","FireAlarm.jpg","37","0","1199"
"19","19","encoding","encoding","79","Knife_Hunting.jpg","36","0","818"
"19","19","encoding","encoding","80","Waffle.jpg","36","0","671"
"19","19","encoding","encoding","81","Stamper.jpg","36","0","1236"
"19","19","encoding","encoding","82","Ship_Model.jpg","36","0","1050"
"19","19","encoding","encoding","83","Truck_Pickup.jpg","37","0","815"
"19","19","encoding","encoding","84","DogHouse.jpg","37","0","936"
"19","19","encoding","encoding","85","Sign_Airport.jpg","37","0","787"
"19","19","encoding","encoding","86","Seal_Toy.jpg","37","0","769"
"19","19","encoding","encoding","87","Hat_Feather.jpg","36","0","794"
"19","19","encoding","encoding","88","CookieCutter_Tree.jpg","36","0","845"
"19","19","encoding","encoding","89","AirCompressor.jpg","37","0","690"
"19","19","encoding","encoding","90","Tag_Identifier.jpg","37","0","1146"
"19","19","encoding","encoding","91","Sashimi.jpg","36","0","1447"
"19","19","encoding","encoding","92","Battery_Car.jpg","37","0","1038"
"19","19","encoding","encoding","93","Jar_Money.jpg","36","0","835"
"19","19","encoding","encoding","94","SandBagThrowGame.jpg","36","0","939"
"19","19","encoding","encoding","95","Lighter_Yellow.jpg","36","0","713"
"19","19","encoding","encoding","96","Blueberry.jpg","36","0","1007"
"19","19","encoding","encoding","97","LeatherPuncherTool.jpg","37","0","1044"
"19","19","encoding","encoding","98","BikiniTop.jpg","37","0","1716"
"19","19","encoding","encoding","99","Phone_Flip.jpg","36","0","1479"
"19","19","encoding","encoding","100","Toy_TableSet.jpg","36","0","1125"
"19","19","encoding","encoding","101","Peach.jpg","36","0","977"
"19","19","encoding","encoding","102","Wontons.jpg","36","0","1119"
"19","19","encoding","encoding","103","Garbage_Can.jpg","36","0","825"
"19","19","encoding","encoding","104","StickyTack.jpg","0","0","2000"
"19","19","encoding","encoding","105","CanOpener.jpg","36","0","956"
"19","19","encoding","encoding","106","PortaPotty.jpg","37","0","878"
"19","19","encoding","encoding","107","Pepperoni.jpg","36","0","816"
"19","19","encoding","encoding","108","Heater_Outdoor.jpg","36","0","969"
"19","19","encoding","encoding","109","Tree_Fir.jpg","37","0","1531"
"19","19","encoding","encoding","110","OrigamiPaper.jpg","36","0","802"
"19","19","encoding","encoding","111","PhoneJack.jpg","36","0","893"
"19","19","encoding","encoding","112","Mask_VenetianCat.jpg","37","0","1011"
"19","19","encoding","encoding","113","Toy_WinnieThePooh.jpg","37","0","1604"
"19","19","encoding","encoding","114","Can_Gas.jpg","37","0","1031"
"19","19","encoding","encoding","115","Box_FirstAid.jpg","36","0","1164"
"19","19","encoding","encoding","116","Stone_AncientWriting.jpg","36","0","1180"
"19","19","encoding","encoding","117","Toy_MrPotatoHeadjpg.jpg","36","0","963"
"19","19","encoding","encoding","118","Thermometer_Room.jpg","37","0","958"
"19","19","encoding","encoding","119","Shoe_Pink.jpg","37","0","1132"
"19","19","encoding","encoding","120","Wardrobe.jpg","36","0","783"
"19","19","encoding","encoding","121","Torpedo.jpg","37","0","900"
"19","19","encoding","encoding","123","NailFiles.jpg","36","0","702"
"19","19","encoding","encoding","124","Puzzle_Piece.jpg","36","0","791"
"19","19","encoding","encoding","125","WaterGun.jpg","37","0","1415"
"19","19","encoding","encoding","126","Windmill_Building.jpg","37","0","1012"
"19","19","encoding","encoding","127","ThreeHolePunch.jpg","36","0","1014"
"19","19","encoding","encoding","128","PaintCan.jpg","37","0","1446"
"19","19","encoding","encoding","129","OnionRed.jpg","36","0","1175"
"19","19","encoding","encoding","130","Pliers_SlipJoint.jpg","37","0","892"
"19","19","encoding","encoding","131","Nuts_Peanuts.jpg","36","0","1230"
"19","19","encoding","encoding","132","Toy_Tractor_1.jpg","36","0","902"
"19","19","encoding","encoding","133","TestTube_Single.jpg","36","0","1134"
"19","19","encoding","encoding","134","LicensePlate.jpg","37","0","799"
"19","19","encoding","encoding","135","KitchenCloth.jpg","36","0","1081"
"19","19","encoding","encoding","136","Pear_Green.jpg","36","0","869"
"19","19","encoding","encoding","137","Candy_GummyBear.jpg","36","0","1209"
"19","19","encoding","encoding","138","Wire_Soldering.jpg","37","0","947"
"19","19","encoding","encoding","139","Keychain_Leather.jpg","37","0","1162"
"19","19","encoding","encoding","140","Fan_Blades.jpg","36","0","1132"
"19","19","encoding","encoding","141","Oneholepunch.jpg","36","0","918"
"19","19","encoding","encoding","142","Bib.jpg","36","0","977"
"19","19","encoding","encoding","143","Boombox.jpg","37","0","1097"
"19","19","encoding","encoding","144","Bowl_Pasta.jpg","36","0","788"
"19","19","encoding","encoding","145","Pillow_Heart.jpg","36","0","897"
"19","19","encoding","encoding","146","Kiwi.jpg","37","0","1565"
"19","19","encoding","encoding","147","Hookah.jpg","36","0","1126"
"19","19","encoding","encoding","148","Airplane_Small.jpg","37","0","736"
"19","19","encoding","encoding","149","Goose_Canadian.jpg","37","0","826"
"19","19","encoding","encoding","150","FireHydrant.jpg","37","0","677"
"19","19","encoding","encoding","151","CertificateFramed.jpg","36","0","1020"
"19","19","encoding","encoding","152","BicycleOdometer.jpg","36","0","1137"
"19","19","encoding","encoding","153","Snorkle.jpg","37","0","945"
"19","19","encoding","encoding","154","FloppyDisk.jpg","36","0","868"
"19","19","encoding","encoding","155","Spatula.jpg","36","0","732"
"19","19","encoding","encoding","156","Cup_sippy.jpg","36","0","760"
"19","19","encoding","encoding","157","Drum_Tall.jpg","37","0","1235"
"19","19","encoding","encoding","158","AmberWithMosquito.jpg","37","0","1406"
"19","19","encoding","encoding","159","MoneyBill50.jpg","36","0","997"
"19","19","encoding","encoding","160","Mask_Buddhist.jpg","36","0","1320"
"19","19","encoding","encoding","161","PostageStamps.jpg","37","0","1221"
"19","19","encoding","encoding","162","Clock_Radio.jpg","36","0","939"
"19","19","encoding","encoding","163","Pot_TurkishCoffee.jpg","36","0","1017"
"19","19","encoding","encoding","164","Clam.jpg","37","0","1016"
"19","19","encoding","encoding","165","Flower_Orchid.jpg","37","0","1053"
"19","19","encoding","encoding","166","Clothespin_Beige.jpg","37","0","1094"
"19","19","encoding","encoding","167","SpaceShuttle.jpg","37","0","1086"
"19","19","encoding","encoding","168","Notebook.jpg","36","0","907"
"19","19","encoding","encoding","169","Qtip_Multiple.jpg","36","0","777"
"19","19","encoding","encoding","170","Basket_Firewood.jpg","37","0","822"
"19","19","encoding","encoding","171","Candle_ChristmasDecor.jpg","36","0","1145"
"19","19","encoding","encoding","172","ChalkboardEraser.jpg","36","0","1135"
"19","19","encoding","encoding","173","Swing_Porch.jpg","37","0","1087"
"19","19","encoding","encoding","174","ShoeLace_Round.jpg","37","0","1466"
"19","19","encoding","encoding","175","PillBottle_Closed.jpg","36","0","887"
"19","19","encoding","encoding","176","Cologne.jpg","36","0","759"
"19","19","encoding","encoding","177","Flask_Metal.jpg","37","0","1295"
"19","19","retrieval","old_objects","1","Backpack_Suitcase.jpg","36","1","1618"
"19","19","retrieval","new_objects","2","DoorBell.jpg","37","1","966"
"19","19","retrieval","old_objects","3","Goose_Canadian.jpg","36","1","927"
"19","19","retrieval","old_objects","4","PortaPotty.jpg","36","1","848"
"19","19","retrieval","new_objects","5","Nuts_Pecan.jpg","37","1","964"
"19","19","retrieval","new_objects","6","Toy_Rooster.jpg","37","1","820"
"19","19","retrieval","new_objects","7","Strainer_Tea.jpg","37","1","807"
"19","19","retrieval","new_objects","8","Tray_Muffin.jpg","37","1","788"
"19","19","retrieval","old_objects","9","Pepperoni.jpg","36","1","657"
"19","19","retrieval","old_objects","10","MoneyBill50.jpg","36","1","693"
"19","19","retrieval","old_objects","11","Ship_Model.jpg","36","1","688"
"19","19","retrieval","old_objects","12","Switch_LightBlack.jpg","36","1","716"
"19","19","retrieval","new_objects","13","Suit_Women.jpg","37","1","685"
"19","19","retrieval","old_objects","14","Battery_Car.jpg","36","1","758"
"19","19","retrieval","new_objects","15","CandleSnuffer.jpg","37","1","786"
"19","19","retrieval","old_objects","16","Hook_Ceiling.jpg","36","1","724"
"19","19","retrieval","old_objects","17","GranolaBar.jpg","36","1","692"
"19","19","retrieval","old_objects","18","Chair_Car.jpg","36","1","720"
"19","19","retrieval","old_objects","19","DentistOverheadLight.jpg","36","1","784"
"19","19","retrieval","new_objects","20","PylonTraffic.jpg","37","1","827"
"19","19","retrieval","old_objects","21","DogHouse.jpg","36","1","694"
"19","19","retrieval","old_objects","22","Fruit_Cactus.jpg","36","1","736"
"19","19","retrieval","new_objects","23","SledgeHammer.jpg","37","1","828"
"19","19","retrieval","old_objects","24","Candle_ChristmasDecor.jpg","36","1","684"
"19","19","retrieval","new_objects","25","Caterpillar.jpg","37","1","726"
"19","19","retrieval","new_objects","26","Bag_PaperWithFlour.jpg","37","1","676"
"19","19","retrieval","old_objects","27","PostageStamps.jpg","36","1","675"
"19","19","retrieval","old_objects","28","Airplane_Small.jpg","36","1","675"
"19","19","retrieval","old_objects","29","Jetski.jpg","36","1","712"
"19","19","retrieval","new_objects","30","TelephoneSwitchboard.jpg","37","1","687"
"19","19","retrieval","new_objects","31","PowderProtein.jpg","37","1","722"
"19","19","retrieval","new_objects","32","Hat_Hard.jpg","37","1","695"
"19","19","retrieval","new_objects","33","Ferret.jpg","36","0","645"
"19","19","retrieval","new_objects","34","Olives.jpg","37","1","763"
"19","19","retrieval","new_objects","35","Domino.jpg","37","1","726"
"19","19","retrieval","old_objects","36","Turtle.jpg","37","0","1075"
"19","19","retrieval","new_objects","37","Quartz.jpg","37","1","753"
"19","19","retrieval","new_objects","38","Pouch_Red.jpg","37","1","708"
"19","19","retrieval","old_objects","39","Brush_Makeup.jpg","37","0","726"
"19","19","retrieval","old_objects","40","Lunchbox.jpg","36","1","703"
"19","19","retrieval","new_objects","41","Vase_Decorative.jpg","37","1","713"
"19","19","retrieval","old_objects","42","Seal_Toy.jpg","36","1","734"
"19","19","retrieval","new_objects","43","EspressoMachine.jpg","37","1","814"
"19","19","retrieval","new_objects","44","Bowl_Sugar.jpg","37","1","793"
"19","19","retrieval","new_objects","45","Candy_Lozenge.jpg","37","1","734"
"19","19","retrieval","new_objects","46","BumperCar.jpg","37","1","734"
"19","19","retrieval","new_objects","47","Tractor_Yellow.jpg","37","1","770"
"19","19","retrieval","new_objects","48","Pretzel_Knot.jpg","37","1","713"
"19","19","retrieval","old_objects","49","Garbage_Can.jpg","36","1","716"
"19","19","retrieval","old_objects","50","Clave.jpg","36","1","701"
"19","19","retrieval","old_objects","51","FireHydrant.jpg","36","1","738"
"19","19","retrieval","new_objects","52","Helmet_Football.jpg","37","1","673"
"19","19","retrieval","old_objects","53","Lighter_Yellow.jpg","36","1","749"
"19","19","retrieval","old_objects","54","GatedEntrance.jpg","36","1","681"
"19","19","retrieval","new_objects","55","Instrument_African.jpg","37","1","733"
"19","19","retrieval","old_objects","56","Chimpanzee.jpg","36","1","721"
"19","19","retrieval","old_objects","57","Tree_Fir.jpg","36","1","709"
"19","19","retrieval","new_objects","58","Tray_Medical.jpg","37","1","756"
"19","19","retrieval","old_objects","59","InflatableSleepingBag.jpg","36","1","672"
"19","19","retrieval","old_objects","60","Pot_TurkishCoffee.jpg","36","1","644"
"19","19","retrieval","old_objects","62","Pear_Green.jpg","36","1","718"
"19","19","retrieval","old_objects","63","Briefcase_Silver.jpg","36","1","656"
"19","19","retrieval","new_objects","64","Box_WoodenClosed.jpg","37","1","703"
"19","19","retrieval","old_objects","65","CertificateFramed.jpg","36","1","666"
"19","19","retrieval","new_objects","66","Bag_String.jpg","37","1","729"
"19","19","retrieval","new_objects","67","Gum_Pack.jpg","37","1","708"
"19","19","retrieval","old_objects","68","Hat_Feather.jpg","36","1","697"
"19","19","retrieval","old_objects","69","Toy_DollOffice.jpg","36","1","681"
"19","19","retrieval","old_objects","70","Fan_Blades.jpg","36","1","644"
"19","19","retrieval","old_objects","71","Notebook.jpg","36","1","663"
"19","19","retrieval","new_objects","72","Hotdog_Weiner.jpg","37","1","756"
"19","19","retrieval","new_objects","73","Bucket_WoodenLight.jpg","36","0","669"
"19","19","retrieval","old_objects","74","Bell_Hand.jpg","36","1","735"
"19","19","retrieval","new_objects","75","ShinPads.jpg","37","1","759"
"19","19","retrieval","new_objects","76","Toy_ElephantPlastic.jpg","37","1","790"
"19","19","retrieval","new_objects","77","Toy_RobotClassic.jpg","37","1","633"
"19","19","retrieval","old_objects","78","Colander.jpg","37","0","679"
"19","19","retrieval","old_objects","79","BicycleOdometer.jpg","36","1","676"
"19","19","retrieval","new_objects","80","CandyDispenser.jpg","37","1","725"
"19","19","retrieval","new_objects","81","Hippopotamus.jpg","37","1","701"
"19","19","retrieval","old_objects","82","Toy_WinnieThePooh.jpg","36","1","695"
"19","19","retrieval","old_objects","83","RamAnimal.jpg","37","0","716"
"19","19","retrieval","new_objects","84","VinylRecord.jpg","37","1","699"
"19","19","retrieval","old_objects","85","Bird_Eagle.jpg","36","1","677"
"19","19","retrieval","new_objects","86","Bottle_Specimen.jpg","37","1","712"
"19","19","retrieval","old_objects","87","Spatula_1.jpg","36","1","792"
"19","19","retrieval","old_objects","88","Jar_Honey.jpg","36","1","705"
"19","19","retrieval","new_objects","89","ManholeCover.jpg","37","1","666"
"19","19","retrieval","new_objects","90","HerbsInBag.jpg","37","1","817"
"19","19","retrieval","new_objects","91","Mug_Travel.jpg","37","1","771"
"19","19","retrieval","new_objects","92","Jacks.jpg","37","1","690"
"19","19","retrieval","old_objects","93","PhoneJack.jpg","36","1","753"
"19","19","retrieval","old_objects","94","ThreeHolePunch.jpg","36","1","763"
"19","19","retrieval","old_objects","95","KitchenCloth.jpg","36","1","691"
"19","19","retrieval","old_objects","96","Stapler_Regular.jpg","36","1","1053"
"19","19","retrieval","old_objects","97","Boardgame_Chess.jpg","37","0","795"
"19","19","retrieval","old_objects","98","Bench_Concrete.jpg","36","1","671"
"19","19","retrieval","old_objects","99","PencilCase.jpg","36","1","777"
"19","19","retrieval","new_objects","100","Mirror_Handheld.jpg","37","1","696"
"19","19","retrieval","new_objects","101","CigarCase.jpg","37","1","1170"
"19","19","retrieval","new_objects","102","Bag_Toiletry.jpg","37","1","883"
"19","19","retrieval","new_objects","103","Steamer.jpg","37","1","693"
"19","19","retrieval","old_objects","104","Hookah.jpg","36","1","688"
"19","19","retrieval","old_objects","105","Boombox.jpg","36","1","616"
"19","19","retrieval","new_objects","106","Jug_Wicker.jpg","37","1","834"
"19","19","retrieval","new_objects","107","PickupTruck.jpg","37","1","744"
"19","19","retrieval","new_objects","108","Hourglass.jpg","37","1","826"
"19","19","retrieval","old_objects","109","ShoeLace_Round.jpg","36","1","654"
"19","19","retrieval","new_objects","110","Machine_Bread.jpg","37","1","848"
"19","19","retrieval","old_objects","111","Cologne.jpg","36","1","724"
"19","19","retrieval","new_objects","112","Candy_Toffee.jpg","37","1","722"
"19","19","retrieval","new_objects","113","ComputerKeyboard.jpg","37","1","671"
"19","19","retrieval","new_objects","114","Fencing_HelmetSwords.jpg","37","1","651"
"19","19","retrieval","old_objects","115","SpaceShuttle.jpg","36","1","621"
"19","19","retrieval","new_objects","116","GPS.jpg","37","1","658"
"19","19","retrieval","old_objects","117","OrigamiPaper.jpg","37","0","665"
"19","19","retrieval","new_objects","118","MetalDetector.jpg","37","1","808"
"19","19","retrieval","old_objects","119","Door_Blue.jpg","36","1","639"
"19","19","retrieval","new_objects","120","Pot_Cooking.jpg","37","1","707"
"19","19","retrieval","old_objects","121","Qtip_Multiple.jpg","36","1","743"
"19","19","retrieval","new_objects","123","Egg_Chocolate.jpg","37","1","749"
"19","19","retrieval","old_objects","124","Peach.jpg","36","1","698"
"19","19","retrieval","new_objects","125","Pillow_Plaid.jpg","37","1","701"
"19","19","retrieval","old_objects","126","TestTube_Single.jpg","36","1","753"
"19","19","retrieval","old_objects","127","PanCooking.jpg","36","1","787"
"19","19","retrieval","old_objects","128","Thermometer_Room.jpg","36","1","814"
"19","19","retrieval","new_objects","129","BicycleHandleGrip.jpg","37","1","766"
"19","19","retrieval","old_objects","130","Wire_Soldering.jpg","36","1","768"
"19","19","retrieval","new_objects","131","Pliers_ViceGrip.jpg","37","1","797"
"19","19","retrieval","new_objects","132","DrillBit.jpg","37","1","759"
"19","19","retrieval","new_objects","133","Artichoke.jpg","37","1","829"
"19","19","retrieval","new_objects","134","Bottle_Blue.jpg","37","1","976"
"19","19","retrieval","old_objects","135","Paratrooper.jpg","37","0","776"
"19","19","retrieval","old_objects","136","TreeHouse.jpg","36","1","670"
"19","19","retrieval","new_objects","137","Chair_Dining.jpg","37","1","811"
"19","19","retrieval","new_objects","138","LifeJacket_Orangejpg.jpg","37","1","776"
"19","19","retrieval","old_objects","139","Makeup_Foundation.jpg","36","1","782"
"19","19","retrieval","new_objects","140","PulleyWooden.jpg","37","1","777"
"19","19","retrieval","new_objects","141","Buffalo.jpg","37","1","736"
"19","19","retrieval","new_objects","142","Rake_Long.jpg","37","1","771"
"19","19","retrieval","old_objects","143","Ship_Cruise.jpg","36","1","662"
"19","19","retrieval","new_objects","144","Colosseum.jpg","37","1","777"
"19","19","retrieval","new_objects","145","Jacket_Suit.jpg","37","1","879"
"19","19","retrieval","new_objects","146","Toy_TrailerAirport.jpg","37","1","788"
"19","19","retrieval","new_objects","147","Glass_Beer.jpg","37","1","720"
"19","19","retrieval","new_objects","148","Horn_French.jpg","37","1","689"
"19","19","retrieval","new_objects","149","Squash_Butternut.jpg","37","1","789"
"19","19","retrieval","old_objects","150","Boot_Rain.jpg","36","1","825"
"19","19","retrieval","new_objects","151","Lens_ColourFilter.jpg","37","1","730"
"19","19","retrieval","old_objects","152","Necklace_Pearl.jpg","36","1","851"
"19","19","retrieval","new_objects","153","Sink_Kitchen.jpg","37","1","768"
"19","19","retrieval","old_objects","154","Case_WoodenOrnate.jpg","36","1","745"
"19","19","retrieval","old_objects","155","Wardrobe.jpg","36","1","744"
"19","19","retrieval","new_objects","156","Mat_Door.jpg","37","1","716"
"19","19","retrieval","new_objects","157","Camel_Dromedary.jpg","36","0","753"
"19","19","retrieval","old_objects","158","ChalkboardEraser.jpg","36","1","686"
"19","19","retrieval","old_objects","159","Cup_sippy.jpg","36","1","784"
"19","19","retrieval","old_objects","160","Drum_Tall.jpg","36","1","722"
"19","19","retrieval","old_objects","161","Kiwi.jpg","36","1","794"
"19","19","retrieval","old_objects","162","Statue_Horse.jpg","37","0","743"
"19","19","retrieval","new_objects","163","Sandwich_Ham.jpg","37","1","755"
"19","19","retrieval","new_objects","164","Flower_Tulip.jpg","37","1","735"
"19","19","retrieval","old_objects","165","WaterFountain.jpg","36","1","796"
"19","19","retrieval","old_objects","166","Sign_OneWay.jpg","36","1","756"
"19","19","retrieval","new_objects","167","Yarmulke.jpg","37","1","766"
"19","19","retrieval","new_objects","168","Tube_Paint.jpg","37","1","847"
"19","19","retrieval","new_objects","169","PeriodicTable.jpg","37","1","860"
"19","19","retrieval","new_objects","170","Stove_Portable.jpg","37","1","741"
"19","19","retrieval","new_objects","171","Kangaroo_WithJoey.jpg","37","1","735"
"19","19","retrieval","new_objects","172","PowerDoorPushButton.jpg","37","1","723"
"19","19","retrieval","new_objects","173","Hammer.jpg","37","1","736"
"19","19","retrieval","new_objects","174","Statue_Cat.jpg","37","1","791"
"19","19","retrieval","new_objects","175","PlayerFootball.jpg","37","1","719"
"19","19","retrieval","new_objects","176","ChocolateBar_HalfUnwrapped.jpg","37","1","863"
"19","19","retrieval","new_objects","177","Sandcastle.jpg","37","1","875"
"19","19","retrieval","old_objects","178","Wontons.jpg","36","1","771"
"19","19","retrieval","new_objects","179","Gloves_Bicycle.jpg","37","1","792"
"19","19","retrieval","old_objects","180","HumanSkeleton.jpg","36","1","674"
"19","19","retrieval","old_objects","181","Windmill_Building.jpg","36","1","761"
"19","19","retrieval","old_objects","182","Birdhouse.jpg","36","1","700"
"19","19","retrieval","new_objects","184","StringBean.jpg","37","1","746"
"19","19","retrieval","old_objects","185","Spatula.jpg","36","1","744"
"19","19","retrieval","new_objects","186","Cake_Cheese.jpg","37","1","785"
"19","19","retrieval","old_objects","187","Bowl_Pasta.jpg","36","1","708"
"19","19","retrieval","new_objects","188","Megaphone.jpg","37","1","672"
"19","19","retrieval","old_objects","189","Camel_Bactrian.jpg","36","1","703"
"19","19","retrieval","new_objects","190","Stool_Foot.jpg","37","1","802"
"19","19","retrieval","new_objects","191","Stationary.jpg","37","1","631"
"19","19","retrieval","new_objects","192","Rope_Manila.jpg","37","1","661"
"19","19","retrieval","old_objects","193","Clock_Radio.jpg","37","0","606"
"19","19","retrieval","new_objects","194","Booth_Carnival.jpg","37","1","615"
"19","19","retrieval","old_objects","195","Altar.jpg","36","1","566"
"19","19","retrieval","new_objects","196","Generator.jpg","37","1","721"
"19","19","retrieval","new_objects","197","Stamp.jpg","37","1","610"
"19","19","retrieval","old_objects","198","Nightstand.jpg","37","0","673"
"19","19","retrieval","old_objects","199","Puzzle_Piece.jpg","36","1","734"
"19","19","retrieval","new_objects","200","Drink_Cocktail.jpg","37","1","656"
"19","19","retrieval","new_objects","201","ShoeLace_Flat.jpg","37","1","689"
"19","19","retrieval","new_objects","202","Steeple.jpg","37","1","662"
"19","19","retrieval","new_objects","203","CashRegister_Antique.jpg","37","1","657"
"19","19","retrieval","old_objects","204","Basket_Firewood.jpg","36","1","577"
"19","19","retrieval","new_objects","205","Tray_Metal.jpg","37","1","613"
"19","19","retrieval","old_objects","206","Staples.jpg","36","1","813"
"19","19","retrieval","old_objects","207","Socks_Winter.jpg","36","1","672"
"19","19","retrieval","old_objects","208","Sign_Airport.jpg","37","0","576"
"19","19","retrieval","new_objects","209","PumpBreast.jpg","37","1","841"
"19","19","retrieval","new_objects","210","LintRemover.jpg","37","1","829"
"19","19","retrieval","old_objects","211","Hat_Baseball.jpg","36","1","1114"
"19","19","retrieval","old_objects","212","Bib.jpg","36","1","724"
"19","19","retrieval","old_objects","213","Blueberry.jpg","36","1","731"
"19","19","retrieval","old_objects","214","StickyTack.jpg","36","1","654"
"19","19","retrieval","new_objects","215","Toy_Firetruck.jpg","37","1","703"
"19","19","retrieval","new_objects","216","RibbonSpool.jpg","37","1","757"
"19","19","retrieval","new_objects","217","ChiliFlakes.jpg","37","1","644"
"19","19","retrieval","old_objects","218","Torpedo.jpg","36","1","625"
"19","19","retrieval","old_objects","219","Snorkle.jpg","36","1","713"
"19","19","retrieval","new_objects","220","Scroll.jpg","37","1","690"
"19","19","retrieval","new_objects","221","Foam_Accoustic.jpg","37","1","678"
"19","19","retrieval","new_objects","222","Leaf_Green.jpg","37","1","825"
"19","19","retrieval","old_objects","223","Cup_Latte.jpg","36","1","602"
"19","19","retrieval","old_objects","224","AirCompressor.jpg","36","1","599"
"19","19","retrieval","new_objects","225","VacuumHandheld.jpg","37","1","682"
"19","19","retrieval","new_objects","226","Bottle_Oil.jpg","37","1","643"
"19","19","retrieval","old_objects","227","Clock_Interior.jpg","36","1","649"
"19","19","retrieval","new_objects","228","Table_Poker.jpg","37","1","632"
"19","19","retrieval","new_objects","229","Cooler.jpg","37","1","872"
"19","19","retrieval","old_objects","230","Stone_AncientWriting.jpg","36","1","628"
"19","19","retrieval","new_objects","231","Hubcap.jpg","37","1","577"
"19","19","retrieval","old_objects","232","Truck_Pickup.jpg","36","1","610"
"19","19","retrieval","old_objects","233","Syrup_Maple.jpg","36","1","667"
"19","19","retrieval","new_objects","234","Toy_Chameleon.jpg","37","1","650"
"19","19","retrieval","old_objects","235","HardDrive.jpg","36","1","652"
"19","19","retrieval","new_objects","236","Clock_Grandfather.jpg","37","1","799"
"19","19","retrieval","new_objects","237","Dragonfly.jpg","37","1","561"
"19","19","retrieval","new_objects","238","Can_Olives.jpg","37","1","574"
"19","19","retrieval","old_objects","239","Jar_Money.jpg","36","1","738"
"19","19","retrieval","old_objects","240","Waffle.jpg","36","1","717"
"19","19","retrieval","new_objects","241","EyeChart.jpg","37","1","677"
"19","19","retrieval","old_objects","242","Sashimi.jpg","36","1","589"
"19","19","retrieval","old_objects","243","KeyHook_Empty.jpg","36","1","620"
"19","19","retrieval","new_objects","245","Barometer_Wood.jpg","37","1","940"
"19","19","retrieval","old_objects","246","Tape_Dispenser.jpg","37","0","716"
"19","19","retrieval","old_objects","247","Hat_Beret.jpg","36","1","780"
"19","19","retrieval","new_objects","248","Crutches.jpg","37","1","584"
"19","19","retrieval","new_objects","249","WateringCan_PlasticDarkGreen.jpg","37","1","590"
"19","19","retrieval","old_objects","250","ScannerShoplifting.jpg","36","1","608"
"19","19","retrieval","old_objects","251","House_Wooden.jpg","37","0","850"
"19","19","retrieval","old_objects","252","Box_FirstAid.jpg","36","1","688"
"19","19","retrieval","new_objects","253","Cantaloupe.jpg","36","0","687"
"19","19","retrieval","new_objects","254","NetButterfly.jpg","37","1","708"
"19","19","retrieval","old_objects","255","Glove_Baseball.jpg","36","1","749"
"19","19","retrieval","old_objects","256","Mask_Buddhist.jpg","36","1","631"
"19","19","retrieval","old_objects","257","Stamper.jpg","36","1","790"
"19","19","retrieval","new_objects","258","Boots_KneeHigh.jpg","37","1","675"
"19","19","retrieval","old_objects","259","CanOpener.jpg","37","0","813"
"19","19","retrieval","new_objects","260","Dresser.jpg","37","1","721"
"19","19","retrieval","new_objects","261","RugRoled.jpg","37","1","643"
"19","19","retrieval","old_objects","262","Keychain_Leather.jpg","36","1","597"
"19","19","retrieval","new_objects","263","TissueBox.jpg","37","1","649"
"19","19","retrieval","old_objects","264","Pillow_Heart.jpg","36","1","574"
"19","19","retrieval","new_objects","265","Stool_Metal.jpg","37","1","615"
"19","19","retrieval","new_objects","266","Fortress.jpg","37","1","696"
"19","19","retrieval","old_objects","267","Stick_Drum.jpg","36","1","635"
"19","19","retrieval","old_objects","268","Pliers_SlipJoint.jpg","36","1","929"
"19","19","retrieval","new_objects","269","Cake_Wedding.jpg","37","1","556"
"19","19","retrieval","new_objects","270","Pacifier.jpg","37","1","642"
"19","19","retrieval","old_objects","271","NailFiles.jpg","37","0","621"
"19","19","retrieval","new_objects","272","Toy_Lizard.jpg","37","1","816"
"19","19","retrieval","old_objects","273","CraneMachine.jpg","36","1","734"
"19","19","retrieval","new_objects","274","Puffin.jpg","37","1","680"
"19","19","retrieval","new_objects","275","Ladder.jpg","37","1","634"
"19","19","retrieval","new_objects","276","Boat_Dinghy.jpg","37","1","734"
"19","19","retrieval","new_objects","277","Clothespin_Red.jpg","37","1","659"
"19","19","retrieval","old_objects","278","Toy_Tractor_1.jpg","36","1","577"
"19","19","retrieval","old_objects","279","OnionRed.jpg","36","1","580"
"19","19","retrieval","old_objects","280","FireAlarm.jpg","36","1","612"
"19","19","retrieval","new_objects","281","Guacamole.jpg","37","1","694"
"19","19","retrieval","old_objects","282","PillBottle_Closed.jpg","36","1","707"
"19","19","retrieval","new_objects","283","Barbecue_Charcoal.jpg","37","1","718"
"19","19","retrieval","old_objects","284","SandBagThrowGame.jpg","36","1","756"
"19","19","retrieval","new_objects","285","FloorTile.jpg","37","1","646"
"19","19","retrieval","old_objects","286","Bench_Wooden.jpg","36","1","604"
"19","19","retrieval","old_objects","287","PaintCan.jpg","36","1","817"
"19","19","retrieval","new_objects","288","Ball_Baseball.jpg","37","1","785"
"19","19","retrieval","new_objects","289","Bench_Black.jpg","37","1","704"
"19","19","retrieval","old_objects","290","BicycleWheelRusty.jpg","37","0","671"
"19","19","retrieval","old_objects","291","Drill.jpg","36","1","1161"
"19","19","retrieval","old_objects","292","Phone_Flip.jpg","36","1","746"
"19","19","retrieval","old_objects","293","Shoe_Pink.jpg","36","1","662"
"19","19","retrieval","old_objects","294","Table_Conference.jpg","37","0","882"
"19","19","retrieval","old_objects","295","Clothespin_Beige.jpg","36","1","665"
"19","19","retrieval","old_objects","296","Oneholepunch.jpg","36","1","718"
"19","19","retrieval","new_objects","297","CookieCutter_Bell.jpg","37","1","742"
"19","19","retrieval","old_objects","298","Can_Gas.jpg","36","1","703"
"19","19","retrieval","new_objects","299","Stick_IceHockey.jpg","37","1","682"
"19","19","retrieval","new_objects","300","Blanket.jpg","37","1","713"
"19","19","retrieval","new_objects","301","Locomotive.jpg","37","1","650"
"19","19","retrieval","new_objects","302","Stick_Honey.jpg","37","1","728"
"19","19","retrieval","new_objects","303","Candleholder_LampShaped.jpg","37","1","873"
"19","19","retrieval","old_objects","304","TowerEiffel.jpg","36","1","597"
"19","19","retrieval","new_objects","306","Scooter.jpg","37","1","664"
"19","19","retrieval","new_objects","307","House_Rural.jpg","37","1","784"
"19","19","retrieval","old_objects","308","FloppyDisk.jpg","36","1","709"
"19","19","retrieval","new_objects","309","Box_Jewellery.jpg","37","1","732"
"19","19","retrieval","old_objects","310","CookieCutter_Tree.jpg","36","1","620"
"19","19","retrieval","new_objects","311","Cane_Metal.jpg","37","1","881"
"19","19","retrieval","old_objects","312","Tag_Identifier.jpg","36","1","641"
"19","19","retrieval","old_objects","313","Clam.jpg","36","1","685"
"19","19","retrieval","old_objects","314","Mirror_Dental.jpg","36","1","731"
"19","19","retrieval","old_objects","315","LeatherPuncherTool.jpg","36","1","746"
"19","19","retrieval","old_objects","316","Cat.jpg","36","1","731"
"19","19","retrieval","new_objects","317","Mitt_Oven.jpg","37","1","690"
"19","19","retrieval","new_objects","318","Ball_Tennis.jpg","37","1","764"
"19","19","retrieval","old_objects","319","Fork_Regular.jpg","37","0","723"
"19","19","retrieval","old_objects","320","Toy_MrPotatoHeadjpg.jpg","36","1","668"
"19","19","retrieval","old_objects","321","Cane_Wooden.jpg","36","1","609"
"19","19","retrieval","new_objects","322","Bowl_Chopsticks.jpg","37","1","715"
"19","19","retrieval","old_objects","323","LightHouse.jpg","36","1","783"
"19","19","retrieval","new_objects","324","Toy_DonkeyPlastic.jpg","37","1","938"
"19","19","retrieval","old_objects","325","BikiniTop.jpg","36","1","686"
"19","19","retrieval","new_objects","326","Comb.jpg","37","1","644"
"19","19","retrieval","new_objects","327","Stovetop.jpg","37","1","592"
"19","19","retrieval","old_objects","328","Dynamite.jpg","36","1","825"
"19","19","retrieval","new_objects","329","Toblerone.jpg","37","1","651"
"19","19","retrieval","old_objects","330","Guitar_Acoustic.jpg","36","1","717"
"19","19","retrieval","old_objects","331","Thermos_Decorated.jpg","36","1","711"
"19","19","retrieval","old_objects","332","Swing_Porch.jpg","37","0","933"
"19","19","retrieval","new_objects","333","ButterDish.jpg","37","1","721"
"19","19","retrieval","old_objects","334","Candy_GummyBear.jpg","36","1","576"
"19","19","retrieval","old_objects","335","Heater_Outdoor.jpg","36","1","734"
"19","19","retrieval","old_objects","336","Mask_VenetianCat.jpg","36","1","702"
"19","19","retrieval","old_objects","337","Nuts_Peanuts.jpg","36","1","683"
"19","19","retrieval","new_objects","338","Chipmunk.jpg","37","1","709"
"19","19","retrieval","old_objects","339","Toy_TableSet.jpg","36","1","853"
"19","19","retrieval","old_objects","340","Bucket_Champagne.jpg","37","0","666"
"19","19","retrieval","old_objects","341","AmberWithMosquito.jpg","36","1","674"
"19","19","retrieval","old_objects","342","Knife_Hunting.jpg","37","0","700"
"19","19","retrieval","old_objects","343","LicensePlate.jpg","36","1","727"
"19","19","retrieval","old_objects","344","Toy_DonkeyFur.jpg","36","1","887"
"19","19","retrieval","new_objects","345","Fridge.jpg","37","1","714"
"19","19","retrieval","new_objects","346","Toy_BlocksWoodenPlain.jpg","37","1","654"
"19","19","retrieval","old_objects","347","WaterGun.jpg","36","1","747"
"19","19","retrieval","new_objects","348","NewspaperStack.jpg","37","1","580"
"19","19","retrieval","new_objects","349","Paddle_Ball.jpg","37","1","657"
"19","19","retrieval","old_objects","350","Flower_Orchid.jpg","36","1","616"
"19","19","retrieval","old_objects","351","Flask_Metal.jpg","36","1","597"
"19","19","retrieval","new_objects","352","Bag_Satchel.jpg","37","1","674"
"19","19","retrieval","new_objects","353","Sign_TrafficArrow.jpg","36","0","552"
"19","19","retrieval","old_objects","354","Light_Traffic.jpg","36","1","896"
"19","19","retrieval","old_objects","355","Mailbox_Antique.jpg","36","1","777"
"19","19","demographics_block","gender","1","Mailbox_Antique.jpg","Female","1","22015"
"19","19","demographics_block","age","1","Mailbox_Antique.jpg","64","1","22015"
"19","19","demographics_block","education","1","Mailbox_Antique.jpg","16","1","22015"
"19","19","demographics_block","left_right_handed","2","Mailbox_Antique.jpg","Right","1","9956"
"19","19","demographics_block","raceoption1","2","Mailbox_Antique.jpg","0","1","9956"
"19","19","demographics_block","raceoption2","2","Mailbox_Antique.jpg","","1","9956"
"19","19","demographics_block","raceoption3","2","Mailbox_Antique.jpg","","1","9956"
"19","19","demographics_block","raceoption4","2","Mailbox_Antique.jpg","","1","9956"
"19","19","demographics_block","raceoption5","2","Mailbox_Antique.jpg","","1","9956"
"19","19","demographics_block","raceoption6","2","Mailbox_Antique.jpg","","1","9956"
"19","19","demographics_block","raceoption7","2","Mailbox_Antique.jpg","","1","9956"
"19","19","demographics_block","raceoption8","2","Mailbox_Antique.jpg","","1","9956"
"19","19","demographics_block","raceoption9","2","Mailbox_Antique.jpg","","1","9956"
"19","19","demographics_block","raceother","2","Mailbox_Antique.jpg","","1","9956"
"19","19","demographics_block","raceother","2","Mailbox_Antique.jpg","","1","9956"
"19","19","demographics_block","english_language","2","Mailbox_Antique.jpg","Yes","1","9956"
"19","19","demographics_block","english_languageother","2","Mailbox_Antique.jpg","","1","9956"
"19","19","demographics_block","eyesight","3","Mailbox_Antique.jpg","Yes","1","7185"
"19","19","demographics_block","colorblind","3","Mailbox_Antique.jpg","No","1","7185"
"19","19","worker_id_block","worker_id_textbox","1","Mailbox_Antique.jpg","A248QG4DPULP46","1","8774"
"20","20","encoding","encoding","1","Turtle.jpg","37","0","1712"
"20","20","encoding","encoding","2","SandBagThrowGame.jpg","0","0","2000"
"20","20","encoding","encoding","3","Thermometer_Room.jpg","37","0","1276"
"20","20","encoding","encoding","4","Fork_Regular.jpg","36","0","897"
"20","20","encoding","encoding","5","Windmill_Building.jpg","37","0","1140"
"20","20","encoding","encoding","6","Tape_Dispenser.jpg","36","0","1036"
"20","20","encoding","encoding","7","HardDrive.jpg","36","0","920"
"20","20","encoding","encoding","8","Snorkle.jpg","37","0","1372"
"20","20","encoding","encoding","9","BicycleWheelRusty.jpg","37","0","1392"
"20","20","encoding","encoding","10","Kiwi.jpg","36","0","1252"
"20","20","encoding","encoding","11","Clock_Interior.jpg","36","0","1215"
"20","20","encoding","encoding","12","AmberWithMosquito.jpg","36","0","1228"
"20","20","encoding","encoding","13","Bell_Hand.jpg","36","0","1235"
"20","20","encoding","encoding","14","DentistOverheadLight.jpg","36","0","1184"
"20","20","encoding","encoding","15","MoneyBill50.jpg","36","0","1219"
"20","20","encoding","encoding","16","Sign_Airport.jpg","37","0","958"
"20","20","encoding","encoding","17","Wontons.jpg","36","0","1155"
"20","20","encoding","encoding","18","PostageStamps.jpg","36","0","919"
"20","20","encoding","encoding","19","Stapler_Regular.jpg","36","0","987"
"20","20","encoding","encoding","20","Chimpanzee.jpg","37","0","1055"
"20","20","encoding","encoding","21","HumanSkeleton.jpg","36","0","1163"
"20","20","encoding","encoding","22","Toy_Tractor_1.jpg","36","0","1447"
"20","20","encoding","encoding","23","Stamper.jpg","36","0","1059"
"20","20","encoding","encoding","24","Phone_Flip.jpg","36","0","1287"
"20","20","encoding","encoding","25","ChalkboardEraser.jpg","36","0","1691"
"20","20","encoding","encoding","26","Candy_GummyBear.jpg","36","0","1183"
"20","20","encoding","encoding","27","Toy_TableSet.jpg","36","0","1607"
"20","20","encoding","encoding","28","Tree_Fir.jpg","37","0","690"
"20","20","encoding","encoding","29","Blueberry.jpg","37","0","679"
"20","20","encoding","encoding","30","LeatherPuncherTool.jpg","36","0","1099"
"20","20","encoding","encoding","31","Altar.jpg","36","0","919"
"20","20","encoding","encoding","32","InflatableSleepingBag.jpg","37","0","1194"
"20","20","encoding","encoding","33","Camel_Bactrian.jpg","37","0","622"
"20","20","encoding","encoding","34","Clock_Radio.jpg","36","0","674"
"20","20","encoding","encoding","35","Bench_Concrete.jpg","36","0","1038"
"20","20","encoding","encoding","36","Pillow_Heart.jpg","36","0","994"
"20","20","encoding","encoding","37","OrigamiPaper.jpg","36","0","1150"
"20","20","encoding","encoding","38","Stick_Drum.jpg","36","0","1146"
"20","20","encoding","encoding","39","BikiniTop.jpg","36","0","1062"
"20","20","encoding","encoding","40","PhoneJack.jpg","36","0","966"
"20","20","encoding","encoding","41","Waffle.jpg","36","0","1014"
"20","20","encoding","encoding","42","Table_Conference.jpg","36","0","1026"
"20","20","encoding","encoding","43","AirCompressor.jpg","36","0","1830"
"20","20","encoding","encoding","44","Candle_ChristmasDecor.jpg","36","0","994"
"20","20","encoding","encoding","45","Swing_Porch.jpg","37","0","965"
"20","20","encoding","encoding","46","Light_Traffic.jpg","37","0","690"
"20","20","encoding","encoding","47","OnionRed.jpg","37","0","1252"
"20","20","encoding","encoding","48","Tag_Identifier.jpg","36","0","794"
"20","20","encoding","encoding","49","Toy_DonkeyFur.jpg","37","0","853"
"20","20","encoding","encoding","50","Drum_Tall.jpg","36","0","1245"
"20","20","encoding","encoding","51","Bird_Eagle.jpg","37","0","841"
"20","20","encoding","encoding","52","Hat_Beret.jpg","36","0","1685"
"20","20","encoding","encoding","53","PillBottle_Closed.jpg","36","0","953"
"20","20","encoding","encoding","54","Necklace_Pearl.jpg","36","0","1053"
"20","20","encoding","encoding","55","KitchenCloth.jpg","36","0","1049"
"20","20","encoding","encoding","56","Door_Blue.jpg","37","0","1269"
"20","20","encoding","encoding","57","Staples.jpg","36","0","1313"
"20","20","encoding","encoding","58","Goose_Canadian.jpg","37","0","765"
"20","20","encoding","encoding","59","Bucket_Champagne.jpg","36","0","985"
"20","20","encoding","encoding","60","Fan_Blades.jpg","36","0","1289"
"20","20","encoding","encoding","62","Fruit_Cactus.jpg","37","0","1153"
"20","20","encoding","encoding","63","ScannerShoplifting.jpg","36","0","933"
"20","20","encoding","encoding","64","Drill.jpg","36","0","849"
"20","20","encoding","encoding","65","Chair_Car.jpg","36","0","765"
"20","20","encoding","encoding","66","Sashimi.jpg","36","0","964"
"20","20","encoding","encoding","67","PaintCan.jpg","36","0","1088"
"20","20","encoding","encoding","68","Wire_Soldering.jpg","36","0","1156"
"20","20","encoding","encoding","69","Spatula_1.jpg","36","0","920"
"20","20","encoding","encoding","70","Spatula.jpg","36","0","780"
"20","20","encoding","encoding","71","Flower_Orchid.jpg","37","0","888"
"20","20","encoding","encoding","72","Bench_Wooden.jpg","36","0","1380"
"20","20","encoding","encoding","73","FireHydrant.jpg","37","0","832"
"20","20","encoding","encoding","74","GranolaBar.jpg","36","0","892"
"20","20","encoding","encoding","75","Hook_Ceiling.jpg","36","0","1440"
"20","20","encoding","encoding","76","Cat.jpg","36","0","1244"
"20","20","encoding","encoding","77","Birdhouse.jpg","37","0","896"
"20","20","encoding","encoding","78","Ship_Model.jpg","36","0","1100"
"20","20","encoding","encoding","79","Cologne.jpg","36","0","800"
"20","20","encoding","encoding","80","SpaceShuttle.jpg","37","0","1139"
"20","20","encoding","encoding","81","Boombox.jpg","36","0","816"
"20","20","encoding","encoding","82","CanOpener.jpg","36","0","651"
"20","20","encoding","encoding","83","Briefcase_Silver.jpg","36","0","763"
"20","20","encoding","encoding","84","PencilCase.jpg","36","0","744"
"20","20","encoding","encoding","85","Bib.jpg","36","0","787"
"20","20","encoding","encoding","86","Clothespin_Beige.jpg","36","0","943"
"20","20","encoding","encoding","87","NailFiles.jpg","36","0","1443"
"20","20","encoding","encoding","88","TowerEiffel.jpg","37","0","727"
"20","20","encoding","encoding","89","Basket_Firewood.jpg","37","0","1379"
"20","20","encoding","encoding","90","Clave.jpg","37","0","1335"
"20","20","encoding","encoding","91","Peach.jpg","37","0","1088"
"20","20","encoding","encoding","92","Case_WoodenOrnate.jpg","36","0","1607"
"20","20","encoding","encoding","93","Paratrooper.jpg","37","0","763"
"20","20","encoding","encoding","94","Mask_Buddhist.jpg","36","0","1110"
"20","20","encoding","encoding","95","Puzzle_Piece.jpg","36","0","859"
"20","20","encoding","encoding","96","Clam.jpg","37","0","927"
"20","20","encoding","encoding","97","Garbage_Can.jpg","36","0","931"
"20","20","encoding","encoding","98","Boardgame_Chess.jpg","36","0","951"
"20","20","encoding","encoding","99","Seal_Toy.jpg","37","0","1611"
"20","20","encoding","encoding","100","LightHouse.jpg","37","0","871"
"20","20","encoding","encoding","101","Cup_Latte.jpg","36","0","790"
"20","20","encoding","encoding","102","FloppyDisk.jpg","36","0","898"
"20","20","encoding","encoding","103","LicensePlate.jpg","36","0","1310"
"20","20","encoding","encoding","104","Wardrobe.jpg","36","0","686"
"20","20","encoding","encoding","105","Keychain_Leather.jpg","36","0","1322"
"20","20","encoding","encoding","106","Thermos_Decorated.jpg","36","0","1158"
"20","20","encoding","encoding","107","Notebook.jpg","36","0","722"
"20","20","encoding","encoding","108","StickyTack.jpg","36","0","1302"
"20","20","encoding","encoding","109","ShoeLace_Round.jpg","36","0","1898"
"20","20","encoding","encoding","110","Airplane_Small.jpg","37","0","798"
"20","20","encoding","encoding","111","Brush_Makeup.jpg","36","0","698"
"20","20","encoding","encoding","112","Truck_Pickup.jpg","37","0","726"
"20","20","encoding","encoding","113","Jar_Money.jpg","36","0","1102"
"20","20","encoding","encoding","114","RamAnimal.jpg","37","0","1778"
"20","20","encoding","encoding","115","TreeHouse.jpg","37","0","806"
"20","20","encoding","encoding","116","Pot_TurkishCoffee.jpg","36","0","1370"
"20","20","encoding","encoding","117","Switch_LightBlack.jpg","36","0","750"
"20","20","encoding","encoding","118","Lunchbox.jpg","36","0","985"
"20","20","encoding","encoding","119","Stone_AncientWriting.jpg","37","0","1381"
"20","20","encoding","encoding","120","Mailbox_Antique.jpg","37","0","1329"
"20","20","encoding","encoding","121","PortaPotty.jpg","37","0","845"
"20","20","encoding","encoding","123","Makeup_Foundation.jpg","36","0","957"
"20","20","encoding","encoding","124","Jar_Honey.jpg","36","0","1145"
"20","20","encoding","encoding","125","Bowl_Pasta.jpg","36","0","1197"
"20","20","encoding","encoding","126","Box_FirstAid.jpg","36","0","1153"
"20","20","encoding","encoding","127","Heater_Outdoor.jpg","37","0","809"
"20","20","encoding","encoding","128","DogHouse.jpg","37","0","661"
"20","20","encoding","encoding","129","Toy_MrPotatoHeadjpg.jpg","36","0","777"
"20","20","encoding","encoding","130","Mirror_Dental.jpg","36","0","1373"
"20","20","encoding","encoding","131","Can_Gas.jpg","37","0","1185"
"20","20","encoding","encoding","132","Battery_Car.jpg","37","0","1577"
"20","20","encoding","encoding","133","Ship_Cruise.jpg","37","0","804"
"20","20","encoding","encoding","134","Cane_Wooden.jpg","36","0","1544"
"20","20","encoding","encoding","135","Hat_Baseball.jpg","36","0","820"
"20","20","encoding","encoding","136","PanCooking.jpg","36","0","720"
"20","20","encoding","encoding","137","ThreeHolePunch.jpg","36","0","972"
"20","20","encoding","encoding","138","Qtip_Multiple.jpg","36","0","728"
"20","20","encoding","encoding","139","Toy_DollOffice.jpg","36","0","1228"
"20","20","encoding","encoding","140","BicycleOdometer.jpg","36","0","1360"
"20","20","encoding","encoding","141","FireAlarm.jpg","36","0","1212"
"20","20","encoding","encoding","142","Pepperoni.jpg","36","0","1564"
"20","20","encoding","encoding","143","Pliers_SlipJoint.jpg","36","0","656"
"20","20","encoding","encoding","144","Dynamite.jpg","36","0","1132"
"20","20","encoding","encoding","145","Cup_sippy.jpg","36","0","680"
"20","20","encoding","encoding","146","Torpedo.jpg","37","0","1107"
"20","20","encoding","encoding","147","Nightstand.jpg","36","0","752"
"20","20","encoding","encoding","148","Nuts_Peanuts.jpg","37","0","1316"
"20","20","encoding","encoding","149","KeyHook_Empty.jpg","36","0","895"
"20","20","encoding","encoding","150","WaterGun.jpg","37","0","1612"
"20","20","encoding","encoding","151","WaterFountain.jpg","36","0","1040"
"20","20","encoding","encoding","152","Oneholepunch.jpg","36","0","643"
"20","20","encoding","encoding","153","Colander.jpg","36","0","1067"
"20","20","encoding","encoding","154","Syrup_Maple.jpg","36","0","1231"
"20","20","encoding","encoding","155","Shoe_Pink.jpg","36","0","1331"
"20","20","encoding","encoding","156","CertificateFramed.jpg","36","0","831"
"20","20","encoding","encoding","157","House_Wooden.jpg","37","0","691"
"20","20","encoding","encoding","158","CraneMachine.jpg","37","0","815"
"20","20","encoding","encoding","159","Hookah.jpg","36","0","1083"
"20","20","encoding","encoding","160","Knife_Hunting.jpg","36","0","1583"
"20","20","encoding","encoding","161","Jetski.jpg","37","0","715"
"20","20","encoding","encoding","162","Sign_OneWay.jpg","37","0","1055"
"20","20","encoding","encoding","163","Statue_Horse.jpg","36","0","1018"
"20","20","encoding","encoding","164","Lighter_Yellow.jpg","36","0","1191"
"20","20","encoding","encoding","165","Mask_VenetianCat.jpg","36","0","1107"
"20","20","encoding","encoding","166","Backpack_Suitcase.jpg","36","0","1079"
"20","20","encoding","encoding","167","GatedEntrance.jpg","37","0","762"
"20","20","encoding","encoding","168","Toy_WinnieThePooh.jpg","36","0","1006"
"20","20","encoding","encoding","169","Flask_Metal.jpg","36","0","962"
"20","20","encoding","encoding","170","CookieCutter_Tree.jpg","36","0","1018"
"20","20","encoding","encoding","171","Glove_Baseball.jpg","37","0","1406"
"20","20","encoding","encoding","172","Pear_Green.jpg","37","0","674"
"20","20","encoding","encoding","173","Hat_Feather.jpg","36","0","854"
"20","20","encoding","encoding","174","Socks_Winter.jpg","36","0","674"
"20","20","encoding","encoding","175","Guitar_Acoustic.jpg","36","0","886"
"20","20","encoding","encoding","176","TestTube_Single.jpg","36","0","1338"
"20","20","encoding","encoding","177","Boot_Rain.jpg","37","0","998"
"20","20","retrieval","old_objects","1","Keychain_Leather.jpg","36","1","1269"
"20","20","retrieval","old_objects","2","Can_Gas.jpg","36","1","1009"
"20","20","retrieval","old_objects","3","Pepperoni.jpg","36","1","681"
"20","20","retrieval","old_objects","4","Dynamite.jpg","36","1","585"
"20","20","retrieval","new_objects","5","Flower_Tulip.jpg","37","1","789"
"20","20","retrieval","old_objects","6","Pear_Green.jpg","36","1","729"
"20","20","retrieval","old_objects","7","MoneyBill50.jpg","36","1","705"
"20","20","retrieval","new_objects","8","Suit_Women.jpg","37","1","701"
"20","20","retrieval","old_objects","9","Toy_DonkeyFur.jpg","36","1","729"
"20","20","retrieval","new_objects","10","Quartz.jpg","37","1","753"
"20","20","retrieval","new_objects","11","Ball_Baseball.jpg","37","1","825"
"20","20","retrieval","old_objects","12","Guitar_Acoustic.jpg","36","1","733"
"20","20","retrieval","new_objects","13","Toy_Rooster.jpg","37","1","1041"
"20","20","retrieval","old_objects","14","Socks_Winter.jpg","36","1","841"
"20","20","retrieval","new_objects","15","LifeJacket_Orangejpg.jpg","37","1","993"
"20","20","retrieval","new_objects","16","Toy_RobotClassic.jpg","37","1","601"
"20","20","retrieval","old_objects","17","Bucket_Champagne.jpg","36","1","753"
"20","20","retrieval","new_objects","18","Machine_Bread.jpg","36","0","905"
"20","20","retrieval","new_objects","19","Bag_PaperWithFlour.jpg","37","1","1301"
"20","20","retrieval","new_objects","20","Generator.jpg","37","1","857"
"20","20","retrieval","new_objects","21","PlayerFootball.jpg","37","1","693"
"20","20","retrieval","new_objects","22","Hubcap.jpg","37","1","769"
"20","20","retrieval","new_objects","23","Bag_String.jpg","37","1","881"
"20","20","retrieval","new_objects","24","Stick_IceHockey.jpg","37","1","824"
"20","20","retrieval","new_objects","25","Hippopotamus.jpg","37","1","812"
"20","20","retrieval","old_objects","26","Cup_sippy.jpg","36","1","773"
"20","20","retrieval","new_objects","27","Guacamole.jpg","37","1","1093"
"20","20","retrieval","new_objects","28","Stick_Honey.jpg","37","1","788"
"20","20","retrieval","old_objects","29","Airplane_Small.jpg","36","1","968"
"20","20","retrieval","old_objects","30","Candle_ChristmasDecor.jpg","36","1","952"
"20","20","retrieval","new_objects","31","Steeple.jpg","37","1","1180"
"20","20","retrieval","new_objects","32","Candy_Toffee.jpg","37","1","968"
"20","20","retrieval","new_objects","33","DoorBell.jpg","37","1","1232"
"20","20","retrieval","old_objects","34","ShoeLace_Round.jpg","36","1","940"
"20","20","retrieval","old_objects","35","WaterFountain.jpg","36","1","984"
"20","20","retrieval","new_objects","36","Colosseum.jpg","37","1","1140"
"20","20","retrieval","old_objects","37","Clock_Interior.jpg","36","1","800"
"20","20","retrieval","old_objects","38","Stapler_Regular.jpg","36","1","864"
"20","20","retrieval","old_objects","39","Shoe_Pink.jpg","36","1","764"
"20","20","retrieval","new_objects","40","Jacket_Suit.jpg","37","1","740"
"20","20","retrieval","old_objects","41","Blueberry.jpg","36","1","856"
"20","20","retrieval","old_objects","42","Pot_TurkishCoffee.jpg","36","1","1068"
"20","20","retrieval","old_objects","43","Battery_Car.jpg","36","1","936"
"20","20","retrieval","old_objects","44","Stamper.jpg","36","1","724"
"20","20","retrieval","old_objects","45","Chair_Car.jpg","36","1","652"
"20","20","retrieval","new_objects","46","Locomotive.jpg","37","1","892"
"20","20","retrieval","old_objects","47","Mask_Buddhist.jpg","36","1","772"
"20","20","retrieval","old_objects","48","Bench_Wooden.jpg","36","1","940"
"20","20","retrieval","new_objects","49","Barbecue_Charcoal.jpg","37","1","879"
"20","20","retrieval","old_objects","50","Cologne.jpg","36","1","776"
"20","20","retrieval","new_objects","51","Vase_Decorative.jpg","37","1","764"
"20","20","retrieval","new_objects","52","Cake_Wedding.jpg","37","1","1268"
"20","20","retrieval","new_objects","53","Megaphone.jpg","37","1","999"
"20","20","retrieval","old_objects","54","PanCooking.jpg","36","1","880"
"20","20","retrieval","new_objects","55","Tray_Medical.jpg","37","1","975"
"20","20","retrieval","old_objects","56","Clam.jpg","36","1","1079"
"20","20","retrieval","old_objects","57","Goose_Canadian.jpg","37","0","695"
"20","20","retrieval","new_objects","58","Puffin.jpg","37","1","795"
"20","20","retrieval","new_objects","59","Hourglass.jpg","37","1","683"
"20","20","retrieval","new_objects","60","Horn_French.jpg","37","1","603"
"20","20","retrieval","old_objects","62","Mailbox_Antique.jpg","37","0","863"
"20","20","retrieval","old_objects","63","Glove_Baseball.jpg","36","1","795"
"20","20","retrieval","new_objects","64","RugRoled.jpg","37","1","787"
"20","20","retrieval","new_objects","65","CashRegister_Antique.jpg","37","1","767"
"20","20","retrieval","new_objects","66","Ball_Tennis.jpg","37","1","655"
"20","20","retrieval","new_objects","67","Bag_Satchel.jpg","37","1","715"
"20","20","retrieval","new_objects","68","Cooler.jpg","37","1","699"
"20","20","retrieval","old_objects","69","BikiniTop.jpg","36","1","695"
"20","20","retrieval","old_objects","70","Basket_Firewood.jpg","36","1","710"
"20","20","retrieval","old_objects","71","ThreeHolePunch.jpg","36","1","611"
"20","20","retrieval","old_objects","72","Cat.jpg","36","1","595"
"20","20","retrieval","new_objects","73","Candy_Lozenge.jpg","37","1","843"
"20","20","retrieval","new_objects","74","PowderProtein.jpg","36","0","979"
"20","20","retrieval","new_objects","75","FloorTile.jpg","37","1","1183"
"20","20","retrieval","old_objects","76","ScannerShoplifting.jpg","36","1","787"
"20","20","retrieval","old_objects","77","Necklace_Pearl.jpg","36","1","607"
"20","20","retrieval","new_objects","78","Candleholder_LampShaped.jpg","37","1","767"
"20","20","retrieval","new_objects","79","CigarCase.jpg","37","1","686"
"20","20","retrieval","old_objects","80","Hook_Ceiling.jpg","36","1","711"
"20","20","retrieval","old_objects","81","Peach.jpg","36","1","1082"
"20","20","retrieval","new_objects","82","Bottle_Blue.jpg","37","1","1386"
"20","20","retrieval","old_objects","83","Drum_Tall.jpg","36","1","1014"
"20","20","retrieval","old_objects","84","Flower_Orchid.jpg","36","1","910"
"20","20","retrieval","new_objects","85","Barometer_Wood.jpg","37","1","930"
"20","20","retrieval","old_objects","86","Bell_Hand.jpg","36","1","978"
"20","20","retrieval","new_objects","87","ManholeCover.jpg","37","1","1086"
"20","20","retrieval","new_objects","88","Tractor_Yellow.jpg","37","1","1182"
"20","20","retrieval","new_objects","89","Statue_Cat.jpg","37","1","610"
"20","20","retrieval","new_objects","90","LintRemover.jpg","37","1","746"
"20","20","retrieval","new_objects","91","Squash_Butternut.jpg","36","0","749"
"20","20","retrieval","old_objects","92","Lunchbox.jpg","36","1","786"
"20","20","retrieval","new_objects","93","Sandcastle.jpg","37","1","742"
"20","20","retrieval","old_objects","94","Backpack_Suitcase.jpg","36","1","754"
"20","20","retrieval","new_objects","95","VacuumHandheld.jpg","0","0","2000"
"20","20","retrieval","new_objects","96","Olives.jpg","37","1","850"
"20","20","retrieval","new_objects","97","Tube_Paint.jpg","37","1","1138"
"20","20","retrieval","old_objects","98","Waffle.jpg","36","1","1150"
"20","20","retrieval","new_objects","99","Box_WoodenClosed.jpg","37","1","1162"
"20","20","retrieval","new_objects","100","PulleyWooden.jpg","37","1","1146"
"20","20","retrieval","old_objects","101","PortaPotty.jpg","37","0","597"
"20","20","retrieval","old_objects","102","Birdhouse.jpg","36","1","798"
"20","20","retrieval","new_objects","103","Tray_Muffin.jpg","37","1","1214"
"20","20","retrieval","new_objects","104","Jug_Wicker.jpg","37","1","753"
"20","20","retrieval","old_objects","105","Wardrobe.jpg","36","1","670"
"20","20","retrieval","old_objects","106","Mirror_Dental.jpg","36","1","881"
"20","20","retrieval","new_objects","107","Boat_Dinghy.jpg","37","1","953"
"20","20","retrieval","new_objects","108","Dragonfly.jpg","37","1","705"
"20","20","retrieval","new_objects","109","Domino.jpg","37","1","685"
"20","20","retrieval","new_objects","110","Ferret.jpg","37","1","709"
"20","20","retrieval","old_objects","111","Ship_Model.jpg","36","1","722"
"20","20","retrieval","old_objects","112","WaterGun.jpg","36","1","753"
"20","20","retrieval","new_objects","113","Stool_Metal.jpg","37","1","705"
"20","20","retrieval","old_objects","114","Mask_VenetianCat.jpg","36","1","717"
"20","20","retrieval","new_objects","115","Mitt_Oven.jpg","37","1","709"
"20","20","retrieval","new_objects","116","Egg_Chocolate.jpg","37","1","689"
"20","20","retrieval","new_objects","117","Yarmulke.jpg","37","1","601"
"20","20","retrieval","new_objects","118","Blanket.jpg","37","1","633"
"20","20","retrieval","new_objects","119","Instrument_African.jpg","37","1","977"
"20","20","retrieval","new_objects","120","Crutches.jpg","37","1","757"
"20","20","retrieval","old_objects","121","Light_Traffic.jpg","36","1","773"
"20","20","retrieval","new_objects","123","PumpBreast.jpg","37","1","917"
"20","20","retrieval","old_objects","124","Seal_Toy.jpg","36","1","749"
"20","20","retrieval","new_objects","125","Fortress.jpg","37","1","1033"
"20","20","retrieval","old_objects","126","Spatula.jpg","36","1","909"
"20","20","retrieval","old_objects","127","Jar_Honey.jpg","36","1","712"
"20","20","retrieval","new_objects","128","Sign_TrafficArrow.jpg","37","1","865"
"20","20","retrieval","old_objects","129","OnionRed.jpg","36","1","861"
"20","20","retrieval","old_objects","130","Clock_Radio.jpg","36","1","569"
"20","20","retrieval","new_objects","131","Stovetop.jpg","37","1","729"
"20","20","retrieval","new_objects","132","Strainer_Tea.jpg","37","1","873"
"20","20","retrieval","new_objects","133","Booth_Carnival.jpg","37","1","800"
"20","20","retrieval","new_objects","134","BicycleHandleGrip.jpg","37","1","1009"
"20","20","retrieval","old_objects","135","Snorkle.jpg","36","1","864"
"20","20","retrieval","new_objects","136","Helmet_Football.jpg","37","1","684"
"20","20","retrieval","old_objects","137","FireAlarm.jpg","36","1","1052"
"20","20","retrieval","new_objects","138","Bottle_Oil.jpg","37","1","1244"
"20","20","retrieval","new_objects","139","Bowl_Chopsticks.jpg","37","1","796"
"20","20","retrieval","old_objects","140","TreeHouse.jpg","36","1","900"
"20","20","retrieval","old_objects","141","Kiwi.jpg","36","1","832"
"20","20","retrieval","old_objects","142","Statue_Horse.jpg","36","1","796"
"20","20","retrieval","old_objects","143","RamAnimal.jpg","36","1","892"
"20","20","retrieval","new_objects","144","NetButterfly.jpg","37","1","1188"
"20","20","retrieval","new_objects","145","ButterDish.jpg","37","1","848"
"20","20","retrieval","new_objects","146","Toy_Lizard.jpg","37","1","584"
"20","20","retrieval","new_objects","147","EspressoMachine.jpg","37","1","820"
"20","20","retrieval","old_objects","148","LeatherPuncherTool.jpg","36","1","728"
"20","20","retrieval","old_objects","149","Turtle.jpg","36","1","1632"
"20","20","retrieval","old_objects","150","BicycleWheelRusty.jpg","36","1","1132"
"20","20","retrieval","old_objects","151","FloppyDisk.jpg","36","1","716"
"20","20","retrieval","old_objects","152","Torpedo.jpg","37","0","812"
"20","20","retrieval","old_objects","153","Drill.jpg","36","1","1028"
"20","20","retrieval","new_objects","154","Sink_Kitchen.jpg","37","1","1232"
"20","20","retrieval","old_objects","155","Chimpanzee.jpg","36","1","915"
"20","20","retrieval","new_objects","156","CandyDispenser.jpg","37","1","876"
"20","20","retrieval","old_objects","157","CraneMachine.jpg","36","1","859"
"20","20","retrieval","old_objects","158","House_Wooden.jpg","36","1","1000"
"20","20","retrieval","new_objects","159","Buffalo.jpg","36","0","1376"
"20","20","retrieval","old_objects","160","PillBottle_Closed.jpg","36","1","739"
"20","20","retrieval","old_objects","161","Stick_Drum.jpg","36","1","903"
"20","20","retrieval","new_objects","162","CookieCutter_Bell.jpg","37","1","940"
"20","20","retrieval","new_objects","163","TissueBox.jpg","37","1","855"
"20","20","retrieval","new_objects","164","Hotdog_Weiner.jpg","37","1","851"
"20","20","retrieval","old_objects","165","Cup_Latte.jpg","36","1","763"
"20","20","retrieval","old_objects","166","StickyTack.jpg","37","0","1003"
"20","20","retrieval","new_objects","167","VinylRecord.jpg","37","1","787"
"20","20","retrieval","old_objects","168","Hat_Beret.jpg","36","1","767"
"20","20","retrieval","old_objects","169","Staples.jpg","36","1","551"
"20","20","retrieval","new_objects","170","Cane_Metal.jpg","37","1","727"
"20","20","retrieval","new_objects","171","Toblerone.jpg","37","1","695"
"20","20","retrieval","new_objects","172","Toy_Chameleon.jpg","37","1","691"
"20","20","retrieval","old_objects","173","AirCompressor.jpg","36","1","611"
"20","20","retrieval","old_objects","174","Notebook.jpg","36","1","875"
"20","20","retrieval","new_objects","175","Tray_Metal.jpg","37","1","787"
"20","20","retrieval","old_objects","176","Boombox.jpg","36","1","647"
"20","20","retrieval","old_objects","177","Spatula_1.jpg","36","1","647"
"20","20","retrieval","new_objects","178","NewspaperStack.jpg","37","1","767"
"20","20","retrieval","old_objects","179","Ship_Cruise.jpg","36","1","823"
"20","20","retrieval","old_objects","180","Toy_MrPotatoHeadjpg.jpg","36","1","683"
"20","20","retrieval","old_objects","181","TowerEiffel.jpg","36","1","515"
"20","20","retrieval","old_objects","182","Toy_Tractor_1.jpg","36","1","519"
"20","20","retrieval","old_objects","184","Toy_WinnieThePooh.jpg","36","1","886"
"20","20","retrieval","old_objects","185","CertificateFramed.jpg","36","1","679"
"20","20","retrieval","new_objects","186","PeriodicTable.jpg","37","1","775"
"20","20","retrieval","old_objects","187","Toy_DollOffice.jpg","36","1","679"
"20","20","retrieval","new_objects","188","Table_Poker.jpg","37","1","734"
"20","20","retrieval","old_objects","189","Bird_Eagle.jpg","36","1","679"
"20","20","retrieval","old_objects","190","OrigamiPaper.jpg","36","1","694"
"20","20","retrieval","new_objects","191","Gloves_Bicycle.jpg","36","0","698"
"20","20","retrieval","new_objects","192","Rope_Manila.jpg","37","1","983"
"20","20","retrieval","old_objects","193","Phone_Flip.jpg","36","1","674"
"20","20","retrieval","new_objects","194","SledgeHammer.jpg","37","1","834"
"20","20","retrieval","old_objects","195","Knife_Hunting.jpg","36","1","910"
"20","20","retrieval","old_objects","196","Boot_Rain.jpg","36","1","818"
"20","20","retrieval","old_objects","197","Bib.jpg","36","1","1038"
"20","20","retrieval","old_objects","198","Hat_Feather.jpg","36","1","782"
"20","20","retrieval","new_objects","199","Artichoke.jpg","37","1","834"
"20","20","retrieval","new_objects","200","Scooter.jpg","37","1","906"
"20","20","retrieval","new_objects","201","BumperCar.jpg","37","1","718"
"20","20","retrieval","old_objects","202","Sashimi.jpg","36","1","646"
"20","20","retrieval","new_objects","203","Chipmunk.jpg","37","1","806"
"20","20","retrieval","new_objects","204","ShoeLace_Flat.jpg","37","1","758"
"20","20","retrieval","new_objects","205","ChiliFlakes.jpg","37","1","662"
"20","20","retrieval","old_objects","206","Case_WoodenOrnate.jpg","36","1","810"
"20","20","retrieval","new_objects","207","Lens_ColourFilter.jpg","37","1","978"
"20","20","retrieval","old_objects","208","Hat_Baseball.jpg","36","1","918"
"20","20","retrieval","old_objects","209","Heater_Outdoor.jpg","36","1","1046"
"20","20","retrieval","old_objects","210","Fork_Regular.jpg","36","1","1022"
"20","20","retrieval","new_objects","211","Mug_Travel.jpg","37","1","818"
"20","20","retrieval","new_objects","212","Sandwich_Ham.jpg","37","1","958"
"20","20","retrieval","old_objects","213","Thermometer_Room.jpg","36","1","902"
"20","20","retrieval","old_objects","214","Nightstand.jpg","36","1","1265"
"20","20","retrieval","old_objects","215","GatedEntrance.jpg","36","1","693"
"20","20","retrieval","new_objects","216","Paddle_Ball.jpg","37","1","769"
"20","20","retrieval","new_objects","217","Bowl_Sugar.jpg","36","0","785"
"20","20","retrieval","new_objects","218","Toy_Firetruck.jpg","37","1","829"
"20","20","retrieval","new_objects","219","Nuts_Pecan.jpg","37","1","745"
"20","20","retrieval","old_objects","220","AmberWithMosquito.jpg","36","1","797"
"20","20","retrieval","new_objects","221","Steamer.jpg","37","1","917"
"20","20","retrieval","old_objects","222","Jar_Money.jpg","36","1","805"
"20","20","retrieval","new_objects","223","Pliers_ViceGrip.jpg","37","1","1093"
"20","20","retrieval","old_objects","224","Garbage_Can.jpg","36","1","677"
"20","20","retrieval","old_objects","225","Tag_Identifier.jpg","36","1","797"
"20","20","retrieval","new_objects","226","CandleSnuffer.jpg","36","0","917"
"20","20","retrieval","new_objects","227","Hat_Hard.jpg","37","1","781"
"20","20","retrieval","new_objects","228","Pretzel_Knot.jpg","37","1","713"
"20","20","retrieval","old_objects","229","Nuts_Peanuts.jpg","36","1","749"
"20","20","retrieval","old_objects","230","LightHouse.jpg","36","1","681"
"20","20","retrieval","new_objects","231","Bench_Black.jpg","37","1","873"
"20","20","retrieval","old_objects","232","Sign_OneWay.jpg","36","1","845"
"20","20","retrieval","old_objects","233","TestTube_Single.jpg","36","1","925"
"20","20","retrieval","new_objects","234","Pot_Cooking.jpg","37","1","781"
"20","20","retrieval","old_objects","235","PaintCan.jpg","36","1","737"
"20","20","retrieval","new_objects","236","Chair_Dining.jpg","37","1","869"
"20","20","retrieval","new_objects","237","Toy_ElephantPlastic.jpg","37","1","665"
"20","20","retrieval","old_objects","238","NailFiles.jpg","36","1","709"
"20","20","retrieval","new_objects","239","Mat_Door.jpg","37","1","849"
"20","20","retrieval","new_objects","240","House_Rural.jpg","37","1","873"
"20","20","retrieval","old_objects","241","Sign_Airport.jpg","37","0","716"
"20","20","retrieval","new_objects","242","RibbonSpool.jpg","37","1","909"
"20","20","retrieval","new_objects","243","Can_Olives.jpg","37","1","608"
"20","20","retrieval","old_objects","245","Cane_Wooden.jpg","36","1","908"
"20","20","retrieval","old_objects","246","Briefcase_Silver.jpg","36","1","704"
"20","20","retrieval","new_objects","247","Toy_DonkeyPlastic.jpg","36","0","876"
"20","20","retrieval","new_objects","248","ShinPads.jpg","37","1","820"
"20","20","retrieval","new_objects","249","Pacifier.jpg","37","1","816"
"20","20","retrieval","new_objects","250","Foam_Accoustic.jpg","37","1","692"
"20","20","retrieval","old_objects","251","Lighter_Yellow.jpg","36","1","732"
"20","20","retrieval","new_objects","252","PylonTraffic.jpg","37","1","748"
"20","20","retrieval","old_objects","253","SandBagThrowGame.jpg","36","1","968"
"20","20","retrieval","new_objects","254","Cantaloupe.jpg","37","1","1392"
"20","20","retrieval","new_objects","255","PickupTruck.jpg","37","1","668"
"20","20","retrieval","old_objects","256","LicensePlate.jpg","36","1","792"
"20","20","retrieval","new_objects","257","Pouch_Red.jpg","37","1","876"
"20","20","retrieval","new_objects","258","Comb.jpg","37","1","652"
"20","20","retrieval","old_objects","259","FireHydrant.jpg","36","1","748"
"20","20","retrieval","new_objects","260","Cake_Cheese.jpg","37","1","784"
"20","20","retrieval","old_objects","261","BicycleOdometer.jpg","36","1","740"
"20","20","retrieval","old_objects","262","Toy_TableSet.jpg","36","1","632"
"20","20","retrieval","new_objects","263","Bag_Toiletry.jpg","37","1","692"
"20","20","retrieval","new_objects","264","Clock_Grandfather.jpg","37","1","1120"
"20","20","retrieval","old_objects","265","Jetski.jpg","36","1","1008"
"20","20","retrieval","new_objects","266","Caterpillar.jpg","37","1","1240"
"20","20","retrieval","new_objects","267","PowerDoorPushButton.jpg","37","1","864"
"20","20","retrieval","old_objects","268","KitchenCloth.jpg","36","1","916"
"20","20","retrieval","new_objects","269","ComputerKeyboard.jpg","37","1","1027"
"20","20","retrieval","new_objects","270","Toy_TrailerAirport.jpg","37","1","703"
"20","20","retrieval","old_objects","271","Truck_Pickup.jpg","36","1","907"
"20","20","retrieval","old_objects","272","ChalkboardEraser.jpg","36","1","639"
"20","20","retrieval","old_objects","273","Brush_Makeup.jpg","36","1","591"
"20","20","retrieval","old_objects","274","Flask_Metal.jpg","36","1","515"
"20","20","retrieval","new_objects","275","ChocolateBar_HalfUnwrapped.jpg","37","1","819"
"20","20","retrieval","new_objects","276","Fridge.jpg","36","0","935"
"20","20","retrieval","old_objects","277","Stone_AncientWriting.jpg","36","1","971"
"20","20","retrieval","new_objects","278","Pillow_Plaid.jpg","37","1","867"
"20","20","retrieval","old_objects","279","CookieCutter_Tree.jpg","36","1","734"
"20","20","retrieval","old_objects","280","Swing_Porch.jpg","36","1","975"
"20","20","retrieval","old_objects","281","SpaceShuttle.jpg","36","1","663"
"20","20","retrieval","old_objects","282","Thermos_Decorated.jpg","36","1","699"
"20","20","retrieval","old_objects","283","Syrup_Maple.jpg","36","1","615"
"20","20","retrieval","old_objects","284","Pillow_Heart.jpg","36","1","931"
"20","20","retrieval","old_objects","285","Bowl_Pasta.jpg","36","1","819"
"20","20","retrieval","old_objects","286","Windmill_Building.jpg","36","1","767"
"20","20","retrieval","old_objects","287","Altar.jpg","36","1","687"
"20","20","retrieval","old_objects","288","Clothespin_Beige.jpg","36","1","719"
"20","20","retrieval","old_objects","289","HumanSkeleton.jpg","36","1","558"
"20","20","retrieval","new_objects","290","Kangaroo_WithJoey.jpg","37","1","927"
"20","20","retrieval","new_objects","291","Gum_Pack.jpg","37","1","735"
"20","20","retrieval","new_objects","292","GPS.jpg","37","1","1235"
"20","20","retrieval","old_objects","293","Boardgame_Chess.jpg","36","1","615"
"20","20","retrieval","old_objects","294","PhoneJack.jpg","36","1","647"
"20","20","retrieval","new_objects","295","Rake_Long.jpg","37","1","734"
"20","20","retrieval","old_objects","296","Tree_Fir.jpg","36","1","910"
"20","20","retrieval","new_objects","297","Stove_Portable.jpg","37","1","810"
"20","20","retrieval","old_objects","298","DogHouse.jpg","36","1","723"
"20","20","retrieval","new_objects","299","Leaf_Green.jpg","37","1","762"
"20","20","retrieval","new_objects","300","EyeChart.jpg","37","1","698"
"20","20","retrieval","old_objects","301","GranolaBar.jpg","36","1","758"
"20","20","retrieval","old_objects","302","Makeup_Foundation.jpg","36","1","670"
"20","20","retrieval","new_objects","303","HerbsInBag.jpg","37","1","810"
"20","20","retrieval","old_objects","304","Candy_GummyBear.jpg","36","1","754"
"20","20","retrieval","new_objects","306","Mirror_Handheld.jpg","37","1","1266"
"20","20","retrieval","old_objects","307","Fan_Blades.jpg","36","1","734"
"20","20","retrieval","new_objects","308","Camel_Dromedary.jpg","37","1","1290"
"20","20","retrieval","old_objects","309","KeyHook_Empty.jpg","36","1","786"
"20","20","retrieval","new_objects","310","StringBean.jpg","37","1","822"
"20","20","retrieval","old_objects","311","Hookah.jpg","36","1","930"
"20","20","retrieval","new_objects","312","Stamp.jpg","37","1","890"
"20","20","retrieval","old_objects","313","Puzzle_Piece.jpg","36","1","698"
"20","20","retrieval","new_objects","314","WateringCan_PlasticDarkGreen.jpg","37","1","830"
"20","20","retrieval","old_objects","315","InflatableSleepingBag.jpg","36","1","866"
"20","20","retrieval","old_objects","316","Paratrooper.jpg","36","1","822"
"20","20","retrieval","new_objects","317","Stool_Foot.jpg","37","1","778"
"20","20","retrieval","old_objects","318","Qtip_Multiple.jpg","36","1","702"
"20","20","retrieval","new_objects","319","Drink_Cocktail.jpg","37","1","890"
"20","20","retrieval","new_objects","320","Dresser.jpg","37","1","801"
"20","20","retrieval","old_objects","321","Wontons.jpg","36","1","834"
"20","20","retrieval","old_objects","322","Bench_Concrete.jpg","36","1","622"
"20","20","retrieval","old_objects","323","Tape_Dispenser.jpg","36","1","794"
"20","20","retrieval","new_objects","324","TelephoneSwitchboard.jpg","37","1","753"
"20","20","retrieval","new_objects","325","Scroll.jpg","37","1","1777"
"20","20","retrieval","old_objects","326","PostageStamps.jpg","36","1","741"
"20","20","retrieval","old_objects","327","Camel_Bactrian.jpg","37","0","705"
"20","20","retrieval","new_objects","328","MetalDetector.jpg","37","1","821"
"20","20","retrieval","old_objects","329","PencilCase.jpg","36","1","865"
"20","20","retrieval","new_objects","330","Stationary.jpg","37","1","1309"
"20","20","retrieval","old_objects","331","CanOpener.jpg","36","1","1265"
"20","20","retrieval","new_objects","332","DrillBit.jpg","37","1","1061"
"20","20","retrieval","new_objects","333","Fencing_HelmetSwords.jpg","37","1","1009"
"20","20","retrieval","old_objects","334","Box_FirstAid.jpg","36","1","889"
"20","20","retrieval","new_objects","335","Bucket_WoodenLight.jpg","0","0","2000"
"20","20","retrieval","old_objects","336","Pliers_SlipJoint.jpg","36","1","897"
"20","20","retrieval","new_objects","337","Box_Jewellery.jpg","36","0","973"
"20","20","retrieval","old_objects","338","Oneholepunch.jpg","36","1","621"
"20","20","retrieval","old_objects","339","Clave.jpg","36","1","633"
"20","20","retrieval","old_objects","340","HardDrive.jpg","36","1","597"
"20","20","retrieval","new_objects","341","Clothespin_Red.jpg","37","1","765"
"20","20","retrieval","old_objects","342","Wire_Soldering.jpg","36","1","685"
"20","20","retrieval","new_objects","343","Boots_KneeHigh.jpg","37","1","773"
"20","20","retrieval","new_objects","344","Ladder.jpg","37","1","793"
"20","20","retrieval","new_objects","345","Bottle_Specimen.jpg","37","1","737"
"20","20","retrieval","old_objects","346","Fruit_Cactus.jpg","36","1","1453"
"20","20","retrieval","new_objects","347","Hammer.jpg","0","0","2000"
"20","20","retrieval","old_objects","348","Switch_LightBlack.jpg","36","1","1177"
"20","20","retrieval","new_objects","349","Jacks.jpg","37","1","1437"
"20","20","retrieval","old_objects","350","DentistOverheadLight.jpg","36","1","844"
"20","20","retrieval","old_objects","351","Door_Blue.jpg","36","1","836"
"20","20","retrieval","new_objects","352","Toy_BlocksWoodenPlain.jpg","37","1","804"
"20","20","retrieval","old_objects","353","Table_Conference.jpg","36","1","764"
"20","20","retrieval","new_objects","354","Glass_Beer.jpg","37","1","844"
"20","20","retrieval","old_objects","355","Colander.jpg","36","1","1004"
"20","20","demographics_block","gender","1","Colander.jpg","male","1","13106"
"20","20","demographics_block","age","1","Colander.jpg","28","1","13106"
"20","20","demographics_block","education","1","Colander.jpg","12","1","13106"
"20","20","demographics_block","left_right_handed","2","Colander.jpg","Right","1","8026"
"20","20","demographics_block","raceoption1","2","Colander.jpg","0","1","8026"
"20","20","demographics_block","raceoption2","2","Colander.jpg","","1","8026"
"20","20","demographics_block","raceoption3","2","Colander.jpg","","1","8026"
"20","20","demographics_block","raceoption4","2","Colander.jpg","","1","8026"
"20","20","demographics_block","raceoption5","2","Colander.jpg","","1","8026"
"20","20","demographics_block","raceoption6","2","Colander.jpg","","1","8026"
"20","20","demographics_block","raceoption7","2","Colander.jpg","","1","8026"
"20","20","demographics_block","raceoption8","2","Colander.jpg","","1","8026"
"20","20","demographics_block","raceoption9","2","Colander.jpg","","1","8026"
"20","20","demographics_block","raceother","2","Colander.jpg","","1","8026"
"20","20","demographics_block","raceother","2","Colander.jpg","","1","8026"
"20","20","demographics_block","english_language","2","Colander.jpg","Yes","1","8026"
"20","20","demographics_block","english_languageother","2","Colander.jpg","","1","8026"
"20","20","demographics_block","eyesight","3","Colander.jpg","Yes","1","6038"
"20","20","demographics_block","colorblind","3","Colander.jpg","No","1","6038"
"20","20","worker_id_block","worker_id_textbox","1","Colander.jpg","A2ZDEERVRN5AMC","1","3894"
"23","23","encoding","encoding","1","Garbage_Can.jpg","36","0","1126"
"23","23","encoding","encoding","2","Bowl_Pasta.jpg","36","0","890"
"23","23","encoding","encoding","3","Pillow_Heart.jpg","37","0","1134"
"23","23","encoding","encoding","4","Thermometer_Room.jpg","36","0","1626"
"23","23","encoding","encoding","5","Mask_VenetianCat.jpg","0","0","2000"
"23","23","encoding","encoding","6","WaterFountain.jpg","36","0","1019"
"23","23","encoding","encoding","7","Goose_Canadian.jpg","37","0","855"
"23","23","encoding","encoding","8","PillBottle_Closed.jpg","36","0","971"
"23","23","encoding","encoding","9","Sign_OneWay.jpg","37","0","870"
"23","23","encoding","encoding","10","PaintCan.jpg","36","0","1354"
"23","23","encoding","encoding","11","Candy_GummyBear.jpg","36","0","902"
"23","23","encoding","encoding","12","House_Wooden.jpg","37","0","1322"
"23","23","encoding","encoding","13","Clam.jpg","37","0","1182"
"23","23","encoding","encoding","14","Dynamite.jpg","37","0","1306"
"23","23","encoding","encoding","15","Can_Gas.jpg","37","0","990"
"23","23","encoding","encoding","16","Guitar_Acoustic.jpg","36","0","586"
"23","23","encoding","encoding","17","Swing_Porch.jpg","37","0","1150"
"23","23","encoding","encoding","18","Drum_Tall.jpg","36","0","1179"
"23","23","encoding","encoding","19","Cane_Wooden.jpg","37","0","1456"
"23","23","encoding","encoding","20","Flask_Metal.jpg","36","0","955"
"23","23","encoding","encoding","21","Knife_Hunting.jpg","36","0","983"
"23","23","encoding","encoding","22","Pliers_SlipJoint.jpg","36","0","1323"
"23","23","encoding","encoding","23","Cat.jpg","37","0","1047"
"23","23","encoding","encoding","24","CookieCutter_Tree.jpg","37","0","1420"
"23","23","encoding","encoding","25","Nightstand.jpg","36","0","991"
"23","23","encoding","encoding","26","Cup_sippy.jpg","36","0","1050"
"23","23","encoding","encoding","27","Ship_Model.jpg","36","0","1151"
"23","23","encoding","encoding","28","SandBagThrowGame.jpg","37","0","1083"
"23","23","encoding","encoding","29","PostageStamps.jpg","36","0","1223"
"23","23","encoding","encoding","30","Light_Traffic.jpg","37","0","1083"
"23","23","encoding","encoding","31","Battery_Car.jpg","37","0","911"
"23","23","encoding","encoding","32","Basket_Firewood.jpg","0","0","2000"
"23","23","encoding","encoding","33","Birdhouse.jpg","37","0","823"
"23","23","encoding","encoding","34","TestTube_Single.jpg","37","0","851"
"23","23","encoding","encoding","35","Clothespin_Beige.jpg","36","0","822"
"23","23","encoding","encoding","36","Snorkle.jpg","37","0","1138"
"23","23","encoding","encoding","37","Stamper.jpg","37","0","998"
"23","23","encoding","encoding","38","Stapler_Regular.jpg","37","0","986"
"23","23","encoding","encoding","39","StickyTack.jpg","36","0","1142"
"23","23","encoding","encoding","40","GranolaBar.jpg","36","0","1026"
"23","23","encoding","encoding","41","Briefcase_Silver.jpg","36","0","686"
"23","23","encoding","encoding","42","DogHouse.jpg","37","0","970"
"23","23","encoding","encoding","43","Pepperoni.jpg","37","0","1246"
"23","23","encoding","encoding","44","Case_WoodenOrnate.jpg","36","0","1106"
"23","23","encoding","encoding","45","PanCooking.jpg","37","0","1269"
"23","23","encoding","encoding","46","InflatableSleepingBag.jpg","37","0","1018"
"23","23","encoding","encoding","47","PhoneJack.jpg","36","0","838"
"23","23","encoding","encoding","48","Kiwi.jpg","37","0","842"
"23","23","encoding","encoding","49","Paratrooper.jpg","36","0","1486"
"23","23","encoding","encoding","50","GatedEntrance.jpg","37","0","995"
"23","23","encoding","encoding","51","Clock_Interior.jpg","37","0","1262"
"23","23","encoding","encoding","52","SpaceShuttle.jpg","37","0","866"
"23","23","encoding","encoding","53","Toy_WinnieThePooh.jpg","37","0","846"
"23","23","encoding","encoding","54","Truck_Pickup.jpg","37","0","833"
"23","23","encoding","encoding","55","Fork_Regular.jpg","37","0","1093"
"23","23","encoding","encoding","56","Colander.jpg","36","0","1313"
"23","23","encoding","encoding","57","Syrup_Maple.jpg","36","0","982"
"23","23","encoding","encoding","58","DentistOverheadLight.jpg","36","0","1586"
"23","23","encoding","encoding","59","Lunchbox.jpg","36","0","870"
"23","23","encoding","encoding","60","Cup_Latte.jpg","36","0","1161"
"23","23","encoding","encoding","62","Hat_Beret.jpg","37","0","1219"
"23","23","encoding","encoding","63","Mailbox_Antique.jpg","37","0","982"
"23","23","encoding","encoding","64","Peach.jpg","37","0","1059"
"23","23","encoding","encoding","65","Tag_Identifier.jpg","36","0","910"
"23","23","encoding","encoding","66","Seal_Toy.jpg","0","0","2000"
"23","23","encoding","encoding","67","Bucket_Champagne.jpg","36","0","1487"
"23","23","encoding","encoding","68","Hat_Baseball.jpg","37","0","796"
"23","23","encoding","encoding","69","Oneholepunch.jpg","37","0","791"
"23","23","encoding","encoding","70","Phone_Flip.jpg","37","0","867"
"23","23","encoding","encoding","71","Thermos_Decorated.jpg","36","0","791"
"23","23","encoding","encoding","72","Makeup_Foundation.jpg","37","0","755"
"23","23","encoding","encoding","73","Stick_Drum.jpg","36","0","784"
"23","23","encoding","encoding","74","Shoe_Pink.jpg","37","0","971"
"23","23","encoding","encoding","75","Necklace_Pearl.jpg","37","0","647"
"23","23","encoding","encoding","76","Fruit_Cactus.jpg","37","0","1171"
"23","23","encoding","encoding","77","BicycleOdometer.jpg","36","0","751"
"23","23","encoding","encoding","78","TowerEiffel.jpg","37","0","819"
"23","23","encoding","encoding","79","Wire_Soldering.jpg","37","0","1423"
"23","23","encoding","encoding","80","Bell_Hand.jpg","36","0","1098"
"23","23","encoding","encoding","81","FloppyDisk.jpg","37","0","598"
"23","23","encoding","encoding","82","Cologne.jpg","37","0","524"
"23","23","encoding","encoding","83","Camel_Bactrian.jpg","37","0","1511"
"23","23","encoding","encoding","84","Glove_Baseball.jpg","37","0","691"
"23","23","encoding","encoding","85","TreeHouse.jpg","37","0","1383"
"23","23","encoding","encoding","86","LightHouse.jpg","0","0","2000"
"23","23","encoding","encoding","87","CertificateFramed.jpg","36","0","1095"
"23","23","encoding","encoding","88","Tree_Fir.jpg","36","0","1123"
"23","23","encoding","encoding","89","Toy_DollOffice.jpg","36","0","1353"
"23","23","encoding","encoding","90","Blueberry.jpg","37","0","987"
"23","23","encoding","encoding","91","Bird_Eagle.jpg","37","0","991"
"23","23","encoding","encoding","92","Bench_Concrete.jpg","36","0","1580"
"23","23","encoding","encoding","93","Jetski.jpg","37","0","719"
"23","23","encoding","encoding","94","Bench_Wooden.jpg","37","0","683"
"23","23","encoding","encoding","95","Drill.jpg","36","0","1351"
"23","23","encoding","encoding","96","RamAnimal.jpg","37","0","1187"
"23","23","encoding","encoding","97","Sign_Airport.jpg","37","0","670"
"23","23","encoding","encoding","98","Switch_LightBlack.jpg","36","0","730"
"23","23","encoding","encoding","99","Boot_Rain.jpg","37","0","782"
"23","23","encoding","encoding","100","MoneyBill50.jpg","37","0","802"
"23","23","encoding","encoding","101","ScannerShoplifting.jpg","37","0","974"
"23","23","encoding","encoding","102","Bib.jpg","37","0","882"
"23","23","encoding","encoding","103","Backpack_Suitcase.jpg","37","0","1047"
"23","23","encoding","encoding","104","Ship_Cruise.jpg","37","0","779"
"23","23","encoding","encoding","105","Chair_Car.jpg","36","0","799"
"23","23","encoding","encoding","106","Wontons.jpg","37","0","723"
"23","23","encoding","encoding","107","WaterGun.jpg","36","0","1351"
"23","23","encoding","encoding","108","Fan_Blades.jpg","37","0","995"
"23","23","encoding","encoding","109","Turtle.jpg","37","0","895"
"23","23","encoding","encoding","110","Qtip_Multiple.jpg","37","0","1204"
"23","23","encoding","encoding","111","NailFiles.jpg","36","0","1343"
"23","23","encoding","encoding","112","Boardgame_Chess.jpg","37","0","860"
"23","23","encoding","encoding","113","Socks_Winter.jpg","37","0","1088"
"23","23","encoding","encoding","114","LicensePlate.jpg","37","0","996"
"23","23","encoding","encoding","115","Notebook.jpg","37","0","1096"
"23","23","encoding","encoding","116","HumanSkeleton.jpg","37","0","964"
"23","23","encoding","encoding","117","OrigamiPaper.jpg","36","0","1073"
"23","23","encoding","encoding","118","BicycleWheelRusty.jpg","37","0","1412"
"23","23","encoding","encoding","119","Heater_Outdoor.jpg","37","0","1985"
"23","23","encoding","encoding","120","ChalkboardEraser.jpg","36","0","860"
"23","23","encoding","encoding","121","Pot_TurkishCoffee.jpg","36","0","912"
"23","23","encoding","encoding","123","HardDrive.jpg","36","0","991"
"23","23","encoding","encoding","124","Hat_Feather.jpg","36","0","827"
"23","23","encoding","encoding","125","Sashimi.jpg","36","0","1247"
"23","23","encoding","encoding","126","OnionRed.jpg","36","0","923"
"23","23","encoding","encoding","127","Brush_Makeup.jpg","37","0","968"
"23","23","encoding","encoding","128","Hook_Ceiling.jpg","37","0","1052"
"23","23","encoding","encoding","129","AmberWithMosquito.jpg","37","0","1520"
"23","23","encoding","encoding","130","Toy_DonkeyFur.jpg","36","0","748"
"23","23","encoding","encoding","131","Altar.jpg","36","0","1248"
"23","23","encoding","encoding","132","LeatherPuncherTool.jpg","36","0","763"
"23","23","encoding","encoding","133","CraneMachine.jpg","37","0","1209"
"23","23","encoding","encoding","134","Clave.jpg","36","0","1251"
"23","23","encoding","encoding","135","PortaPotty.jpg","37","0","968"
"23","23","encoding","encoding","136","Torpedo.jpg","37","0","795"
"23","23","encoding","encoding","137","Mirror_Dental.jpg","37","0","719"
"23","23","encoding","encoding","138","Jar_Money.jpg","0","0","2000"
"23","23","encoding","encoding","139","Mask_Buddhist.jpg","37","0","768"
"23","23","encoding","encoding","140","Boombox.jpg","0","0","2000"
"23","23","encoding","encoding","141","Toy_Tractor_1.jpg","36","0","8"
"23","23","encoding","encoding","142","Nuts_Peanuts.jpg","36","0","1020"
"23","23","encoding","encoding","143","Toy_TableSet.jpg","36","0","801"
"23","23","encoding","encoding","144","Spatula.jpg","37","0","1093"
"23","23","encoding","encoding","145","PencilCase.jpg","36","0","1313"
"23","23","encoding","encoding","146","AirCompressor.jpg","36","0","1212"
"23","23","encoding","encoding","147","Statue_Horse.jpg","36","0","1016"
"23","23","encoding","encoding","148","Clock_Radio.jpg","36","0","733"
"23","23","encoding","encoding","149","FireAlarm.jpg","37","0","1792"
"23","23","encoding","encoding","150","Toy_MrPotatoHeadjpg.jpg","36","0","828"
"23","23","encoding","encoding","151","Airplane_Small.jpg","37","0","1000"
"23","23","encoding","encoding","152","Candle_ChristmasDecor.jpg","37","0","717"
"23","23","encoding","encoding","153","Staples.jpg","37","0","489"
"23","23","encoding","encoding","154","CanOpener.jpg","36","0","877"
"23","23","encoding","encoding","155","Wardrobe.jpg","36","0","865"
"23","23","encoding","encoding","156","BikiniTop.jpg","36","0","629"
"23","23","encoding","encoding","157","Box_FirstAid.jpg","37","0","801"
"23","23","encoding","encoding","158","Puzzle_Piece.jpg","36","0","637"
"23","23","encoding","encoding","159","Flower_Orchid.jpg","36","0","601"
"23","23","encoding","encoding","160","Pear_Green.jpg","37","0","557"
"23","23","encoding","encoding","161","ThreeHolePunch.jpg","36","0","562"
"23","23","encoding","encoding","162","Stone_AncientWriting.jpg","37","0","741"
"23","23","encoding","encoding","163","Tape_Dispenser.jpg","37","0","1440"
"23","23","encoding","encoding","164","FireHydrant.jpg","37","0","1044"
"23","23","encoding","encoding","165","KitchenCloth.jpg","36","0","793"
"23","23","encoding","encoding","166","Keychain_Leather.jpg","36","0","965"
"23","23","encoding","encoding","167","ShoeLace_Round.jpg","36","0","953"
"23","23","encoding","encoding","168","Table_Conference.jpg","37","0","1101"
"23","23","encoding","encoding","169","KeyHook_Empty.jpg","36","0","841"
"23","23","encoding","encoding","170","Hookah.jpg","36","0","813"
"23","23","encoding","encoding","171","Door_Blue.jpg","37","0","1008"
"23","23","encoding","encoding","172","Lighter_Yellow.jpg","37","0","733"
"23","23","encoding","encoding","173","Chimpanzee.jpg","37","0","992"
"23","23","encoding","encoding","174","Windmill_Building.jpg","36","0","1300"
"23","23","encoding","encoding","175","Waffle.jpg","36","0","1712"
"23","23","encoding","encoding","176","Spatula_1.jpg","36","0","932"
"23","23","encoding","encoding","177","Jar_Honey.jpg","37","0","832"
"23","23","retrieval","new_objects","1","Helmet_Football.jpg","36","0","1449"
"23","23","retrieval","old_objects","2","Kiwi.jpg","36","1","1030"
"23","23","retrieval","old_objects","3","KeyHook_Empty.jpg","36","1","1015"
"23","23","retrieval","new_objects","4","Scroll.jpg","37","1","1000"
"23","23","retrieval","old_objects","5","DentistOverheadLight.jpg","36","1","1362"
"23","23","retrieval","new_objects","6","Generator.jpg","36","0","955"
"23","23","retrieval","old_objects","7","OrigamiPaper.jpg","37","0","1024"
"23","23","retrieval","new_objects","8","BicycleHandleGrip.jpg","37","1","1290"
"23","23","retrieval","old_objects","9","Stapler_Regular.jpg","36","1","829"
"23","23","retrieval","old_objects","10","Toy_Tractor_1.jpg","36","1","927"
"23","23","retrieval","new_objects","11","GPS.jpg","37","1","1492"
"23","23","retrieval","old_objects","12","Clave.jpg","37","0","1200"
"23","23","retrieval","old_objects","13","BicycleOdometer.jpg","37","0","801"
"23","23","retrieval","new_objects","14","Toy_RobotClassic.jpg","36","0","1060"
"23","23","retrieval","old_objects","15","Nightstand.jpg","36","1","1523"
"23","23","retrieval","old_objects","16","Qtip_Multiple.jpg","36","1","790"
"23","23","retrieval","new_objects","17","Scooter.jpg","37","1","905"
"23","23","retrieval","old_objects","18","Ship_Cruise.jpg","37","0","1504"
"23","23","retrieval","new_objects","19","Olives.jpg","36","0","1091"
"23","23","retrieval","old_objects","20","Pot_TurkishCoffee.jpg","36","1","1113"
"23","23","retrieval","new_objects","21","Box_Jewellery.jpg","37","1","861"
"23","23","retrieval","old_objects","22","Shoe_Pink.jpg","37","0","1054"
"23","23","retrieval","new_objects","23","Cooler.jpg","36","0","1405"
"23","23","retrieval","old_objects","24","Sashimi.jpg","37","0","908"
"23","23","retrieval","old_objects","25","ChalkboardEraser.jpg","37","0","811"
"23","23","retrieval","old_objects","26","Pear_Green.jpg","36","1","958"
"23","23","retrieval","new_objects","27","Puffin.jpg","37","1","1193"
"23","23","retrieval","old_objects","28","Knife_Hunting.jpg","36","1","731"
"23","23","retrieval","new_objects","29","Hippopotamus.jpg","37","1","1177"
"23","23","retrieval","old_objects","30","Toy_TableSet.jpg","36","1","1476"
"23","23","retrieval","old_objects","31","Hat_Beret.jpg","37","0","1232"
"23","23","retrieval","old_objects","32","BicycleWheelRusty.jpg","36","1","1192"
"23","23","retrieval","new_objects","33","Tube_Paint.jpg","36","0","1056"
"23","23","retrieval","old_objects","34","Guitar_Acoustic.jpg","36","1","880"
"23","23","retrieval","old_objects","35","Wardrobe.jpg","36","1","648"
"23","23","retrieval","old_objects","36","Switch_LightBlack.jpg","36","1","1002"
"23","23","retrieval","old_objects","37","PostageStamps.jpg","36","1","1252"
"23","23","retrieval","new_objects","38","Jug_Wicker.jpg","37","1","938"
"23","23","retrieval","old_objects","39","Mask_VenetianCat.jpg","37","0","1368"
"23","23","retrieval","new_objects","40","Instrument_African.jpg","36","0","953"
"23","23","retrieval","new_objects","41","Squash_Butternut.jpg","36","0","668"
"23","23","retrieval","old_objects","42","Table_Conference.jpg","37","0","1038"
"23","23","retrieval","new_objects","43","ShinPads.jpg","36","0","1334"
"23","23","retrieval","new_objects","44","Bag_PaperWithFlour.jpg","36","0","816"
"23","23","retrieval","old_objects","45","Toy_DollOffice.jpg","36","1","1235"
"23","23","retrieval","old_objects","46","Door_Blue.jpg","37","0","1634"
"23","23","retrieval","old_objects","47","Candle_ChristmasDecor.jpg","0","0","2000"
"23","23","retrieval","old_objects","48","Swing_Porch.jpg","37","0","747"
"23","23","retrieval","old_objects","49","Hat_Feather.jpg","37","0","1609"
"23","23","retrieval","old_objects","50","Tape_Dispenser.jpg","36","1","1823"
"23","23","retrieval","new_objects","51","Kangaroo_WithJoey.jpg","36","0","1219"
"23","23","retrieval","new_objects","52","Pacifier.jpg","36","0","1355"
"23","23","retrieval","old_objects","53","House_Wooden.jpg","36","1","1949"
"23","23","retrieval","new_objects","54","Foam_Accoustic.jpg","36","0","1139"
"23","23","retrieval","new_objects","55","Toy_BlocksWoodenPlain.jpg","36","0","942"
"23","23","retrieval","new_objects","56","Leaf_Green.jpg","36","0","675"
"23","23","retrieval","new_objects","57","Stool_Metal.jpg","37","1","699"
"23","23","retrieval","new_objects","58","Guacamole.jpg","37","1","907"
"23","23","retrieval","new_objects","59","Mirror_Handheld.jpg","36","0","913"
"23","23","retrieval","new_objects","60","Toblerone.jpg","37","1","1359"
"23","23","retrieval","new_objects","62","Clothespin_Red.jpg","37","1","859"
"23","23","retrieval","new_objects","63","Mitt_Oven.jpg","36","0","827"
"23","23","retrieval","new_objects","64","Jacks.jpg","36","0","925"
"23","23","retrieval","old_objects","65","Cup_Latte.jpg","37","0","875"
"23","23","retrieval","old_objects","66","Clock_Radio.jpg","37","0","747"
