"group","subject","blockcode","trialcode","trialnum","values.stimulus","response","correct","latency"
"3","3","encoding","encoding","1","Box_Vials.jpg","37","0","1053"
"3","3","encoding","encoding","2","Bag_Camera.jpg","36","0","1365"
"3","3","encoding","encoding","3","Plum.jpg","37","0","1833"
"3","3","encoding","encoding","4","Staircase_Curving.jpg","36","0","1393"
"3","3","encoding","encoding","5","Blackboard.jpg","36","0","910"
"3","3","encoding","encoding","6","MatchBook.jpg","36","0","1417"
"3","3","encoding","encoding","7","Toy_Tank.jpg","36","0","889"
"3","3","encoding","encoding","8","Stool_Wood.jpg","36","0","1240"
"3","3","encoding","encoding","9","Car_Buggy.jpg","37","0","1166"
"3","3","encoding","encoding","10","Hockey_Equipment.jpg","36","0","1641"
"3","3","encoding","encoding","11","Pouch_PotPourri.jpg","36","0","1669"
"3","3","encoding","encoding","12","Umbrella_Retractable.jpg","37","0","1800"
"3","3","encoding","encoding","13","Brush_Windshield.jpg","36","0","1567"
"3","3","encoding","encoding","14","CarLighter.jpg","0","0","2000"
"3","3","encoding","encoding","15","CuttingBoard.jpg","36","0","1286"
"3","3","encoding","encoding","16","Hose_Garden.jpg","37","0","1231"
"3","3","encoding","encoding","17","Abacus.jpg","36","0","875"
"3","3","encoding","encoding","18","CasketOpen.jpg","36","0","1209"
"3","3","encoding","encoding","19","Knife_Camping.jpg","36","0","1193"
"3","3","encoding","encoding","20","Mask_HockeyGoalie.jpg","0","0","2000"
"3","3","encoding","encoding","21","HandRake.jpg","37","0","1065"
"3","3","encoding","encoding","22","JuicerCitrus.jpg","36","0","798"
"3","3","encoding","encoding","23","FlashlightHeadBand.jpg","37","0","1175"
"3","3","encoding","encoding","24","Shed.jpg","37","0","1017"
"3","3","encoding","encoding","25","Accordion.jpg","36","0","789"
"3","3","encoding","encoding","26","RAMchip.jpg","36","0","1415"
"3","3","encoding","encoding","27","IroningBoard.jpg","36","0","1345"
"3","3","encoding","encoding","28","Shoe_Highheel.jpg","36","0","1693"
"3","3","encoding","encoding","29","Bird_Budgie.jpg","37","0","1915"
"3","3","encoding","encoding","30","DryRack_Dishes.jpg","36","0","915"
"3","3","encoding","encoding","31","Stove_Propane.jpg","37","0","1185"
"3","3","encoding","encoding","32","Can_OilSpout.jpg","37","0","1161"
"3","3","encoding","encoding","33","HairScrunchie.jpg","36","0","777"
"3","3","encoding","encoding","34","Can_Oblong.jpg","36","0","1258"
"3","3","encoding","encoding","35","Toy_Babydoll.jpg","36","0","1870"
"3","3","encoding","encoding","36","Mallet.jpg","37","0","1397"
"3","3","encoding","encoding","37","Candy_Chocolate.jpg","36","0","914"
"3","3","encoding","encoding","38","Fence_Wooden.jpg","37","0","930"
"3","3","encoding","encoding","39","PropellerFan.jpg","37","0","1122"
"3","3","encoding","encoding","40","Toy_FigurineSwing.jpg","36","0","1014"
"3","3","encoding","encoding","41","CDstack.jpg","36","0","1224"
"3","3","encoding","encoding","42","Box_Cutlery.jpg","36","0","956"
"3","3","encoding","encoding","43","Acorn.jpg","37","0","851"
"3","3","encoding","encoding","44","Toilet.jpg","36","0","839"
"3","3","encoding","encoding","45","Compact_Powder.jpg","36","0","759"
"3","3","encoding","encoding","46","TurkeyDinner.jpg","36","0","796"
"3","3","encoding","encoding","47","Shark_GreatWhite.jpg","37","0","846"
"3","3","encoding","encoding","48","Decoration_ChristmasRed.jpg","36","0","891"
"3","3","encoding","encoding","49","Hat_Police.jpg","36","0","1309"
"3","3","encoding","encoding","50","Crowbar.jpg","37","0","1530"
"3","3","encoding","encoding","51","Garlic_Whole.jpg","37","0","1574"
"3","3","encoding","encoding","52","Chair_MedicalToilet.jpg","36","0","1247"
"3","3","encoding","encoding","53","Brace_Neck.jpg","36","0","1278"
"3","3","encoding","encoding","54","Flute_Tin.jpg","36","0","1888"
"3","3","encoding","encoding","55","Man.jpg","0","0","2000"
"3","3","encoding","encoding","56","Toy_BlocksMultiShape.jpg","36","0","978"
"3","3","encoding","encoding","57","Costume_Wizard.jpg","37","0","1345"
"3","3","encoding","encoding","58","Cleaver_Meat.jpg","36","0","920"
"3","3","encoding","encoding","59","Soap.jpg","36","0","1320"
"3","3","encoding","encoding","60","MechanicalSpring.jpg","36","0","1285"
"3","3","encoding","encoding","62","Scoop_IceCream.jpg","36","0","1271"
"3","3","encoding","encoding","63","PaperCutter.jpg","36","0","907"
"3","3","encoding","encoding","64","Honeydew_yellow.jpg","37","0","834"
"3","3","encoding","encoding","65","Cheese_Platter.jpg","36","0","1051"
"3","3","encoding","encoding","66","Box_Present.jpg","36","0","1183"
"3","3","encoding","encoding","67","Boardgame_ChineseCheckers.jpg","36","0","1042"
"3","3","encoding","encoding","68","CoolingFan_Engine2.jpg","36","0","1183"
"3","3","encoding","encoding","69","Gauge.jpg","36","0","1471"
"3","3","encoding","encoding","70","Plate_Children.jpg","36","0","1064"
"3","3","encoding","encoding","71","Drum_Set.jpg","36","0","956"
"3","3","encoding","encoding","72","Bed_ChildBirch.jpg","36","0","1548"
"3","3","encoding","encoding","73","Balcony.jpg","37","0","1374"
"3","3","encoding","encoding","74","TinChristmas.jpg","36","0","924"
"3","3","encoding","encoding","75","Hockey_Puck.jpg","36","0","1221"
"3","3","encoding","encoding","76","Boardgame_Checkers.jpg","36","0","944"
"3","3","encoding","encoding","77","BunsenBurner.jpg","36","0","1334"
"3","3","encoding","encoding","78","MilkPitcher.jpg","36","0","1289"
"3","3","encoding","encoding","79","MeterElectric.jpg","37","0","1015"
"3","3","encoding","encoding","80","Telephone_Dial.jpg","36","0","1042"
"3","3","encoding","encoding","81","AirTank.jpg","36","0","1267"
"3","3","encoding","encoding","82","Cork.jpg","36","0","1166"
"3","3","encoding","encoding","83","Sign_Open.jpg","37","0","1076"
"3","3","encoding","encoding","84","Hat_Sheriff.jpg","37","0","1375"
"3","3","encoding","encoding","85","Centrifuge.jpg","36","0","1029"
"3","3","encoding","encoding","86","Earring_Hoop.jpg","36","0","1161"
"3","3","encoding","encoding","87","Toy_Boat.jpg","36","0","847"
"3","3","encoding","encoding","88","Radio_Vintage.jpg","36","0","898"
"3","3","encoding","encoding","89","HotWaterBottle.jpg","36","0","859"
"3","3","encoding","encoding","90","Sign_Washroom.jpg","37","0","744"
"3","3","encoding","encoding","91","TortillaChip.jpg","36","0","898"
"3","3","encoding","encoding","92","LeafBlower.jpg","37","0","1077"
"3","3","encoding","encoding","93","CameoPortrait.jpg","36","0","851"
"3","3","encoding","encoding","94","GoldNugget.jpg","37","0","1063"
"3","3","encoding","encoding","95","SeatBuckle.jpg","36","0","1065"
"3","3","encoding","encoding","96","Cable_JumpStart.jpg","37","0","1061"
"3","3","encoding","encoding","97","Pipette.jpg","36","0","955"
"3","3","encoding","encoding","98","Wallet_ClosedBlack.jpg","36","0","1394"
"3","3","encoding","encoding","99","Flower_Rose.jpg","37","0","1210"
"3","3","encoding","encoding","100","Suspenders.jpg","36","0","1505"
"3","3","encoding","encoding","101","AirPump.jpg","36","0","1415"
"3","3","encoding","encoding","102","ContactLens.jpg","36","0","1518"
"3","3","encoding","encoding","103","Crib_Basket.jpg","36","0","1006"
"3","3","encoding","encoding","104","Gloves_Winter.jpg","37","0","787"
"3","3","encoding","encoding","105","Embosser.jpg","36","0","1033"
"3","3","encoding","encoding","106","Hook_Fish.jpg","37","0","1044"
"3","3","encoding","encoding","107","AirVent.jpg","36","0","839"
"3","3","encoding","encoding","108","DayPlanner.jpg","36","0","1015"
"3","3","encoding","encoding","109","Pipe_Pitch.jpg","36","0","1488"
"3","3","encoding","encoding","110","Decoration_WallOrnament.jpg","36","0","983"
"3","3","encoding","encoding","111","MemoPaperSpike.jpg","36","0","1037"
"3","3","encoding","encoding","112","Wallet_ClosedBrown.jpg","36","0","833"
"3","3","encoding","encoding","113","Chair_Bamboo.jpg","37","0","943"
"3","3","encoding","encoding","114","SmokeDetector.jpg","36","0","1150"
"3","3","encoding","encoding","115","DustPan.jpg","36","0","1211"
"3","3","encoding","encoding","116","Bicycle_Adult.jpg","37","0","943"
"3","3","encoding","encoding","117","Makeup_Bag.jpg","36","0","762"
"3","3","encoding","encoding","118","Box_GiftTopView.jpg","36","0","728"
"3","3","encoding","encoding","119","Bus_School.jpg","37","0","668"
"3","3","encoding","encoding","120","Box_Package.jpg","36","0","1359"
"3","3","encoding","encoding","121","Hoverboard.jpg","37","0","1052"
"3","3","encoding","encoding","123","Chair_Student.jpg","36","0","1182"
"3","3","encoding","encoding","124","Toy_Dog.jpg","36","0","745"
"3","3","encoding","encoding","125","Toy_RockingHorseBeige.jpg","36","0","1051"
"3","3","encoding","encoding","126","Qtip_Single.jpg","36","0","975"
"3","3","encoding","encoding","127","Flower_Sun.jpg","37","0","612"
"3","3","encoding","encoding","128","sign_traffic.jpg","37","0","670"
"3","3","encoding","encoding","129","OperaGlasses.jpg","37","0","1423"
"3","3","encoding","encoding","130","Oyster.jpg","37","0","921"
"3","3","encoding","encoding","131","WaterCooler.jpg","36","0","1208"
"3","3","encoding","encoding","132","Mousetrap.jpg","37","0","1129"
"3","3","encoding","encoding","133","Keg.jpg","37","0","1248"
"3","3","encoding","encoding","134","Skirt_Long.jpg","36","0","865"
"3","3","encoding","encoding","135","CoffeeLid.jpg","36","0","1413"
"3","3","encoding","encoding","136","ChainRusty.jpg","37","0","1011"
"3","3","encoding","encoding","137","Toy_LambPlushie.jpg","36","0","765"
"3","3","encoding","encoding","138","Lacrosse_Stick.jpg","36","0","1441"
"3","3","encoding","encoding","139","Toolbox_RedOpen.jpg","36","0","1591"
"3","3","encoding","encoding","140","PirateFlag.jpg","37","0","1145"
"3","3","encoding","encoding","141","Kebab_Meat.jpg","37","0","1121"
"3","3","encoding","encoding","142","Bread_Loaf.jpg","36","0","959"
"3","3","encoding","encoding","143","Mask_Viking.jpg","37","0","1363"
"3","3","encoding","encoding","144","DarthVader.jpg","37","0","1050"
"3","3","encoding","encoding","145","JukeboxAntique.jpg","36","0","1140"
"3","3","encoding","encoding","146","Honeydew_Green.jpg","37","0","1109"
"3","3","encoding","encoding","147","Hay.jpg","37","0","1291"
"3","3","encoding","encoding","148","Maraca.jpg","36","0","1134"
"3","3","encoding","encoding","149","Chair_Airplane.jpg","36","0","1713"
"3","3","encoding","encoding","150","Earth_Planet.jpg","37","0","1225"
"3","3","encoding","encoding","151","Chime.jpg","37","0","1416"
"3","3","encoding","encoding","152","PencilSharpener.jpg","36","0","1284"
"3","3","encoding","encoding","153","Cucumber.jpg","37","0","967"
"3","3","encoding","encoding","154","Bird_Hen.jpg","37","0","871"
"3","3","encoding","encoding","155","Stethoscope.jpg","36","0","1132"
"3","3","encoding","encoding","156","HoseNozzle.jpg","37","0","1149"
"3","3","encoding","encoding","157","Pricegun.jpg","36","0","1229"
"3","3","encoding","encoding","158","Basket_Plastic.jpg","36","0","990"
"3","3","encoding","encoding","159","Sculpture_MetalMan.jpg","36","0","1065"
"3","3","encoding","encoding","160","Stone_Spa.jpg","37","0","1271"
"3","3","encoding","encoding","161","Fan_Ceiling.jpg","36","0","979"
"3","3","encoding","encoding","162","Banana.jpg","36","0","1277"
"3","3","encoding","encoding","163","Catheter.jpg","36","0","1567"
"3","3","encoding","encoding","164","ChessPiece_Knight.jpg","36","0","907"
"3","3","encoding","encoding","165","Teardrop.jpg","37","0","956"
"3","3","encoding","encoding","166","Airplane_Fighter.jpg","37","0","1287"
"3","3","encoding","encoding","167","Glasses_Sun.jpg","0","0","2000"
"3","3","encoding","encoding","168","Spear.jpg","36","0","1048"
"3","3","encoding","encoding","169","TreeStump.jpg","37","0","1005"
"3","3","encoding","encoding","170","Telephone_Booth.jpg","37","0","846"
"3","3","encoding","encoding","171","Folder_Plastic.jpg","36","0","978"
"3","3","encoding","encoding","172","Helmet_Knight.jpg","37","0","808"
"3","3","encoding","encoding","173","Toy_Zebra.jpg","36","0","989"
"3","3","encoding","encoding","174","MannequinBust.jpg","36","0","834"
"3","3","encoding","encoding","175","Phone_Wireless.jpg","36","0","1116"
"3","3","encoding","encoding","176","Projector_Film.jpg","36","0","852"
"3","3","encoding","encoding","177","Freezer.jpg","36","0","996"
"3","3","retrieval","new_objects","1","Toy_BlocksLetter.jpg","37","1","1104"
"3","3","retrieval","new_objects","2","Bomb.jpg","37","1","1041"
"3","3","retrieval","old_objects","3","Toy_RockingHorseBeige.jpg","36","1","967"
"3","3","retrieval","new_objects","4","Bag_Computer.jpg","36","0","1294"
"3","3","retrieval","new_objects","5","Glass_bottle.jpg","37","1","878"
"3","3","retrieval","old_objects","6","Man.jpg","36","1","1152"
"3","3","retrieval","old_objects","7","Freezer.jpg","36","1","859"
"3","3","retrieval","old_objects","8","Mask_HockeyGoalie.jpg","37","0","946"
"3","3","retrieval","old_objects","9","Umbrella_Retractable.jpg","36","1","1024"
"3","3","retrieval","new_objects","10","Bells_Christmas.jpg","37","1","998"
"3","3","retrieval","old_objects","11","Box_Present.jpg","36","1","1161"
"3","3","retrieval","new_objects","12","Radish.jpg","36","0","1414"
"3","3","retrieval","new_objects","13","WalkieTalkie_Yellow.jpg","37","1","1234"
"3","3","retrieval","new_objects","14","Flower_Basket.jpg","37","1","1129"
"3","3","retrieval","new_objects","15","Bag_Gym.jpg","37","1","1280"
"3","3","retrieval","old_objects","16","Teardrop.jpg","36","1","931"
"3","3","retrieval","old_objects","17","Pricegun.jpg","36","1","967"
"3","3","retrieval","old_objects","18","Brace_Neck.jpg","36","1","837"
"3","3","retrieval","new_objects","19","Milkshake_StrawberryStraw.jpg","37","1","788"
"3","3","retrieval","old_objects","20","Box_Package.jpg","36","1","1005"
"3","3","retrieval","new_objects","21","ScrewDriver.jpg","37","1","1210"
"3","3","retrieval","new_objects","22","Clock_Wall.jpg","37","1","873"
"3","3","retrieval","new_objects","23","Shoes_Snowboarding.jpg","37","1","869"
"3","3","retrieval","new_objects","24","IceCream_Popsicle.jpg","37","1","724"
"3","3","retrieval","old_objects","25","Hose_Garden.jpg","36","1","694"
"3","3","retrieval","old_objects","26","Hook_Fish.jpg","36","1","660"
"3","3","retrieval","old_objects","27","Kebab_Meat.jpg","36","1","788"
"3","3","retrieval","new_objects","28","Crayon_Green.jpg","37","1","641"
"3","3","retrieval","old_objects","29","Toy_Tank.jpg","36","1","824"
"3","3","retrieval","old_objects","30","Bird_Budgie.jpg","36","1","824"
"3","3","retrieval","old_objects","31","Soap.jpg","36","1","1283"
"3","3","retrieval","old_objects","32","Toy_Babydoll.jpg","36","1","788"
"3","3","retrieval","new_objects","33","Switch_LightWhite.jpg","36","0","791"
"3","3","retrieval","old_objects","34","CuttingBoard.jpg","36","1","794"
"3","3","retrieval","new_objects","35","Watch.jpg","37","1","877"
"3","3","retrieval","old_objects","36","Accordion.jpg","36","1","802"
"3","3","retrieval","old_objects","37","Stool_Wood.jpg","36","1","789"
"3","3","retrieval","old_objects","38","Airplane_Fighter.jpg","36","1","987"
"3","3","retrieval","new_objects","39","Gecko.jpg","37","1","855"
"3","3","retrieval","new_objects","40","FlipFlop_SingleRed.jpg","37","1","576"
"3","3","retrieval","old_objects","41","Brush_Windshield.jpg","37","0","677"
"3","3","retrieval","new_objects","42","Broccoli.jpg","36","0","871"
"3","3","retrieval","old_objects","43","Fan_Ceiling.jpg","36","1","1063"
"3","3","retrieval","new_objects","44","Dart.jpg","37","1","1131"
"3","3","retrieval","old_objects","45","Cucumber.jpg","36","1","1062"
"3","3","retrieval","old_objects","46","Keg.jpg","36","1","933"
"3","3","retrieval","old_objects","47","Hay.jpg","36","1","762"
"3","3","retrieval","old_objects","48","Box_Cutlery.jpg","36","1","776"
"3","3","retrieval","new_objects","49","Toy_GasPump.jpg","37","1","1539"
"3","3","retrieval","new_objects","50","Steamroller.jpg","37","1","890"
"3","3","retrieval","old_objects","51","Mask_Viking.jpg","36","1","754"
"3","3","retrieval","new_objects","52","LifeJacket_BlueYellow.jpg","37","1","913"
"3","3","retrieval","old_objects","53","CasketOpen.jpg","36","1","829"
"3","3","retrieval","old_objects","54","Balcony.jpg","36","1","870"
"3","3","retrieval","old_objects","55","Honeydew_yellow.jpg","36","1","802"
"3","3","retrieval","new_objects","56","Dog_CockerSpaniel.jpg","37","1","625"
"3","3","retrieval","new_objects","57","Toy_Ladybug.jpg","37","1","713"
"3","3","retrieval","old_objects","58","Catheter.jpg","37","0","782"
"3","3","retrieval","new_objects","59","Can_Peas.jpg","37","1","833"
"3","3","retrieval","old_objects","60","Drum_Set.jpg","36","1","918"
"3","3","retrieval","old_objects","62","Basket_Plastic.jpg","36","1","922"
"3","3","retrieval","new_objects","63","Corn.jpg","37","1","947"
"3","3","retrieval","old_objects","64","Gauge.jpg","36","1","883"
"3","3","retrieval","old_objects","65","DayPlanner.jpg","36","1","1203"
"3","3","retrieval","old_objects","66","Car_Buggy.jpg","36","1","963"
"3","3","retrieval","new_objects","67","Screw.jpg","37","1","1041"
"3","3","retrieval","old_objects","68","Flower_Sun.jpg","36","1","677"
"3","3","retrieval","new_objects","69","Horn_Hunting.jpg","37","1","976"
"3","3","retrieval","new_objects","70","Sign_Caution.jpg","37","1","891"
"3","3","retrieval","old_objects","71","Compact_Powder.jpg","36","1","855"
"3","3","retrieval","new_objects","72","Piano_Upright.jpg","37","1","939"
"3","3","retrieval","old_objects","73","Folder_Plastic.jpg","36","1","813"
"3","3","retrieval","new_objects","74","Fish_Swordfish.jpg","37","1","917"
"3","3","retrieval","old_objects","75","Toy_Dog.jpg","36","1","950"
"3","3","retrieval","new_objects","76","Drum_Bongos.jpg","37","1","1166"
"3","3","retrieval","old_objects","77","Earring_Hoop.jpg","36","1","821"
"3","3","retrieval","old_objects","78","Box_Vials.jpg","37","0","1470"
"3","3","retrieval","new_objects","79","Sign_HumpBridgeAhead.jpg","37","1","1272"
"3","3","retrieval","new_objects","80","Drink_Green.jpg","36","0","744"
"3","3","retrieval","old_objects","81","Sign_Washroom.jpg","37","0","1201"
"3","3","retrieval","new_objects","82","TowelRack_Metal.jpg","37","1","1160"
"3","3","retrieval","old_objects","83","CarLighter.jpg","36","1","845"
"3","3","retrieval","new_objects","84","Gametable_AirHockey.jpg","37","1","1071"
"3","3","retrieval","old_objects","85","AirPump.jpg","37","0","1174"
"3","3","retrieval","old_objects","86","PencilSharpener.jpg","36","1","1025"
"3","3","retrieval","old_objects","87","Honeydew_Green.jpg","36","1","1134"
"3","3","retrieval","old_objects","88","ChessPiece_Knight.jpg","36","1","904"
"3","3","retrieval","old_objects","89","Plate_Children.jpg","36","1","1155"
"3","3","retrieval","old_objects","90","Bed_ChildBirch.jpg","36","1","896"
"3","3","retrieval","old_objects","91","Shoe_Highheel.jpg","36","1","941"
"3","3","retrieval","new_objects","92","PizzaCutter.jpg","37","1","843"
"3","3","retrieval","new_objects","93","DrinkShaker.jpg","37","1","1008"
"3","3","retrieval","new_objects","94","Fan_Straw.jpg","37","1","713"
"3","3","retrieval","old_objects","95","Toolbox_RedOpen.jpg","36","1","873"
"3","3","retrieval","old_objects","96","JukeboxAntique.jpg","36","1","889"
"3","3","retrieval","new_objects","97","NailPolish.jpg","37","1","809"
"3","3","retrieval","old_objects","98","ContactLens.jpg","36","1","822"
"3","3","retrieval","old_objects","99","Earth_Planet.jpg","36","1","830"
"3","3","retrieval","old_objects","100","Chime.jpg","36","1","895"
"3","3","retrieval","old_objects","101","Maraca.jpg","36","1","832"
"3","3","retrieval","old_objects","102","Projector_Film.jpg","36","1","767"
"3","3","retrieval","new_objects","103","MonkeyPuppet.jpg","37","1","853"
"3","3","retrieval","new_objects","104","Shield_Antique.jpg","37","1","1538"
"3","3","retrieval","new_objects","105","Toy_Octopus.jpg","37","1","1273"
"3","3","retrieval","old_objects","106","AirTank.jpg","36","1","845"
"3","3","retrieval","new_objects","107","Instrument_Guiro.jpg","37","1","935"
"3","3","retrieval","new_objects","108","Lei.jpg","37","1","776"
"3","3","retrieval","old_objects","109","Hat_Police.jpg","36","1","823"
"3","3","retrieval","old_objects","110","Skirt_Long.jpg","36","1","908"
"3","3","retrieval","old_objects","111","HandRake.jpg","36","1","889"
"3","3","retrieval","new_objects","112","Carousel.jpg","37","1","776"
"3","3","retrieval","new_objects","113","Notepad.jpg","37","1","937"
"3","3","retrieval","new_objects","114","PeasSplit.jpg","37","1","990"
"3","3","retrieval","new_objects","115","Exercise_HandTrainer.jpg","37","1","889"
"3","3","retrieval","old_objects","116","GoldNugget.jpg","36","1","797"
"3","3","retrieval","new_objects","117","RecorderInstrument.jpg","37","1","752"
"3","3","retrieval","old_objects","118","Plum.jpg","37","0","1598"
"3","3","retrieval","old_objects","119","DarthVader.jpg","37","0","815"
"3","3","retrieval","old_objects","120","FlashlightHeadBand.jpg","36","1","1288"
"3","3","retrieval","old_objects","121","Bag_Camera.jpg","36","1","979"
"3","3","retrieval","new_objects","123","Stapler_Gun.jpg","37","1","1029"
"3","3","retrieval","old_objects","124","Toilet.jpg","36","1","809"
"3","3","retrieval","old_objects","125","Hockey_Equipment.jpg","37","0","1136"
"3","3","retrieval","old_objects","126","Cork.jpg","36","1","950"
"3","3","retrieval","new_objects","127","Helmet_Construction.jpg","37","1","814"
"3","3","retrieval","old_objects","128","MeterElectric.jpg","36","1","930"
"3","3","retrieval","new_objects","129","SkiPoles.jpg","37","1","1003"
"3","3","retrieval","new_objects","130","Shoe_WomenHeals.jpg","37","1","1039"
"3","3","retrieval","old_objects","131","Scoop_IceCream.jpg","36","1","1013"
"3","3","retrieval","new_objects","132","ShakerShekere.jpg","37","1","1155"
"3","3","retrieval","new_objects","133","ChariotGold.jpg","37","1","997"
"3","3","retrieval","old_objects","134","Suspenders.jpg","36","1","889"
"3","3","retrieval","old_objects","135","Knife_Camping.jpg","36","1","940"
"3","3","retrieval","new_objects","136","Envelope_Letter.jpg","37","1","808"
"3","3","retrieval","old_objects","137","Centrifuge.jpg","36","1","1371"
"3","3","retrieval","new_objects","138","Chicken_FriedWing.jpg","37","1","1050"
"3","3","retrieval","new_objects","139","Lantern_Tea.jpg","37","1","1031"
"3","3","retrieval","new_objects","140","Honeycomb.jpg","37","1","810"
"3","3","retrieval","old_objects","141","Toy_BlocksMultiShape.jpg","36","1","865"
"3","3","retrieval","new_objects","142","Toad.jpg","37","1","1003"
"3","3","retrieval","old_objects","143","Stone_Spa.jpg","36","1","861"
"3","3","retrieval","new_objects","144","Cabinet_Office.jpg","37","1","1214"
"3","3","retrieval","old_objects","145","Bicycle_Adult.jpg","37","0","1074"
"3","3","retrieval","new_objects","146","Lectern.jpg","37","1","1069"
"3","3","retrieval","new_objects","147","Door_Green.jpg","37","1","977"
"3","3","retrieval","old_objects","148","DustPan.jpg","36","1","839"
"3","3","retrieval","old_objects","149","Cheese_Platter.jpg","36","1","1271"
"3","3","retrieval","new_objects","150","Oven.jpg","36","0","1263"
"3","3","retrieval","new_objects","151","Escalator.jpg","37","1","845"
"3","3","retrieval","old_objects","152","Toy_LambPlushie.jpg","36","1","1055"
"3","3","retrieval","old_objects","153","Decoration_ChristmasRed.jpg","36","1","1083"
"3","3","retrieval","new_objects","154","Tambourine.jpg","37","1","891"
"3","3","retrieval","new_objects","155","Shovel_Garden.jpg","37","1","1080"
"3","3","retrieval","new_objects","156","Toy_Lighthouse.jpg","37","1","885"
"3","3","retrieval","old_objects","157","HairScrunchie.jpg","36","1","945"
"3","3","retrieval","new_objects","158","Ball_Football.jpg","36","0","1061"
"3","3","retrieval","new_objects","159","Puzzle_Animal.jpg","37","1","820"
"3","3","retrieval","new_objects","160","Thermostat.jpg","37","1","1024"
"3","3","retrieval","old_objects","161","Spear.jpg","37","0","1260"
"3","3","retrieval","old_objects","162","Can_OilSpout.jpg","36","1","1227"
"3","3","retrieval","new_objects","163","Cannon.jpg","37","1","828"
"3","3","retrieval","old_objects","164","Shark_GreatWhite.jpg","36","1","825"
"3","3","retrieval","old_objects","165","Garlic_Whole.jpg","36","1","1051"
"3","3","retrieval","new_objects","166","Bottle_Spray.jpg","37","1","1098"
"3","3","retrieval","new_objects","167","PictureFrame.jpg","37","1","1094"
"3","3","retrieval","old_objects","168","Chair_Airplane.jpg","36","1","849"
"3","3","retrieval","old_objects","169","Glasses_Sun.jpg","36","1","921"
"3","3","retrieval","new_objects","170","Clock_Digital.jpg","37","1","817"
"3","3","retrieval","old_objects","171","Hockey_Puck.jpg","36","1","796"
"3","3","retrieval","old_objects","172","Cable_JumpStart.jpg","36","1","1067"
"3","3","retrieval","new_objects","173","WaterWell.jpg","37","1","1210"
"3","3","retrieval","old_objects","174","Chair_MedicalToilet.jpg","36","1","961"
"3","3","retrieval","new_objects","175","Shorts_Plaid.jpg","37","1","1117"
"3","3","retrieval","old_objects","176","Chair_Bamboo.jpg","36","1","804"
"3","3","retrieval","old_objects","177","Sign_Open.jpg","36","1","836"
"3","3","retrieval","new_objects","178","Cinnamonroll.jpg","37","1","966"
"3","3","retrieval","old_objects","179","Oyster.jpg","36","1","892"
"3","3","retrieval","old_objects","180","Bird_Hen.jpg","36","1","1164"
"3","3","retrieval","old_objects","181","Phone_Wireless.jpg","36","1","883"
"3","3","retrieval","old_objects","182","Pouch_PotPourri.jpg","36","1","879"
"3","3","retrieval","new_objects","184","Statue_ManHorse.jpg","37","1","1465"
"3","3","retrieval","old_objects","185","LeafBlower.jpg","36","1","1140"
"3","3","retrieval","new_objects","186","Noisemaker_Streamers.jpg","37","1","816"
"3","3","retrieval","new_objects","187","Broom_Short.jpg","37","1","869"
"3","3","retrieval","old_objects","188","Costume_Wizard.jpg","36","1","931"
"3","3","retrieval","new_objects","189","BowlingPin.jpg","37","1","831"
"3","3","retrieval","new_objects","190","Camera_ProfessionalFilm.jpg","37","1","1110"
"3","3","retrieval","old_objects","191","JuicerCitrus.jpg","36","1","870"
"3","3","retrieval","old_objects","192","Toy_FigurineSwing.jpg","36","1","1052"
"3","3","retrieval","new_objects","193","Toolbox_Red.jpg","37","1","1157"
"3","3","retrieval","new_objects","194","Chicken_Raw.jpg","37","1","940"
"3","3","retrieval","old_objects","195","Pipe_Pitch.jpg","36","1","809"
"3","3","retrieval","old_objects","196","WaterCooler.jpg","36","1","846"
"3","3","retrieval","old_objects","197","TortillaChip.jpg","36","1","963"
"3","3","retrieval","new_objects","198","Desk_Office.jpg","37","1","904"
"3","3","retrieval","old_objects","199","Pipette.jpg","36","1","934"
"3","3","retrieval","old_objects","200","CoolingFan_Engine2.jpg","36","1","850"
"3","3","retrieval","new_objects","201","Lollipop_Rainbow.jpg","37","1","733"
"3","3","retrieval","new_objects","202","Telephone_DialAntique.jpg","37","1","970"
"3","3","retrieval","new_objects","203","Weathervane.jpg","37","1","891"
"3","3","retrieval","new_objects","204","Mailbox_Community.jpg","36","0","800"
"3","3","retrieval","old_objects","205","Abacus.jpg","36","1","974"
"3","3","retrieval","new_objects","206","Brush_Shaving.jpg","37","1","1056"
"3","3","retrieval","old_objects","207","Telephone_Booth.jpg","36","1","997"
"3","3","retrieval","new_objects","208","Tetrahedron.jpg","37","1","797"
"3","3","retrieval","new_objects","209","Bottle_Wine.jpg","37","1","999"
"3","3","retrieval","new_objects","210","Scorpion.jpg","37","1","866"
"3","3","retrieval","old_objects","211","Hat_Sheriff.jpg","36","1","844"
"3","3","retrieval","new_objects","212","Light_PostIsolated.jpg","37","1","795"
"3","3","retrieval","old_objects","213","HoseNozzle.jpg","36","1","885"
"3","3","retrieval","old_objects","214","Candy_Chocolate.jpg","36","1","991"
"3","3","retrieval","new_objects","215","Almond.jpg","37","1","897"
"3","3","retrieval","new_objects","216","Toy_DollHomeMade.jpg","36","0","664"
"3","3","retrieval","new_objects","217","BicycleChain.jpg","36","0","1003"
"3","3","retrieval","new_objects","218","Toaster_Antique.jpg","37","1","1721"
"3","3","retrieval","new_objects","219","Monitor.jpg","37","1","868"
"3","3","retrieval","new_objects","220","SaltShaker.jpg","37","1","851"
"3","3","retrieval","old_objects","221","PaperCutter.jpg","36","1","828"
"3","3","retrieval","new_objects","222","Awning.jpg","37","1","1071"
"3","3","retrieval","old_objects","223","Wallet_ClosedBlack.jpg","36","1","796"
"3","3","retrieval","new_objects","224","Doll_Rag.jpg","37","1","890"
"3","3","retrieval","new_objects","225","Tickets_Blank.jpg","37","1","773"
"3","3","retrieval","new_objects","226","Machine_Arm.jpg","37","1","916"
"3","3","retrieval","old_objects","227","RAMchip.jpg","36","1","822"
"3","3","retrieval","old_objects","228","Bread_Loaf.jpg","36","1","933"
"3","3","retrieval","new_objects","229","Slide.jpg","37","1","860"
"3","3","retrieval","new_objects","230","Table_AntiqueWooden.jpg","37","1","985"
"3","3","retrieval","new_objects","231","Bag_Doctor.jpg","37","1","1008"
"3","3","retrieval","old_objects","232","Makeup_Bag.jpg","36","1","898"
"3","3","retrieval","new_objects","233","Level.jpg","37","1","1221"
"3","3","retrieval","old_objects","234","Wallet_ClosedBrown.jpg","36","1","769"
"3","3","retrieval","old_objects","235","Mousetrap.jpg","36","1","908"
"3","3","retrieval","old_objects","236","MemoPaperSpike.jpg","36","1","1008"
"3","3","retrieval","old_objects","237","Boardgame_ChineseCheckers.jpg","36","1","780"
"3","3","retrieval","new_objects","238","Flute_Wooden.jpg","37","1","1002"
"3","3","retrieval","old_objects","239","Decoration_WallOrnament.jpg","36","1","920"
"3","3","retrieval","new_objects","240","Lock_Bike.jpg","37","1","1074"
"3","3","retrieval","new_objects","241","SculptureMetalFish.jpg","37","1","859"
"3","3","retrieval","old_objects","242","Stove_Propane.jpg","36","1","878"
"3","3","retrieval","old_objects","243","Toy_Boat.jpg","36","1","1225"
"3","3","retrieval","old_objects","245","MannequinBust.jpg","36","1","1056"
"3","3","retrieval","old_objects","246","Toy_Zebra.jpg","37","0","1181"
"3","3","retrieval","new_objects","247","PillBottle_Prescription.jpg","37","1","764"
"3","3","retrieval","old_objects","248","Sculpture_MetalMan.jpg","36","1","1081"
"3","3","retrieval","new_objects","249","SkullDeer.jpg","37","1","770"
"3","3","retrieval","old_objects","250","Bus_School.jpg","36","1","1207"
"3","3","retrieval","old_objects","251","Banana.jpg","36","1","1006"
"3","3","retrieval","old_objects","252","TreeStump.jpg","36","1","879"
"3","3","retrieval","old_objects","253","Shed.jpg","36","1","784"
"3","3","retrieval","old_objects","254","Gloves_Winter.jpg","36","1","741"
"3","3","retrieval","old_objects","255","Flute_Tin.jpg","36","1","886"
"3","3","retrieval","old_objects","256","Cleaver_Meat.jpg","36","1","1218"
"3","3","retrieval","old_objects","257","PirateFlag.jpg","36","1","932"
"3","3","retrieval","new_objects","258","Briefcase_Open.jpg","37","1","1215"
"3","3","retrieval","old_objects","259","MatchBook.jpg","36","1","883"
"3","3","retrieval","new_objects","260","ShoppingCart.jpg","37","1","844"
"3","3","retrieval","old_objects","261","Flower_Rose.jpg","36","1","790"
"3","3","retrieval","old_objects","262","Staircase_Curving.jpg","36","1","842"
"3","3","retrieval","old_objects","263","Helmet_Knight.jpg","36","1","852"
"3","3","retrieval","new_objects","264","LampPost_WhiteOrnate.jpg","37","1","685"
"3","3","retrieval","new_objects","265","Bandage_Adhesive.jpg","37","1","621"
"3","3","retrieval","new_objects","266","Leaf_Yellow.jpg","37","1","822"
"3","3","retrieval","new_objects","267","Platter_Vegetables.jpg","37","1","1352"
"3","3","retrieval","new_objects","268","Owl.jpg","37","1","1017"
"3","3","retrieval","new_objects","269","Archery_Arrows.jpg","37","1","802"
"3","3","retrieval","new_objects","270","PatioHeater.jpg","37","1","837"
"3","3","retrieval","new_objects","271","CoinRolls.jpg","37","1","901"
"3","3","retrieval","new_objects","272","Loofa.jpg","37","1","781"
"3","3","retrieval","new_objects","273","Table_Side.jpg","37","1","1044"
"3","3","retrieval","old_objects","274","TinChristmas.jpg","36","1","871"
"3","3","retrieval","new_objects","275","Toy_RockingHorseBlack.jpg","36","0","1086"
"3","3","retrieval","new_objects","276","Pancakes.jpg","37","1","1073"
"3","3","retrieval","new_objects","277","Bowl_Fruits.jpg","37","1","1004"
"3","3","retrieval","old_objects","278","sign_traffic.jpg","36","1","846"
"3","3","retrieval","old_objects","279","DryRack_Dishes.jpg","36","1","1138"
"3","3","retrieval","old_objects","280","SeatBuckle.jpg","36","1","837"
"3","3","retrieval","old_objects","281","CDstack.jpg","36","1","889"
"3","3","retrieval","new_objects","282","Grill_Electric.jpg","37","1","1067"
"3","3","retrieval","new_objects","283","Spoons_MeasuringDetached.jpg","37","1","1107"
"3","3","retrieval","new_objects","284","Lens_Camera.jpg","37","1","900"
"3","3","retrieval","new_objects","285","Lilypad.jpg","37","1","973"
"3","3","retrieval","new_objects","286","Statue_Buddha.jpg","37","1","866"
"3","3","retrieval","old_objects","287","AirVent.jpg","36","1","842"
"3","3","retrieval","new_objects","288","Golf_Club.jpg","37","1","839"
"3","3","retrieval","old_objects","289","MilkPitcher.jpg","37","0","855"
"3","3","retrieval","old_objects","290","Fence_Wooden.jpg","36","1","837"
"3","3","retrieval","old_objects","291","BunsenBurner.jpg","36","1","1076"
"3","3","retrieval","new_objects","292","Airplane_Commercial.jpg","36","0","1040"
"3","3","retrieval","old_objects","293","Blackboard.jpg","37","0","1292"
"3","3","retrieval","new_objects","294","Diode.jpg","37","1","1100"
"3","3","retrieval","old_objects","295","TurkeyDinner.jpg","36","1","992"
"3","3","retrieval","old_objects","296","ChainRusty.jpg","36","1","875"
"3","3","retrieval","new_objects","297","Deodorant.jpg","37","1","1090"
"3","3","retrieval","old_objects","298","Chair_Student.jpg","36","1","1020"
"3","3","retrieval","new_objects","299","Shoes_Mould.jpg","37","1","885"
"3","3","retrieval","old_objects","300","HotWaterBottle.jpg","36","1","821"
"3","3","retrieval","new_objects","301","Cheesegrater_Handheld.jpg","37","1","861"
"3","3","retrieval","new_objects","302","Ball_Bowling.jpg","37","1","845"
"3","3","retrieval","new_objects","303","Lantern_Chinese.jpg","37","1","867"
"3","3","retrieval","old_objects","304","Crib_Basket.jpg","36","1","719"
"3","3","retrieval","new_objects","306","Shirt_SportsJersey.jpg","37","1","885"
"3","3","retrieval","new_objects","307","Otoscope.jpg","37","1","1123"
"3","3","retrieval","new_objects","308","MovieSlate.jpg","37","1","867"
"3","3","retrieval","new_objects","309","PassionFruit.jpg","37","1","1089"
"3","3","retrieval","old_objects","310","PropellerFan.jpg","36","1","803"
"3","3","retrieval","new_objects","311","DoorKnob.jpg","36","0","968"
"3","3","retrieval","old_objects","312","OperaGlasses.jpg","36","1","1105"
"3","3","retrieval","new_objects","313","Ruler_Wooden.jpg","37","1","740"
"3","3","retrieval","old_objects","314","Boardgame_Checkers.jpg","37","0","1464"
"3","3","retrieval","old_objects","315","Crowbar.jpg","36","1","1114"
"3","3","retrieval","new_objects","316","Clip_Paper.jpg","37","1","783"
"3","3","retrieval","old_objects","317","Mallet.jpg","36","1","918"
"3","3","retrieval","old_objects","318","Box_GiftTopView.jpg","37","0","1070"
"3","3","retrieval","new_objects","319","Brush_Toilet.jpg","37","1","1040"
"3","3","retrieval","old_objects","320","Can_Oblong.jpg","36","1","812"
"3","3","retrieval","new_objects","321","Crib_Standard.jpg","37","1","1358"
"3","3","retrieval","new_objects","322","Sieve_TopView.jpg","37","1","1069"
"3","3","retrieval","old_objects","323","CoffeeLid.jpg","37","0","1211"
"3","3","retrieval","new_objects","324","Stick_Bridge.jpg","37","1","1189"
"3","3","retrieval","old_objects","325","IroningBoard.jpg","36","1","801"
"3","3","retrieval","old_objects","326","MechanicalSpring.jpg","36","1","946"
"3","3","retrieval","new_objects","327","Lock_Door.jpg","36","0","1282"
"3","3","retrieval","old_objects","328","Radio_Vintage.jpg","36","1","771"
"3","3","retrieval","old_objects","329","CameoPortrait.jpg","36","1","887"
"3","3","retrieval","old_objects","330","SmokeDetector.jpg","37","0","791"
"3","3","retrieval","new_objects","331","DrawingCompass.jpg","37","1","980"
"3","3","retrieval","new_objects","332","Toolbox_Old.jpg","37","1","967"
"3","3","retrieval","new_objects","333","Clamp_Screw.jpg","37","1","864"
"3","3","retrieval","new_objects","334","Cord_Ethernet.jpg","37","1","1026"
"3","3","retrieval","new_objects","335","BookShelf.jpg","37","1","814"
"3","3","retrieval","old_objects","336","Hoverboard.jpg","36","1","1133"
"3","3","retrieval","new_objects","337","Toy_BearBrownPlushie.jpg","37","1","838"
"3","3","retrieval","old_objects","338","Acorn.jpg","36","1","792"
"3","3","retrieval","new_objects","339","Card_Deck.jpg","37","1","857"
"3","3","retrieval","old_objects","340","Stethoscope.jpg","36","1","1049"
"3","3","retrieval","new_objects","341","ComputerMouse.jpg","37","1","1081"
"3","3","retrieval","old_objects","342","Qtip_Single.jpg","36","1","1006"
"3","3","retrieval","new_objects","343","DrinkingFountain.jpg","37","1","878"
"3","3","retrieval","new_objects","344","Rock_Agate.jpg","37","1","1042"
"3","3","retrieval","old_objects","345","Lacrosse_Stick.jpg","36","1","1076"
"3","3","retrieval","old_objects","346","Embosser.jpg","36","1","949"
"3","3","retrieval","new_objects","347","SatelliteDish.jpg","37","1","1000"
"3","3","retrieval","new_objects","348","TelescopeSpacecraft.jpg","37","1","1160"
"3","3","retrieval","new_objects","349","Snake_Cobra.jpg","37","1","880"
"3","3","retrieval","new_objects","350","Ruler_Metal.jpg","37","1","938"
"3","3","retrieval","new_objects","351","Nail.jpg","37","1","863"
"3","3","retrieval","old_objects","352","Telephone_Dial.jpg","36","1","761"
"3","3","retrieval","new_objects","353","KiddiePool.jpg","37","1","753"
"3","3","retrieval","new_objects","354","Dress_Party.jpg","37","1","874"
"3","3","retrieval","new_objects","355","Umbrella_Classic.jpg","37","1","1262"
"3","3","demographics_block","gender","1","Umbrella_Classic.jpg","female","1","15473"
"3","3","demographics_block","age","1","Umbrella_Classic.jpg","60","1","15473"
"3","3","demographics_block","education","1","Umbrella_Classic.jpg","16","1","15473"
"3","3","demographics_block","left_right_handed","2","Umbrella_Classic.jpg","Right","1","7900"
"3","3","demographics_block","raceoption1","2","Umbrella_Classic.jpg","0","1","7900"
"3","3","demographics_block","raceoption2","2","Umbrella_Classic.jpg","","1","7900"
"3","3","demographics_block","raceoption3","2","Umbrella_Classic.jpg","","1","7900"
"3","3","demographics_block","raceoption4","2","Umbrella_Classic.jpg","","1","7900"
"3","3","demographics_block","raceoption5","2","Umbrella_Classic.jpg","","1","7900"
"3","3","demographics_block","raceoption6","2","Umbrella_Classic.jpg","","1","7900"
"3","3","demographics_block","raceoption7","2","Umbrella_Classic.jpg","","1","7900"
"3","3","demographics_block","raceoption8","2","Umbrella_Classic.jpg","","1","7900"
"3","3","demographics_block","raceoption9","2","Umbrella_Classic.jpg","","1","7900"
"3","3","demographics_block","raceother","2","Umbrella_Classic.jpg","","1","7900"
"3","3","demographics_block","raceother","2","Umbrella_Classic.jpg","","1","7900"
"3","3","demographics_block","english_language","2","Umbrella_Classic.jpg","Yes","1","7900"
"3","3","demographics_block","english_languageother","2","Umbrella_Classic.jpg","","1","7900"
"3","3","demographics_block","eyesight","3","Umbrella_Classic.jpg","Yes","1","7611"
"3","3","demographics_block","colorblind","3","Umbrella_Classic.jpg","No","1","7611"
"3","3","worker_id_block","worker_id_textbox","1","Umbrella_Classic.jpg","A2OFWHV8IP7HK","1","4824"
"7","7","encoding","encoding","1","Stone_Spa.jpg","36","0","801"
"7","7","encoding","encoding","2","Toy_RockingHorseBeige.jpg","36","0","940"
"7","7","encoding","encoding","3","Cable_JumpStart.jpg","36","0","1822"
"7","7","encoding","encoding","4","Toy_BlocksMultiShape.jpg","36","0","1436"
"7","7","encoding","encoding","5","Centrifuge.jpg","0","0","2000"
"7","7","encoding","encoding","6","TreeStump.jpg","37","0","981"
"7","7","encoding","encoding","7","Mask_Viking.jpg","36","0","956"
"7","7","encoding","encoding","8","Lacrosse_Stick.jpg","37","0","1406"
"7","7","encoding","encoding","9","Qtip_Single.jpg","36","0","926"
"7","7","encoding","encoding","10","Staircase_Curving.jpg","36","0","1143"
"7","7","encoding","encoding","11","Plum.jpg","36","0","1696"
"7","7","encoding","encoding","12","Oyster.jpg","36","0","1836"
"7","7","encoding","encoding","13","Folder_Plastic.jpg","36","0","1239"
"7","7","encoding","encoding","14","MechanicalSpring.jpg","36","0","1628"
"7","7","encoding","encoding","15","JuicerCitrus.jpg","36","0","956"
"7","7","encoding","encoding","16","Hay.jpg","37","0","1118"
"7","7","encoding","encoding","17","Freezer.jpg","36","0","960"
"7","7","encoding","encoding","18","HotWaterBottle.jpg","36","0","820"
"7","7","encoding","encoding","19","Toilet.jpg","36","0","857"
"7","7","encoding","encoding","20","Stool_Wood.jpg","36","0","741"
"7","7","encoding","encoding","21","PirateFlag.jpg","37","0","1266"
"7","7","encoding","encoding","22","HandRake.jpg","37","0","741"
"7","7","encoding","encoding","23","Box_Present.jpg","36","0","780"
"7","7","encoding","encoding","24","Embosser.jpg","36","0","1191"
"7","7","encoding","encoding","25","Bed_ChildBirch.jpg","37","0","1295"
"7","7","encoding","encoding","26","Toy_Tank.jpg","36","0","1236"
"7","7","encoding","encoding","27","DarthVader.jpg","36","0","737"
"7","7","encoding","encoding","28","Toy_Dog.jpg","36","0","684"
"7","7","encoding","encoding","29","Mallet.jpg","36","0","1108"
"7","7","encoding","encoding","30","CarLighter.jpg","36","0","996"
"7","7","encoding","encoding","31","Acorn.jpg","36","0","1437"
"7","7","encoding","encoding","32","Pouch_PotPourri.jpg","36","0","861"
"7","7","encoding","encoding","33","Toy_LambPlushie.jpg","36","0","711"
"7","7","encoding","encoding","34","Soap.jpg","37","0","985"
"7","7","encoding","encoding","35","Glasses_Sun.jpg","36","0","1227"
"7","7","encoding","encoding","36","Can_OilSpout.jpg","37","0","1157"
"7","7","encoding","encoding","37","Hat_Sheriff.jpg","36","0","1186"
"7","7","encoding","encoding","38","Airplane_Fighter.jpg","37","0","966"
"7","7","encoding","encoding","39","Box_Cutlery.jpg","36","0","1187"
"7","7","encoding","encoding","40","HoseNozzle.jpg","37","0","983"
"7","7","encoding","encoding","41","Knife_Camping.jpg","36","0","1281"
"7","7","encoding","encoding","42","DayPlanner.jpg","36","0","700"
"7","7","encoding","encoding","43","ContactLens.jpg","36","0","1715"
"7","7","encoding","encoding","44","Pipe_Pitch.jpg","37","0","1574"
"7","7","encoding","encoding","45","Toy_Babydoll.jpg","37","0","1924"
"7","7","encoding","encoding","46","Umbrella_Retractable.jpg","37","0","1454"
"7","7","encoding","encoding","47","Toy_Zebra.jpg","36","0","1649"
"7","7","encoding","encoding","48","Pipette.jpg","36","0","1962"
"7","7","encoding","encoding","49","Bird_Hen.jpg","36","0","657"
"7","7","encoding","encoding","50","Bag_Camera.jpg","36","0","1161"
"7","7","encoding","encoding","51","Maraca.jpg","36","0","1600"
"7","7","encoding","encoding","52","Sculpture_MetalMan.jpg","36","0","1612"
"7","7","encoding","encoding","53","Bread_Loaf.jpg","36","0","1313"
"7","7","encoding","encoding","54","MannequinBust.jpg","36","0","1616"
"7","7","encoding","encoding","55","Banana.jpg","36","0","1241"
"7","7","encoding","encoding","56","Catheter.jpg","36","0","1090"
"7","7","encoding","encoding","57","CDstack.jpg","36","0","982"
"7","7","encoding","encoding","58","JukeboxAntique.jpg","37","0","1176"
"7","7","encoding","encoding","59","Radio_Vintage.jpg","36","0","1229"
"7","7","encoding","encoding","60","Pricegun.jpg","0","0","2000"
"7","7","encoding","encoding","62","TurkeyDinner.jpg","37","0","1745"
"7","7","encoding","encoding","63","SeatBuckle.jpg","37","0","1569"
"7","7","encoding","encoding","64","PencilSharpener.jpg","36","0","1187"
"7","7","encoding","encoding","65","Decoration_ChristmasRed.jpg","37","0","1492"
"7","7","encoding","encoding","66","Toy_Boat.jpg","37","0","1490"
"7","7","encoding","encoding","67","Spear.jpg","36","0","1528"
"7","7","encoding","encoding","68","Cucumber.jpg","36","0","1736"
"7","7","encoding","encoding","69","Flute_Tin.jpg","36","0","1267"
"7","7","encoding","encoding","70","Box_Vials.jpg","36","0","979"
"7","7","encoding","encoding","71","MeterElectric.jpg","0","0","2000"
"7","7","encoding","encoding","72","ChainRusty.jpg","0","0","2000"
"7","7","encoding","encoding","73","Compact_Powder.jpg","36","0","1209"
"7","7","encoding","encoding","74","Boardgame_Checkers.jpg","36","0","1069"
"7","7","encoding","encoding","75","CameoPortrait.jpg","36","0","1417"
"7","7","encoding","encoding","76","Fence_Wooden.jpg","37","0","1147"
"7","7","encoding","encoding","77","IroningBoard.jpg","36","0","1570"
"7","7","encoding","encoding","78","Earring_Hoop.jpg","36","0","1635"
"7","7","encoding","encoding","79","Shark_GreatWhite.jpg","37","0","1141"
"7","7","encoding","encoding","80","Keg.jpg","37","0","1330"
"7","7","encoding","encoding","81","CasketOpen.jpg","0","0","2000"
"7","7","encoding","encoding","82","Can_Oblong.jpg","37","0","1325"
"7","7","encoding","encoding","83","Drum_Set.jpg","36","0","846"
"7","7","encoding","encoding","84","Projector_Film.jpg","37","0","721"
"7","7","encoding","encoding","85","Basket_Plastic.jpg","36","0","687"
"7","7","encoding","encoding","86","Kebab_Meat.jpg","37","0","1303"
"7","7","encoding","encoding","87","Toy_FigurineSwing.jpg","36","0","978"
"7","7","encoding","encoding","88","Fan_Ceiling.jpg","36","0","1172"
"7","7","encoding","encoding","89","Gauge.jpg","36","0","258"
"7","7","encoding","encoding","90","Flower_Rose.jpg","37","0","1234"
"7","7","encoding","encoding","91","Hat_Police.jpg","36","0","1512"
"7","7","encoding","encoding","92","Suspenders.jpg","36","0","1007"
"7","7","encoding","encoding","93","Wallet_ClosedBrown.jpg","36","0","1165"
"7","7","encoding","encoding","94","WaterCooler.jpg","36","0","1246"
"7","7","encoding","encoding","95","Hook_Fish.jpg","37","0","1704"
"7","7","encoding","encoding","96","Helmet_Knight.jpg","37","0","1111"
"7","7","encoding","encoding","97","Shed.jpg","37","0","1202"
"7","7","encoding","encoding","98","Cheese_Platter.jpg","36","0","1639"
"7","7","encoding","encoding","99","Earth_Planet.jpg","37","0","1193"
"7","7","encoding","encoding","100","Chime.jpg","0","0","2000"
"7","7","encoding","encoding","101","FlashlightHeadBand.jpg","37","0","1114"
"7","7","encoding","encoding","102","DryRack_Dishes.jpg","37","0","792"
"7","7","encoding","encoding","103","Decoration_WallOrnament.jpg","37","0","1032"
"7","7","encoding","encoding","104","Honeydew_Green.jpg","37","0","1362"
"7","7","encoding","encoding","105","Bus_School.jpg","37","0","1118"
"7","7","encoding","encoding","106","Hoverboard.jpg","36","0","1497"
"7","7","encoding","encoding","107","HairScrunchie.jpg","36","0","1535"
"7","7","encoding","encoding","108","Cork.jpg","36","0","1683"
"7","7","encoding","encoding","109","Brush_Windshield.jpg","36","0","1310"
"7","7","encoding","encoding","110","Hockey_Puck.jpg","36","0","782"
"7","7","encoding","encoding","111","CoolingFan_Engine2.jpg","37","0","909"
"7","7","encoding","encoding","112","MatchBook.jpg","37","0","1016"
"7","7","encoding","encoding","113","Chair_MedicalToilet.jpg","37","0","1263"
"7","7","encoding","encoding","114","Hockey_Equipment.jpg","37","0","1201"
"7","7","encoding","encoding","115","AirTank.jpg","37","0","1057"
"7","7","encoding","encoding","116","Bird_Budgie.jpg","37","0","1134"
"7","7","encoding","encoding","117","MilkPitcher.jpg","36","0","1106"
"7","7","encoding","encoding","118","Toolbox_RedOpen.jpg","37","0","1610"
"7","7","encoding","encoding","119","MemoPaperSpike.jpg","36","0","1854"
"7","7","encoding","encoding","120","Boardgame_ChineseCheckers.jpg","36","0","882"
"7","7","encoding","encoding","121","Stethoscope.jpg","37","0","1446"
"7","7","encoding","encoding","123","GoldNugget.jpg","0","0","2000"
"7","7","encoding","encoding","124","sign_traffic.jpg","37","0","1280"
"7","7","encoding","encoding","125","CuttingBoard.jpg","37","0","1645"
"7","7","encoding","encoding","126","CoffeeLid.jpg","37","0","1009"
"7","7","encoding","encoding","127","Garlic_Whole.jpg","36","0","1345"
"7","7","encoding","encoding","128","ChessPiece_Knight.jpg","36","0","1497"
"7","7","encoding","encoding","129","Shoe_Highheel.jpg","36","0","1052"
"7","7","encoding","encoding","130","TortillaChip.jpg","36","0","1277"
"7","7","encoding","encoding","131","Balcony.jpg","37","0","947"
"7","7","encoding","encoding","132","Gloves_Winter.jpg","37","0","1011"
"7","7","encoding","encoding","133","RAMchip.jpg","36","0","1160"
"7","7","encoding","encoding","134","Cleaver_Meat.jpg","36","0","1398"
"7","7","encoding","encoding","135","Scoop_IceCream.jpg","37","0","1038"
"7","7","encoding","encoding","136","Sign_Washroom.jpg","37","0","712"
"7","7","encoding","encoding","137","OperaGlasses.jpg","36","0","1188"
"7","7","encoding","encoding","138","Blackboard.jpg","36","0","907"
"7","7","encoding","encoding","139","LeafBlower.jpg","37","0","1465"
"7","7","encoding","encoding","140","Telephone_Dial.jpg","36","0","920"
"7","7","encoding","encoding","141","Chair_Student.jpg","36","0","928"
"7","7","encoding","encoding","142","Box_GiftTopView.jpg","36","0","1041"
"7","7","encoding","encoding","143","Costume_Wizard.jpg","36","0","1038"
"7","7","encoding","encoding","144","Sign_Open.jpg","37","0","1150"
"7","7","encoding","encoding","145","Stove_Propane.jpg","37","0","1558"
"7","7","encoding","encoding","146","Candy_Chocolate.jpg","37","0","1466"
"7","7","encoding","encoding","147","PropellerFan.jpg","37","0","1340"
"7","7","encoding","encoding","148","AirVent.jpg","37","0","1420"
"7","7","encoding","encoding","149","Hose_Garden.jpg","37","0","846"
"7","7","encoding","encoding","150","Car_Buggy.jpg","37","0","819"
"7","7","encoding","encoding","151","Honeydew_yellow.jpg","36","0","1058"
"7","7","encoding","encoding","152","Teardrop.jpg","37","0","1171"
"7","7","encoding","encoding","153","Abacus.jpg","36","0","1747"
"7","7","encoding","encoding","154","Brace_Neck.jpg","36","0","902"
"7","7","encoding","encoding","155","Mask_HockeyGoalie.jpg","36","0","1204"
"7","7","encoding","encoding","156","Flower_Sun.jpg","37","0","840"
"7","7","encoding","encoding","157","SmokeDetector.jpg","36","0","1761"
"7","7","encoding","encoding","158","Wallet_ClosedBlack.jpg","36","0","884"
"7","7","encoding","encoding","159","Crib_Basket.jpg","36","0","1221"
"7","7","encoding","encoding","160","Telephone_Booth.jpg","37","0","1045"
"7","7","encoding","encoding","161","Chair_Bamboo.jpg","36","0","1736"
"7","7","encoding","encoding","162","BunsenBurner.jpg","0","0","2000"
"7","7","encoding","encoding","163","Makeup_Bag.jpg","36","0","944"
"7","7","encoding","encoding","164","PaperCutter.jpg","37","0","1439"
"7","7","encoding","encoding","165","TinChristmas.jpg","36","0","1330"
"7","7","encoding","encoding","166","Man.jpg","36","0","1563"
"7","7","encoding","encoding","167","Chair_Airplane.jpg","36","0","1579"
"7","7","encoding","encoding","168","Accordion.jpg","36","0","1117"
"7","7","encoding","encoding","169","Box_Package.jpg","36","0","1879"
"7","7","encoding","encoding","170","Skirt_Long.jpg","36","0","863"
"7","7","encoding","encoding","171","Phone_Wireless.jpg","36","0","952"
"7","7","encoding","encoding","172","Bicycle_Adult.jpg","37","0","1045"
"7","7","encoding","encoding","173","Plate_Children.jpg","36","0","1141"
"7","7","encoding","encoding","174","Crowbar.jpg","37","0","1552"
"7","7","encoding","encoding","175","Mousetrap.jpg","37","0","1526"
"7","7","encoding","encoding","176","AirPump.jpg","37","0","936"
"7","7","encoding","encoding","177","DustPan.jpg","37","0","854"
"7","7","retrieval","new_objects","1","Mailbox_Community.jpg","37","1","1761"
"7","7","retrieval","old_objects","2","Hockey_Equipment.jpg","36","1","1112"
"7","7","retrieval","old_objects","3","Stethoscope.jpg","36","1","888"
"7","7","retrieval","new_objects","4","Radish.jpg","37","1","1075"
"7","7","retrieval","new_objects","5","Desk_Office.jpg","37","1","968"
"7","7","retrieval","new_objects","6","Fish_Swordfish.jpg","37","1","916"
"7","7","retrieval","new_objects","7","Bag_Gym.jpg","37","1","948"
"7","7","retrieval","new_objects","8","Cheesegrater_Handheld.jpg","37","1","1001"
"7","7","retrieval","old_objects","9","Stove_Propane.jpg","36","1","869"
"7","7","retrieval","old_objects","10","LeafBlower.jpg","36","1","661"
"7","7","retrieval","old_objects","11","MeterElectric.jpg","37","0","946"
"7","7","retrieval","old_objects","12","Box_Cutlery.jpg","36","1","937"
"7","7","retrieval","new_objects","13","SaltShaker.jpg","37","1","929"
"7","7","retrieval","old_objects","14","Bird_Hen.jpg","36","1","840"
"7","7","retrieval","new_objects","15","Clamp_Screw.jpg","36","0","825"
"7","7","retrieval","old_objects","16","JuicerCitrus.jpg","36","1","888"
"7","7","retrieval","new_objects","17","Lantern_Tea.jpg","37","1","899"
"7","7","retrieval","old_objects","18","Helmet_Knight.jpg","36","1","749"
"7","7","retrieval","old_objects","19","Radio_Vintage.jpg","36","1","638"
"7","7","retrieval","old_objects","20","Mousetrap.jpg","36","1","876"
"7","7","retrieval","new_objects","21","Can_Peas.jpg","37","1","738"
"7","7","retrieval","new_objects","22","Card_Deck.jpg","37","1","808"
"7","7","retrieval","new_objects","23","Diode.jpg","37","1","715"
"7","7","retrieval","old_objects","24","Cheese_Platter.jpg","37","0","908"
"7","7","retrieval","old_objects","25","Chime.jpg","36","1","868"
"7","7","retrieval","old_objects","26","sign_traffic.jpg","0","0","2000"
"7","7","retrieval","old_objects","27","Bag_Camera.jpg","36","1","1238"
"7","7","retrieval","old_objects","28","Candy_Chocolate.jpg","36","1","822"
"7","7","retrieval","old_objects","29","Toilet.jpg","36","1","634"
"7","7","retrieval","old_objects","30","Shoe_Highheel.jpg","36","1","634"
"7","7","retrieval","new_objects","31","Statue_ManHorse.jpg","36","0","663"
"7","7","retrieval","new_objects","32","Stick_Bridge.jpg","36","0","1236"
"7","7","retrieval","old_objects","33","ChessPiece_Knight.jpg","36","1","767"
"7","7","retrieval","new_objects","34","Drink_Green.jpg","37","1","733"
"7","7","retrieval","old_objects","35","Bicycle_Adult.jpg","36","1","679"
"7","7","retrieval","new_objects","36","Weathervane.jpg","37","1","978"
"7","7","retrieval","old_objects","37","Bus_School.jpg","36","1","768"
"7","7","retrieval","new_objects","38","WaterWell.jpg","37","1","916"
"7","7","retrieval","new_objects","39","Broom_Short.jpg","36","0","890"
"7","7","retrieval","new_objects","40","Lantern_Chinese.jpg","37","1","977"
"7","7","retrieval","new_objects","41","Lectern.jpg","37","1","796"
"7","7","retrieval","new_objects","42","PassionFruit.jpg","36","0","963"
"7","7","retrieval","new_objects","43","Bells_Christmas.jpg","37","1","860"
"7","7","retrieval","old_objects","44","HotWaterBottle.jpg","36","1","745"
"7","7","retrieval","new_objects","45","DrawingCompass.jpg","36","0","697"
"7","7","retrieval","old_objects","46","GoldNugget.jpg","36","1","810"
"7","7","retrieval","new_objects","47","Table_Side.jpg","37","1","906"
"7","7","retrieval","new_objects","48","Doll_Rag.jpg","37","1","835"
"7","7","retrieval","old_objects","49","Compact_Powder.jpg","37","0","1318"
"7","7","retrieval","new_objects","50","Lock_Door.jpg","37","1","1387"
"7","7","retrieval","new_objects","51","BookShelf.jpg","37","1","1242"
"7","7","retrieval","new_objects","52","IceCream_Popsicle.jpg","37","1","951"
"7","7","retrieval","new_objects","53","PizzaCutter.jpg","37","1","754"
"7","7","retrieval","old_objects","54","CoolingFan_Engine2.jpg","36","1","894"
"7","7","retrieval","new_objects","55","Toy_BlocksLetter.jpg","37","1","795"
"7","7","retrieval","new_objects","56","Shoe_WomenHeals.jpg","36","0","816"
"7","7","retrieval","old_objects","57","Shed.jpg","36","1","1027"
"7","7","retrieval","old_objects","58","AirTank.jpg","36","1","1296"
"7","7","retrieval","new_objects","59","LampPost_WhiteOrnate.jpg","37","1","977"
"7","7","retrieval","new_objects","60","Horn_Hunting.jpg","36","0","841"
"7","7","retrieval","old_objects","62","Pipe_Pitch.jpg","37","0","868"
"7","7","retrieval","new_objects","63","Bottle_Wine.jpg","37","1","1009"
"7","7","retrieval","old_objects","64","Fan_Ceiling.jpg","36","1","780"
"7","7","retrieval","new_objects","65","Almond.jpg","36","0","1109"
"7","7","retrieval","old_objects","66","DustPan.jpg","36","1","697"
"7","7","retrieval","old_objects","67","Lacrosse_Stick.jpg","36","1","1016"
"7","7","retrieval","new_objects","68","Nail.jpg","37","1","1097"
"7","7","retrieval","new_objects","69","Screw.jpg","37","1","737"
"7","7","retrieval","new_objects","70","Brush_Shaving.jpg","37","1","1056"
"7","7","retrieval","old_objects","71","Man.jpg","36","1","736"
"7","7","retrieval","new_objects","72","Statue_Buddha.jpg","36","0","643"
"7","7","retrieval","new_objects","73","Stapler_Gun.jpg","36","0","925"
"7","7","retrieval","old_objects","74","DarthVader.jpg","36","1","670"
"7","7","retrieval","old_objects","75","Skirt_Long.jpg","36","1","644"
"7","7","retrieval","new_objects","76","Toy_Lighthouse.jpg","37","1","722"
"7","7","retrieval","new_objects","77","Toaster_Antique.jpg","37","1","1351"
"7","7","retrieval","old_objects","78","Toy_FigurineSwing.jpg","36","1","779"
"7","7","retrieval","new_objects","79","Sieve_TopView.jpg","36","0","839"
"7","7","retrieval","new_objects","80","BowlingPin.jpg","37","1","769"
"7","7","retrieval","old_objects","81","Chair_Airplane.jpg","36","1","1114"
"7","7","retrieval","old_objects","82","MannequinBust.jpg","36","1","636"
"7","7","retrieval","old_objects","83","TurkeyDinner.jpg","36","1","585"
"7","7","retrieval","new_objects","84","Chicken_Raw.jpg","37","1","795"
"7","7","retrieval","new_objects","85","Envelope_Letter.jpg","37","1","763"
"7","7","retrieval","old_objects","86","Bed_ChildBirch.jpg","36","1","794"
"7","7","retrieval","old_objects","87","Pipette.jpg","36","1","1725"
"7","7","retrieval","old_objects","88","AirPump.jpg","37","0","1143"
"7","7","retrieval","new_objects","89","Honeycomb.jpg","37","1","669"
"7","7","retrieval","old_objects","90","Can_OilSpout.jpg","36","1","760"
"7","7","retrieval","old_objects","91","Cork.jpg","36","1","699"
"7","7","retrieval","new_objects","92","Thermostat.jpg","37","1","839"
"7","7","retrieval","old_objects","93","Wallet_ClosedBlack.jpg","37","0","939"
"7","7","retrieval","new_objects","94","Crayon_Green.jpg","36","0","1179"
"7","7","retrieval","new_objects","95","Cord_Ethernet.jpg","37","1","1540"
"7","7","retrieval","new_objects","96","Steamroller.jpg","37","1","725"
"7","7","retrieval","new_objects","97","Shoes_Snowboarding.jpg","37","1","510"
"7","7","retrieval","old_objects","98","CasketOpen.jpg","36","1","985"
"7","7","retrieval","new_objects","99","Briefcase_Open.jpg","37","1","947"
"7","7","retrieval","old_objects","100","Hook_Fish.jpg","36","1","1317"
"7","7","retrieval","new_objects","101","TowelRack_Metal.jpg","36","0","761"
"7","7","retrieval","new_objects","102","RecorderInstrument.jpg","36","0","945"
"7","7","retrieval","new_objects","103","Cannon.jpg","37","1","905"
"7","7","retrieval","new_objects","104","Broccoli.jpg","37","1","1255"
"7","7","retrieval","old_objects","105","RAMchip.jpg","36","1","868"
"7","7","retrieval","new_objects","106","Deodorant.jpg","37","1","849"
"7","7","retrieval","old_objects","107","Stool_Wood.jpg","36","1","829"
"7","7","retrieval","new_objects","108","Bag_Computer.jpg","36","0","891"
"7","7","retrieval","new_objects","109","NailPolish.jpg","36","0","851"
"7","7","retrieval","new_objects","110","Fan_Straw.jpg","37","1","825"
"7","7","retrieval","old_objects","111","Knife_Camping.jpg","37","0","847"
"7","7","retrieval","old_objects","112","Suspenders.jpg","37","0","1287"
"7","7","retrieval","new_objects","113","Ruler_Wooden.jpg","0","0","2000"
"7","7","retrieval","old_objects","114","Acorn.jpg","36","1","833"
"7","7","retrieval","new_objects","115","Camera_ProfessionalFilm.jpg","37","1","817"
"7","7","retrieval","new_objects","116","Level.jpg","36","0","869"
"7","7","retrieval","old_objects","117","Centrifuge.jpg","37","0","978"
"7","7","retrieval","old_objects","118","TortillaChip.jpg","36","1","764"
"7","7","retrieval","new_objects","119","Puzzle_Animal.jpg","37","1","709"
"7","7","retrieval","new_objects","120","Switch_LightWhite.jpg","37","1","808"
"7","7","retrieval","new_objects","121","Ruler_Metal.jpg","37","1","833"
"7","7","retrieval","old_objects","123","Soap.jpg","36","1","1100"
"7","7","retrieval","new_objects","124","Bandage_Adhesive.jpg","37","1","1478"
"7","7","retrieval","new_objects","125","Clock_Wall.jpg","37","1","952"
"7","7","retrieval","old_objects","126","Staircase_Curving.jpg","36","1","815"
"7","7","retrieval","old_objects","127","Crowbar.jpg","36","1","751"
"7","7","retrieval","new_objects","128","ShakerShekere.jpg","36","0","692"
"7","7","retrieval","old_objects","129","Chair_Student.jpg","36","1","736"
"7","7","retrieval","old_objects","130","CDstack.jpg","36","1","891"
"7","7","retrieval","new_objects","131","Machine_Arm.jpg","36","0","701"
"7","7","retrieval","old_objects","132","Shark_GreatWhite.jpg","37","0","967"
"7","7","retrieval","new_objects","133","Bag_Doctor.jpg","37","1","899"
"7","7","retrieval","old_objects","134","Decoration_WallOrnament.jpg","36","1","832"
"7","7","retrieval","new_objects","135","Milkshake_StrawberryStraw.jpg","37","1","843"
"7","7","retrieval","new_objects","136","Corn.jpg","37","1","958"
"7","7","retrieval","new_objects","137","Escalator.jpg","37","1","911"
"7","7","retrieval","new_objects","138","Cinnamonroll.jpg","37","1","877"
"7","7","retrieval","new_objects","139","DrinkShaker.jpg","37","1","793"
"7","7","retrieval","old_objects","140","Can_Oblong.jpg","37","0","687"
"7","7","retrieval","new_objects","141","Lei.jpg","37","1","944"
"7","7","retrieval","new_objects","142","Clip_Paper.jpg","37","1","1565"
"7","7","retrieval","old_objects","143","Stone_Spa.jpg","36","1","1012"
"7","7","retrieval","new_objects","144","WalkieTalkie_Yellow.jpg","37","1","903"
"7","7","retrieval","old_objects","145","Hockey_Puck.jpg","36","1","1982"
"7","7","retrieval","old_objects","146","Mask_Viking.jpg","36","1","1086"
"7","7","retrieval","old_objects","147","PencilSharpener.jpg","0","0","2000"
"7","7","retrieval","new_objects","148","Brush_Toilet.jpg","36","0","1893"
"7","7","retrieval","new_objects","149","Bottle_Spray.jpg","36","0","841"
"7","7","retrieval","new_objects","150","Door_Green.jpg","37","1","1494"
"7","7","retrieval","new_objects","151","Glass_bottle.jpg","37","1","822"
"7","7","retrieval","old_objects","152","Folder_Plastic.jpg","36","1","998"
"7","7","retrieval","old_objects","153","Banana.jpg","36","1","628"
"7","7","retrieval","old_objects","154","Toy_Babydoll.jpg","37","0","916"
"7","7","retrieval","old_objects","155","Airplane_Fighter.jpg","37","0","922"
"7","7","retrieval","old_objects","156","Balcony.jpg","36","1","836"
"7","7","retrieval","new_objects","157","Sign_HumpBridgeAhead.jpg","37","1","823"
"7","7","retrieval","new_objects","158","Slide.jpg","37","1","979"
"7","7","retrieval","old_objects","159","Keg.jpg","36","1","865"
"7","7","retrieval","new_objects","160","Umbrella_Classic.jpg","37","1","748"
"7","7","retrieval","old_objects","161","PropellerFan.jpg","37","0","1132"
"7","7","retrieval","old_objects","162","Telephone_Booth.jpg","37","0","1271"
"7","7","retrieval","old_objects","163","HandRake.jpg","36","1","848"
"7","7","retrieval","old_objects","164","PaperCutter.jpg","36","1","879"
"7","7","retrieval","new_objects","165","ShoppingCart.jpg","37","1","930"
"7","7","retrieval","old_objects","166","Honeydew_yellow.jpg","36","1","873"
"7","7","retrieval","new_objects","167","TelescopeSpacecraft.jpg","37","1","877"
"7","7","retrieval","old_objects","168","Box_Present.jpg","36","1","766"
"7","7","retrieval","old_objects","169","Mask_HockeyGoalie.jpg","36","1","888"
"7","7","retrieval","old_objects","170","Garlic_Whole.jpg","36","1","749"
"7","7","retrieval","old_objects","171","WaterCooler.jpg","36","1","763"
"7","7","retrieval","old_objects","172","Brace_Neck.jpg","36","1","769"
"7","7","retrieval","old_objects","173","Glasses_Sun.jpg","37","0","1173"
"7","7","retrieval","new_objects","174","Toolbox_Old.jpg","37","1","896"
"7","7","retrieval","new_objects","175","PatioHeater.jpg","0","0","2000"
"7","7","retrieval","new_objects","176","SkullDeer.jpg","37","1","821"
"7","7","retrieval","old_objects","177","Flower_Sun.jpg","36","1","686"
"7","7","retrieval","new_objects","178","Platter_Vegetables.jpg","36","0","1396"
"7","7","retrieval","new_objects","179","Pancakes.jpg","37","1","872"
"7","7","retrieval","new_objects","180","Telephone_DialAntique.jpg","37","1","816"
"7","7","retrieval","new_objects","181","Chicken_FriedWing.jpg","37","1","870"
"7","7","retrieval","old_objects","182","Toy_LambPlushie.jpg","36","1","1039"
"7","7","retrieval","new_objects","184","Bomb.jpg","37","1","1401"
"7","7","retrieval","old_objects","185","Plate_Children.jpg","37","0","967"
"7","7","retrieval","new_objects","186","DoorKnob.jpg","37","1","1026"
"7","7","retrieval","old_objects","187","Sign_Washroom.jpg","36","1","883"
"7","7","retrieval","new_objects","188","Loofa.jpg","37","1","764"
"7","7","retrieval","old_objects","189","Maraca.jpg","36","1","802"
"7","7","retrieval","old_objects","190","MemoPaperSpike.jpg","36","1","861"
"7","7","retrieval","new_objects","191","Airplane_Commercial.jpg","36","0","593"
"7","7","retrieval","new_objects","192","Ball_Football.jpg","37","1","722"
"7","7","retrieval","new_objects","193","Dart.jpg","36","0","693"
"7","7","retrieval","old_objects","194","Bread_Loaf.jpg","36","1","702"
"7","7","retrieval","new_objects","195","Flower_Basket.jpg","36","0","690"
"7","7","retrieval","old_objects","196","Gauge.jpg","36","1","788"
"7","7","retrieval","old_objects","197","Wallet_ClosedBrown.jpg","36","1","694"
"7","7","retrieval","old_objects","198","Boardgame_Checkers.jpg","36","1","713"
"7","7","retrieval","new_objects","199","SatelliteDish.jpg","37","1","779"
"7","7","retrieval","old_objects","200","ChainRusty.jpg","36","1","662"
"7","7","retrieval","new_objects","201","Dress_Party.jpg","36","0","1066"
"7","7","retrieval","old_objects","202","Gloves_Winter.jpg","36","1","949"
"7","7","retrieval","old_objects","203","Oyster.jpg","36","1","705"
"7","7","retrieval","old_objects","204","MatchBook.jpg","36","1","772"
"7","7","retrieval","new_objects","205","MonkeyPuppet.jpg","37","1","1020"
"7","7","retrieval","old_objects","206","BunsenBurner.jpg","36","1","811"
"7","7","retrieval","old_objects","207","Cleaver_Meat.jpg","36","1","783"
"7","7","retrieval","new_objects","208","Shoes_Mould.jpg","37","1","1197"
"7","7","retrieval","new_objects","209","Tetrahedron.jpg","37","1","732"
"7","7","retrieval","new_objects","210","Toy_Octopus.jpg","37","1","646"
"7","7","retrieval","old_objects","211","Pricegun.jpg","36","1","985"
"7","7","retrieval","new_objects","212","Toy_BearBrownPlushie.jpg","37","1","911"
"7","7","retrieval","new_objects","213","Shirt_SportsJersey.jpg","37","1","802"
"7","7","retrieval","new_objects","214","BicycleChain.jpg","37","1","1203"
"7","7","retrieval","old_objects","215","MechanicalSpring.jpg","36","1","924"
"7","7","retrieval","old_objects","216","Crib_Basket.jpg","36","1","868"
"7","7","retrieval","old_objects","217","Toolbox_RedOpen.jpg","0","0","2000"
"7","7","retrieval","old_objects","218","Hat_Sheriff.jpg","36","1","841"
"7","7","retrieval","old_objects","219","Telephone_Dial.jpg","37","0","824"
"7","7","retrieval","old_objects","220","Scoop_IceCream.jpg","36","1","829"
"7","7","retrieval","old_objects","221","Makeup_Bag.jpg","37","0","730"
"7","7","retrieval","old_objects","222","TreeStump.jpg","36","1","813"
"7","7","retrieval","old_objects","223","JukeboxAntique.jpg","37","0","936"
"7","7","retrieval","old_objects","224","Mallet.jpg","36","1","912"
"7","7","retrieval","new_objects","225","Drum_Bongos.jpg","37","1","1003"
"7","7","retrieval","new_objects","226","Spoons_MeasuringDetached.jpg","0","0","2000"
"7","7","retrieval","new_objects","227","Scorpion.jpg","37","1","1159"
"7","7","retrieval","new_objects","228","Helmet_Construction.jpg","37","1","621"
"7","7","retrieval","new_objects","229","Crib_Standard.jpg","36","0","868"
"7","7","retrieval","old_objects","230","Qtip_Single.jpg","36","1","659"
"7","7","retrieval","old_objects","231","CarLighter.jpg","36","1","892"
"7","7","retrieval","new_objects","232","Rock_Agate.jpg","37","1","1097"
"7","7","retrieval","old_objects","233","Toy_Tank.jpg","36","1","819"
"7","7","retrieval","new_objects","234","Otoscope.jpg","36","0","1218"
"7","7","retrieval","new_objects","235","MovieSlate.jpg","36","0","821"
"7","7","retrieval","new_objects","236","Gametable_AirHockey.jpg","37","1","891"
"7","7","retrieval","new_objects","237","Lens_Camera.jpg","36","0","1037"
"7","7","retrieval","old_objects","238","Brush_Windshield.jpg","37","0","954"
"7","7","retrieval","old_objects","239","Abacus.jpg","36","1","821"
"7","7","retrieval","new_objects","240","SculptureMetalFish.jpg","37","1","731"
"7","7","retrieval","old_objects","241","Freezer.jpg","37","0","1325"
"7","7","retrieval","old_objects","242","Hay.jpg","36","1","1003"
"7","7","retrieval","old_objects","243","Chair_MedicalToilet.jpg","36","1","725"
"7","7","retrieval","old_objects","245","Decoration_ChristmasRed.jpg","0","0","2000"
"7","7","retrieval","old_objects","246","PirateFlag.jpg","36","1","1065"
"7","7","retrieval","old_objects","247","Cucumber.jpg","36","1","1115"
"7","7","retrieval","old_objects","248","Earth_Planet.jpg","36","1","831"
"7","7","retrieval","old_objects","249","Basket_Plastic.jpg","36","1","896"
"7","7","retrieval","old_objects","250","AirVent.jpg","36","1","927"
"7","7","retrieval","new_objects","251","Notepad.jpg","37","1","712"
"7","7","retrieval","old_objects","252","Sign_Open.jpg","37","0","608"
"7","7","retrieval","old_objects","253","Drum_Set.jpg","36","1","787"
"7","7","retrieval","new_objects","254","FlipFlop_SingleRed.jpg","37","1","795"
"7","7","retrieval","old_objects","255","Phone_Wireless.jpg","36","1","734"
"7","7","retrieval","new_objects","256","Tambourine.jpg","37","1","793"
"7","7","retrieval","old_objects","257","Catheter.jpg","36","1","870"
"7","7","retrieval","old_objects","258","Teardrop.jpg","36","1","750"
"7","7","retrieval","old_objects","259","Honeydew_Green.jpg","36","1","848"
"7","7","retrieval","new_objects","260","Clock_Digital.jpg","37","1","1009"
"7","7","retrieval","new_objects","261","Noisemaker_Streamers.jpg","37","1","792"
"7","7","retrieval","old_objects","262","Hat_Police.jpg","36","1","707"
"7","7","retrieval","old_objects","263","Hoverboard.jpg","36","1","971"
"7","7","retrieval","new_objects","264","PictureFrame.jpg","36","0","1245"
"7","7","retrieval","old_objects","265","MilkPitcher.jpg","36","1","724"
"7","7","retrieval","new_objects","266","Flute_Wooden.jpg","36","0","769"
"7","7","retrieval","new_objects","267","Watch.jpg","37","1","683"
"7","7","retrieval","old_objects","268","IroningBoard.jpg","36","1","894"
"7","7","retrieval","old_objects","269","Box_Package.jpg","36","1","869"
"7","7","retrieval","old_objects","270","CoffeeLid.jpg","36","1","942"
"7","7","retrieval","new_objects","271","Grill_Electric.jpg","37","1","906"
"7","7","retrieval","new_objects","272","Cabinet_Office.jpg","37","1","920"
"7","7","retrieval","new_objects","273","SkiPoles.jpg","37","1","778"
"7","7","retrieval","old_objects","274","Plum.jpg","36","1","788"
"7","7","retrieval","new_objects","275","Toy_DollHomeMade.jpg","37","1","776"
"7","7","retrieval","old_objects","276","Fence_Wooden.jpg","37","0","830"
"7","7","retrieval","old_objects","277","Accordion.jpg","36","1","819"
"7","7","retrieval","old_objects","278","SmokeDetector.jpg","36","1","785"
"7","7","retrieval","new_objects","279","CoinRolls.jpg","37","1","677"
"7","7","retrieval","old_objects","280","Car_Buggy.jpg","36","1","770"
"7","7","retrieval","new_objects","281","ScrewDriver.jpg","37","1","590"
"7","7","retrieval","old_objects","282","CuttingBoard.jpg","36","1","708"
"7","7","retrieval","old_objects","283","Box_GiftTopView.jpg","36","1","547"
"7","7","retrieval","new_objects","284","Toy_Ladybug.jpg","37","1","659"
"7","7","retrieval","old_objects","285","Hose_Garden.jpg","36","1","587"
"7","7","retrieval","new_objects","286","Shield_Antique.jpg","37","1","786"
"7","7","retrieval","new_objects","287","PillBottle_Prescription.jpg","37","1","859"
"7","7","retrieval","new_objects","288","Lollipop_Rainbow.jpg","37","1","734"
"7","7","retrieval","new_objects","289","Snake_Cobra.jpg","37","1","749"
"7","7","retrieval","new_objects","290","Toy_RockingHorseBlack.jpg","37","1","828"
"7","7","retrieval","old_objects","291","Earring_Hoop.jpg","36","1","980"
"7","7","retrieval","old_objects","292","SeatBuckle.jpg","36","1","655"
"7","7","retrieval","new_objects","293","Tickets_Blank.jpg","37","1","838"
"7","7","retrieval","new_objects","294","Gecko.jpg","37","1","583"
"7","7","retrieval","old_objects","295","Projector_Film.jpg","36","1","1155"
"7","7","retrieval","old_objects","296","HoseNozzle.jpg","37","0","983"
"7","7","retrieval","old_objects","297","Sculpture_MetalMan.jpg","36","1","749"
"7","7","retrieval","new_objects","298","LifeJacket_BlueYellow.jpg","36","0","640"
"7","7","retrieval","old_objects","299","Toy_BlocksMultiShape.jpg","36","1","1124"
"7","7","retrieval","old_objects","300","Blackboard.jpg","37","0","739"
"7","7","retrieval","new_objects","301","Golf_Club.jpg","37","1","869"
"7","7","retrieval","old_objects","302","Flute_Tin.jpg","37","0","530"
"7","7","retrieval","old_objects","303","HairScrunchie.jpg","37","0","1299"
"7","7","retrieval","old_objects","304","Pouch_PotPourri.jpg","0","0","2000"
"7","7","retrieval","new_objects","306","Instrument_Guiro.jpg","37","1","1309"
"7","7","retrieval","old_objects","307","CameoPortrait.jpg","37","0","645"
"7","7","retrieval","old_objects","308","Spear.jpg","36","1","617"
"7","7","retrieval","new_objects","309","Monitor.jpg","37","1","707"
"7","7","retrieval","old_objects","310","Toy_RockingHorseBeige.jpg","37","0","731"
"7","7","retrieval","new_objects","311","Ball_Bowling.jpg","37","1","696"
"7","7","retrieval","old_objects","312","Costume_Wizard.jpg","36","1","733"
"7","7","retrieval","new_objects","313","Exercise_HandTrainer.jpg","37","1","1137"
"7","7","retrieval","old_objects","314","DayPlanner.jpg","37","0","1062"
"7","7","retrieval","old_objects","315","Box_Vials.jpg","36","1","1067"
"7","7","retrieval","new_objects","316","KiddiePool.jpg","37","1","747"
"7","7","retrieval","new_objects","317","Light_PostIsolated.jpg","37","1","839"
"7","7","retrieval","old_objects","318","Flower_Rose.jpg","36","1","908"
"7","7","retrieval","old_objects","319","Bird_Budgie.jpg","36","1","661"
"7","7","retrieval","old_objects","320","ContactLens.jpg","36","1","562"
"7","7","retrieval","new_objects","321","Carousel.jpg","36","0","785"
"7","7","retrieval","new_objects","322","Shovel_Garden.jpg","37","1","855"
"7","7","retrieval","old_objects","323","Umbrella_Retractable.jpg","36","1","730"
"7","7","retrieval","new_objects","324","Oven.jpg","36","0","918"
"7","7","retrieval","new_objects","325","Leaf_Yellow.jpg","37","1","753"
"7","7","retrieval","new_objects","326","ChariotGold.jpg","37","1","609"
"7","7","retrieval","new_objects","327","Awning.jpg","37","1","519"
"7","7","retrieval","new_objects","328","Dog_CockerSpaniel.jpg","37","1","468"
"7","7","retrieval","new_objects","329","PeasSplit.jpg","37","1","859"
"7","7","retrieval","old_objects","330","Boardgame_ChineseCheckers.jpg","36","1","655"
"7","7","retrieval","old_objects","331","Toy_Dog.jpg","37","0","833"
"7","7","retrieval","old_objects","332","Chair_Bamboo.jpg","36","1","935"
"7","7","retrieval","new_objects","333","Shorts_Plaid.jpg","37","1","657"
"7","7","retrieval","new_objects","334","Toy_GasPump.jpg","37","1","534"
"7","7","retrieval","old_objects","335","Cable_JumpStart.jpg","37","0","538"
"7","7","retrieval","new_objects","336","Owl.jpg","37","1","709"
"7","7","retrieval","old_objects","337","Kebab_Meat.jpg","36","1","799"
"7","7","retrieval","new_objects","338","Lock_Bike.jpg","36","0","598"
"7","7","retrieval","new_objects","339","Archery_Arrows.jpg","37","1","829"
"7","7","retrieval","old_objects","340","DryRack_Dishes.jpg","36","1","596"
"7","7","retrieval","new_objects","341","Table_AntiqueWooden.jpg","36","0","621"
"7","7","retrieval","old_objects","342","Embosser.jpg","36","1","685"
"7","7","retrieval","new_objects","343","DrinkingFountain.jpg","36","0","988"
"7","7","retrieval","old_objects","344","TinChristmas.jpg","36","1","752"
"7","7","retrieval","old_objects","345","FlashlightHeadBand.jpg","37","0","705"
"7","7","retrieval","new_objects","346","ComputerMouse.jpg","37","1","682"
"7","7","retrieval","new_objects","347","Toad.jpg","37","1","512"
"7","7","retrieval","new_objects","348","Toolbox_Red.jpg","37","1","544"
"7","7","retrieval","old_objects","349","Toy_Boat.jpg","36","1","990"
"7","7","retrieval","new_objects","350","Sign_Caution.jpg","36","0","771"
"7","7","retrieval","new_objects","351","Piano_Upright.jpg","36","0","620"
"7","7","retrieval","new_objects","352","Lilypad.jpg","37","1","572"
"7","7","retrieval","old_objects","353","Toy_Zebra.jpg","37","0","548"
"7","7","retrieval","old_objects","354","OperaGlasses.jpg","36","1","843"
"7","7","retrieval","new_objects","355","Bowl_Fruits.jpg","37","1","844"
"7","7","demographics_block","gender","1","Bowl_Fruits.jpg","Male","1","33244"
"7","7","demographics_block","age","1","Bowl_Fruits.jpg","29","1","33244"
"7","7","demographics_block","education","1","Bowl_Fruits.jpg","18","1","33244"
"7","7","demographics_block","left_right_handed","2","Bowl_Fruits.jpg","Right","1","10539"
"7","7","demographics_block","raceoption1","2","Bowl_Fruits.jpg","","1","10539"
"7","7","demographics_block","raceoption2","2","Bowl_Fruits.jpg","","1","10539"
"7","7","demographics_block","raceoption3","2","Bowl_Fruits.jpg","","1","10539"
"7","7","demographics_block","raceoption4","2","Bowl_Fruits.jpg","","1","10539"
"7","7","demographics_block","raceoption5","2","Bowl_Fruits.jpg","","1","10539"
"7","7","demographics_block","raceoption6","2","Bowl_Fruits.jpg","5","1","10539"
"7","7","demographics_block","raceoption7","2","Bowl_Fruits.jpg","","1","10539"
"7","7","demographics_block","raceoption8","2","Bowl_Fruits.jpg","","1","10539"
"7","7","demographics_block","raceoption9","2","Bowl_Fruits.jpg","","1","10539"
"7","7","demographics_block","raceother","2","Bowl_Fruits.jpg","","1","10539"
"7","7","demographics_block","raceother","2","Bowl_Fruits.jpg","","1","10539"
"7","7","demographics_block","english_language","2","Bowl_Fruits.jpg","Yes","1","10539"
"7","7","demographics_block","english_languageother","2","Bowl_Fruits.jpg","","1","10539"
"7","7","demographics_block","eyesight","3","Bowl_Fruits.jpg","Yes","1","7442"
"7","7","demographics_block","colorblind","3","Bowl_Fruits.jpg","No","1","7442"
"7","7","worker_id_block","worker_id_textbox","1","Bowl_Fruits.jpg","A2CS8ESKDX6EBA","1","6141"
"6","6","encoding","encoding","1","Knife_Camping.jpg","36","0","1121"
"6","6","encoding","encoding","2","Toy_Boat.jpg","36","0","1505"
"6","6","encoding","encoding","3","MannequinBust.jpg","36","0","1012"
"6","6","encoding","encoding","4","TinChristmas.jpg","36","0","837"
"6","6","encoding","encoding","5","Accordion.jpg","36","0","630"
"6","6","encoding","encoding","6","Cable_JumpStart.jpg","36","0","1418"
"6","6","encoding","encoding","7","Stove_Propane.jpg","0","0","2000"
"6","6","encoding","encoding","8","Radio_Vintage.jpg","36","0","1556"
"6","6","encoding","encoding","9","TortillaChip.jpg","36","0","975"
"6","6","encoding","encoding","10","CoolingFan_Engine2.jpg","36","0","1962"
"6","6","encoding","encoding","11","HandRake.jpg","36","0","753"
"6","6","encoding","encoding","12","OperaGlasses.jpg","36","0","1891"
"6","6","encoding","encoding","13","Flute_Tin.jpg","36","0","1555"
"6","6","encoding","encoding","14","DarthVader.jpg","37","0","1571"
"6","6","encoding","encoding","15","Earring_Hoop.jpg","36","0","1703"
"6","6","encoding","encoding","16","Cleaver_Meat.jpg","36","0","819"
"6","6","encoding","encoding","17","SmokeDetector.jpg","36","0","1216"
"6","6","encoding","encoding","18","Folder_Plastic.jpg","36","0","1480"
"6","6","encoding","encoding","19","Oyster.jpg","36","0","1266"
"6","6","encoding","encoding","20","Boardgame_ChineseCheckers.jpg","36","0","1577"
"6","6","encoding","encoding","21","Toy_Tank.jpg","36","0","1318"
"6","6","encoding","encoding","22","Qtip_Single.jpg","36","0","1566"
"6","6","encoding","encoding","23","Hook_Fish.jpg","0","0","2000"
"6","6","encoding","encoding","24","ChainRusty.jpg","0","0","2000"
"6","6","encoding","encoding","25","Hat_Sheriff.jpg","36","0","1630"
"6","6","encoding","encoding","26","Drum_Set.jpg","37","0","1978"
"6","6","encoding","encoding","27","Box_Cutlery.jpg","36","0","1381"
"6","6","encoding","encoding","28","Abacus.jpg","36","0","1321"
"6","6","encoding","encoding","29","Box_Present.jpg","36","0","1235"
"6","6","encoding","encoding","30","Stone_Spa.jpg","0","0","2000"
"6","6","encoding","encoding","31","Cucumber.jpg","36","0","1005"
"6","6","encoding","encoding","32","Can_OilSpout.jpg","0","0","2000"
"6","6","encoding","encoding","33","Shoe_Highheel.jpg","36","0","1066"
"6","6","encoding","encoding","34","IroningBoard.jpg","0","0","2000"
"6","6","encoding","encoding","35","Plum.jpg","36","0","925"
"6","6","encoding","encoding","36","LeafBlower.jpg","37","0","912"
"6","6","encoding","encoding","37","SeatBuckle.jpg","0","0","2000"
"6","6","encoding","encoding","38","Hat_Police.jpg","37","0","1314"
"6","6","encoding","encoding","39","Freezer.jpg","36","0","792"
"6","6","encoding","encoding","40","DryRack_Dishes.jpg","36","0","1322"
"6","6","encoding","encoding","41","Car_Buggy.jpg","37","0","754"
"6","6","encoding","encoding","42","Gloves_Winter.jpg","37","0","1141"
"6","6","encoding","encoding","43","Skirt_Long.jpg","36","0","1423"
"6","6","encoding","encoding","44","DayPlanner.jpg","36","0","688"
"6","6","encoding","encoding","45","Hose_Garden.jpg","37","0","1832"
"6","6","encoding","encoding","46","Chair_Bamboo.jpg","37","0","1169"
"6","6","encoding","encoding","47","Toy_FigurineSwing.jpg","37","0","1009"
"6","6","encoding","encoding","48","DustPan.jpg","36","0","807"
"6","6","encoding","encoding","49","sign_traffic.jpg","37","0","871"
"6","6","encoding","encoding","50","Sculpture_MetalMan.jpg","37","0","1106"
"6","6","encoding","encoding","51","Airplane_Fighter.jpg","37","0","693"
"6","6","encoding","encoding","52","HoseNozzle.jpg","37","0","1107"
"6","6","encoding","encoding","53","Bird_Hen.jpg","37","0","854"
"6","6","encoding","encoding","54","RAMchip.jpg","36","0","1860"
"6","6","encoding","encoding","55","Teardrop.jpg","37","0","1937"
"6","6","encoding","encoding","56","MilkPitcher.jpg","36","0","834"
"6","6","encoding","encoding","57","Bicycle_Adult.jpg","37","0","1401"
"6","6","encoding","encoding","58","Box_Vials.jpg","36","0","1107"
"6","6","encoding","encoding","59","Bread_Loaf.jpg","36","0","918"
"6","6","encoding","encoding","60","Umbrella_Retractable.jpg","37","0","1380"
"6","6","encoding","encoding","62","Bus_School.jpg","37","0","946"
"6","6","encoding","encoding","63","Toy_BlocksMultiShape.jpg","36","0","1184"
"6","6","encoding","encoding","64","CDstack.jpg","37","0","1285"
"6","6","encoding","encoding","65","AirPump.jpg","37","0","983"
"6","6","encoding","encoding","66","Decoration_WallOrnament.jpg","37","0","696"
"6","6","encoding","encoding","67","Pricegun.jpg","37","0","1231"
"6","6","encoding","encoding","68","Hockey_Puck.jpg","0","0","2000"
"6","6","encoding","encoding","69","Makeup_Bag.jpg","0","0","2000"
"6","6","encoding","encoding","70","Mask_Viking.jpg","37","0","1366"
"6","6","encoding","encoding","71","Toy_LambPlushie.jpg","36","0","1699"
"6","6","encoding","encoding","72","MeterElectric.jpg","0","0","2000"
"6","6","encoding","encoding","73","Flower_Rose.jpg","37","0","901"
"6","6","encoding","encoding","74","Kebab_Meat.jpg","36","0","1449"
"6","6","encoding","encoding","75","TreeStump.jpg","37","0","1175"
"6","6","encoding","encoding","76","Flower_Sun.jpg","37","0","714"
"6","6","encoding","encoding","77","Wallet_ClosedBlack.jpg","0","0","2000"
"6","6","encoding","encoding","78","Honeydew_Green.jpg","36","0","1815"
"6","6","encoding","encoding","79","Suspenders.jpg","0","0","2000"
"6","6","encoding","encoding","80","Pipette.jpg","37","0","1109"
"6","6","encoding","encoding","81","Mask_HockeyGoalie.jpg","37","0","1040"
"6","6","encoding","encoding","82","Sign_Washroom.jpg","37","0","824"
"6","6","encoding","encoding","83","Cheese_Platter.jpg","36","0","1447"
"6","6","encoding","encoding","84","TurkeyDinner.jpg","36","0","549"
"6","6","encoding","encoding","85","Toolbox_RedOpen.jpg","37","0","1285"
"6","6","encoding","encoding","86","CasketOpen.jpg","37","0","1162"
"6","6","encoding","encoding","87","CuttingBoard.jpg","0","0","2000"
"6","6","encoding","encoding","88","PropellerFan.jpg","37","0","1481"
"6","6","encoding","encoding","89","Honeydew_yellow.jpg","36","0","674"
"6","6","encoding","encoding","90","AirTank.jpg","36","0","1959"
"6","6","encoding","encoding","91","Compact_Powder.jpg","36","0","1114"
"6","6","encoding","encoding","92","Basket_Plastic.jpg","0","0","2000"
"6","6","encoding","encoding","93","Chair_Student.jpg","36","0","1118"
"6","6","encoding","encoding","94","Pipe_Pitch.jpg","0","0","2000"
"6","6","encoding","encoding","95","WaterCooler.jpg","36","0","1057"
"6","6","encoding","encoding","96","GoldNugget.jpg","0","0","2000"
"6","6","encoding","encoding","97","Gauge.jpg","0","0","2000"
"6","6","encoding","encoding","98","Staircase_Curving.jpg","37","0","1306"
"6","6","encoding","encoding","99","Brush_Windshield.jpg","36","0","1398"
"6","6","encoding","encoding","100","JuicerCitrus.jpg","36","0","1096"
"6","6","encoding","encoding","101","PirateFlag.jpg","37","0","766"
"6","6","encoding","encoding","102","CameoPortrait.jpg","36","0","1266"
"6","6","encoding","encoding","103","Blackboard.jpg","36","0","789"
"6","6","encoding","encoding","104","MatchBook.jpg","36","0","989"
"6","6","encoding","encoding","105","Brace_Neck.jpg","36","0","1904"
"6","6","encoding","encoding","106","Boardgame_Checkers.jpg","36","0","697"
"6","6","encoding","encoding","107","Stethoscope.jpg","36","0","1394"
"6","6","encoding","encoding","108","Telephone_Dial.jpg","36","0","594"
"6","6","encoding","encoding","109","Toy_Zebra.jpg","37","0","1491"
"6","6","encoding","encoding","110","Lacrosse_Stick.jpg","0","0","2000"
"6","6","encoding","encoding","111","JukeboxAntique.jpg","36","0","1455"
"6","6","encoding","encoding","112","Toy_Babydoll.jpg","36","0","1325"
"6","6","encoding","encoding","113","MemoPaperSpike.jpg","36","0","1217"
"6","6","encoding","encoding","114","Chair_Airplane.jpg","36","0","959"
"6","6","encoding","encoding","115","Glasses_Sun.jpg","36","0","661"
"6","6","encoding","encoding","116","HotWaterBottle.jpg","36","0","1227"
"6","6","encoding","encoding","117","Balcony.jpg","37","0","1094"
"6","6","encoding","encoding","118","Garlic_Whole.jpg","36","0","1496"
"6","6","encoding","encoding","119","Box_Package.jpg","36","0","1852"
"6","6","encoding","encoding","120","HairScrunchie.jpg","36","0","1604"
"6","6","encoding","encoding","121","Candy_Chocolate.jpg","36","0","586"
"6","6","encoding","encoding","123","Pouch_PotPourri.jpg","37","0","1395"
"6","6","encoding","encoding","124","Costume_Wizard.jpg","37","0","1958"
"6","6","encoding","encoding","125","Cork.jpg","0","0","2000"
"6","6","encoding","encoding","126","Wallet_ClosedBrown.jpg","37","0","1406"
"6","6","encoding","encoding","127","CarLighter.jpg","36","0","1930"
"6","6","encoding","encoding","128","CoffeeLid.jpg","36","0","1173"
"6","6","encoding","encoding","129","FlashlightHeadBand.jpg","0","0","2000"
"6","6","encoding","encoding","130","Crib_Basket.jpg","0","0","2000"
"6","6","encoding","encoding","131","MechanicalSpring.jpg","0","0","2000"
"6","6","encoding","encoding","132","PencilSharpener.jpg","0","0","2000"
"6","6","encoding","encoding","133","Bed_ChildBirch.jpg","36","0","897"
"6","6","encoding","encoding","134","Shed.jpg","37","0","1689"
"6","6","encoding","encoding","135","Soap.jpg","36","0","910"
"6","6","encoding","encoding","136","Maraca.jpg","36","0","1508"
"6","6","encoding","encoding","137","Crowbar.jpg","36","0","1399"
"6","6","encoding","encoding","138","ChessPiece_Knight.jpg","36","0","973"
"6","6","encoding","encoding","139","Scoop_IceCream.jpg","0","0","2000"
"6","6","encoding","encoding","140","Mallet.jpg","36","0","1120"
"6","6","encoding","encoding","141","Sign_Open.jpg","0","0","2000"
"6","6","encoding","encoding","142","Man.jpg","0","0","2000"
"6","6","encoding","encoding","143","Catheter.jpg","0","0","2000"
"6","6","encoding","encoding","144","Projector_Film.jpg","37","0","1187"
"6","6","encoding","encoding","145","ContactLens.jpg","36","0","1718"
"6","6","encoding","encoding","146","Chime.jpg","36","0","1966"
"6","6","encoding","encoding","147","AirVent.jpg","36","0","1051"
"6","6","encoding","encoding","148","Bag_Camera.jpg","37","0","1379"
"6","6","encoding","encoding","149","Centrifuge.jpg","36","0","937"
"6","6","encoding","encoding","150","Keg.jpg","36","0","1278"
"6","6","encoding","encoding","151","Shark_GreatWhite.jpg","36","0","543"
"6","6","encoding","encoding","152","Mousetrap.jpg","36","0","1320"
"6","6","encoding","encoding","153","Fan_Ceiling.jpg","36","0","677"
"6","6","encoding","encoding","154","Embosser.jpg","0","0","2000"
"6","6","encoding","encoding","155","Decoration_ChristmasRed.jpg","0","0","2000"
"6","6","encoding","encoding","156","Hockey_Equipment.jpg","37","0","941"
"6","6","encoding","encoding","157","Can_Oblong.jpg","0","0","2000"
"6","6","encoding","encoding","158","Earth_Planet.jpg","37","0","991"
"6","6","encoding","encoding","159","Toilet.jpg","36","0","889"
"6","6","encoding","encoding","160","PaperCutter.jpg","36","0","1641"
"6","6","encoding","encoding","161","Bird_Budgie.jpg","37","0","881"
"6","6","encoding","encoding","162","Stool_Wood.jpg","36","0","1103"
"6","6","encoding","encoding","163","Chair_MedicalToilet.jpg","36","0","828"
"6","6","encoding","encoding","164","Banana.jpg","36","0","762"
"6","6","encoding","encoding","165","Toy_Dog.jpg","36","0","1143"
"6","6","encoding","encoding","166","Hoverboard.jpg","0","0","2000"
"6","6","encoding","encoding","167","Phone_Wireless.jpg","37","0","1316"
"6","6","encoding","encoding","168","Toy_RockingHorseBeige.jpg","0","0","2000"
"6","6","encoding","encoding","169","Fence_Wooden.jpg","37","0","1388"
"6","6","encoding","encoding","170","Acorn.jpg","37","0","1723"
"6","6","encoding","encoding","171","Helmet_Knight.jpg","37","0","847"
"6","6","encoding","encoding","172","Box_GiftTopView.jpg","36","0","852"
"6","6","encoding","encoding","173","BunsenBurner.jpg","36","0","1757"
"6","6","encoding","encoding","174","Spear.jpg","36","0","1151"
"6","6","encoding","encoding","175","Telephone_Booth.jpg","37","0","1266"
"6","6","encoding","encoding","176","Hay.jpg","37","0","1005"
"6","6","encoding","encoding","177","Plate_Children.jpg","36","0","1059"
"6","6","retrieval","new_objects","1","DrawingCompass.jpg","0","0","2000"
"6","6","retrieval","old_objects","2","IroningBoard.jpg","36","1","1062"
"6","6","retrieval","new_objects","3","Sign_Caution.jpg","0","0","2000"
"6","6","retrieval","new_objects","4","Cord_Ethernet.jpg","0","0","2000"
"6","6","retrieval","new_objects","5","Toolbox_Red.jpg","0","0","2000"
"6","6","retrieval","old_objects","6","Mask_HockeyGoalie.jpg","36","1","1624"
"6","6","retrieval","old_objects","7","Wallet_ClosedBrown.jpg","36","1","708"
"6","6","retrieval","old_objects","8","Gauge.jpg","36","1","734"
"6","6","retrieval","old_objects","9","Earth_Planet.jpg","36","1","768"
"6","6","retrieval","new_objects","10","Platter_Vegetables.jpg","37","1","864"
"6","6","retrieval","new_objects","11","Carousel.jpg","37","1","729"
"6","6","retrieval","old_objects","12","Flute_Tin.jpg","37","0","816"
"6","6","retrieval","old_objects","13","Embosser.jpg","36","1","724"
"6","6","retrieval","new_objects","14","Bottle_Spray.jpg","37","1","877"
"6","6","retrieval","new_objects","15","SaltShaker.jpg","37","1","643"
"6","6","retrieval","new_objects","16","Weathervane.jpg","37","1","1171"
"6","6","retrieval","new_objects","17","Bowl_Fruits.jpg","37","1","609"
"6","6","retrieval","old_objects","18","MannequinBust.jpg","36","1","750"
"6","6","retrieval","new_objects","19","Bag_Doctor.jpg","36","0","825"
"6","6","retrieval","new_objects","20","Clip_Paper.jpg","36","0","684"
"6","6","retrieval","old_objects","21","Sign_Open.jpg","36","1","761"
"6","6","retrieval","new_objects","22","Cheesegrater_Handheld.jpg","36","0","824"
"6","6","retrieval","old_objects","23","Oyster.jpg","36","1","724"
"6","6","retrieval","new_objects","24","DoorKnob.jpg","37","1","728"
"6","6","retrieval","old_objects","25","Soap.jpg","36","1","659"
"6","6","retrieval","old_objects","26","Stethoscope.jpg","0","0","2000"
"6","6","retrieval","old_objects","27","Hat_Sheriff.jpg","36","1","1129"
"6","6","retrieval","new_objects","28","Shield_Antique.jpg","37","1","924"
"6","6","retrieval","new_objects","29","Telephone_DialAntique.jpg","37","1","1117"
"6","6","retrieval","new_objects","30","BowlingPin.jpg","37","1","765"
"6","6","retrieval","new_objects","31","Desk_Office.jpg","36","0","872"
"6","6","retrieval","new_objects","32","Bandage_Adhesive.jpg","37","1","1092"
"6","6","retrieval","old_objects","33","MemoPaperSpike.jpg","37","0","573"
"6","6","retrieval","old_objects","34","Wallet_ClosedBlack.jpg","36","1","1564"
"6","6","retrieval","new_objects","35","Chicken_FriedWing.jpg","0","0","2000"
"6","6","retrieval","new_objects","36","Ball_Bowling.jpg","37","1","917"
"6","6","retrieval","new_objects","37","BicycleChain.jpg","37","1","778"
"6","6","retrieval","new_objects","38","Dart.jpg","0","0","2000"
"6","6","retrieval","old_objects","39","Decoration_WallOrnament.jpg","37","0","680"
"6","6","retrieval","old_objects","40","Cleaver_Meat.jpg","36","1","814"
"6","6","retrieval","new_objects","41","NailPolish.jpg","37","1","843"
"6","6","retrieval","new_objects","42","Ball_Football.jpg","0","0","2000"
"6","6","retrieval","old_objects","43","Box_Vials.jpg","36","1","933"
"6","6","retrieval","new_objects","44","Exercise_HandTrainer.jpg","0","0","2000"
"6","6","retrieval","new_objects","45","Oven.jpg","36","0","757"
"6","6","retrieval","new_objects","46","PeasSplit.jpg","37","1","821"
"6","6","retrieval","new_objects","47","Flute_Wooden.jpg","37","1","1301"
"6","6","retrieval","new_objects","48","Golf_Club.jpg","36","0","887"
"6","6","retrieval","old_objects","49","Scoop_IceCream.jpg","0","0","2000"
"6","6","retrieval","new_objects","50","Corn.jpg","37","1","776"
"6","6","retrieval","new_objects","51","Puzzle_Animal.jpg","37","1","830"
"6","6","retrieval","old_objects","52","Car_Buggy.jpg","37","0","754"
"6","6","retrieval","old_objects","53","Kebab_Meat.jpg","36","1","890"
"6","6","retrieval","new_objects","54","Scorpion.jpg","37","1","817"
"6","6","retrieval","old_objects","55","MilkPitcher.jpg","36","1","805"
"6","6","retrieval","new_objects","56","Dog_CockerSpaniel.jpg","37","1","705"
"6","6","retrieval","new_objects","57","Light_PostIsolated.jpg","37","1","1025"
"6","6","retrieval","old_objects","58","Shoe_Highheel.jpg","37","0","599"
"6","6","retrieval","old_objects","59","Hose_Garden.jpg","36","1","764"
"6","6","retrieval","old_objects","60","Toy_Tank.jpg","36","1","718"
"6","6","retrieval","old_objects","62","Phone_Wireless.jpg","36","1","623"
"6","6","retrieval","old_objects","63","Man.jpg","36","1","607"
"6","6","retrieval","old_objects","64","Plate_Children.jpg","36","1","629"
"6","6","retrieval","old_objects","65","Freezer.jpg","36","1","659"
"6","6","retrieval","old_objects","66","PropellerFan.jpg","36","1","578"
"6","6","retrieval","new_objects","67","Clamp_Screw.jpg","0","0","2000"
"6","6","retrieval","old_objects","68","FlashlightHeadBand.jpg","36","1","817"
"6","6","retrieval","new_objects","69","Fan_Straw.jpg","37","1","826"
"6","6","retrieval","new_objects","70","ScrewDriver.jpg","37","1","1869"
"6","6","retrieval","old_objects","71","AirVent.jpg","36","1","807"
"6","6","retrieval","old_objects","72","Toy_LambPlushie.jpg","36","1","826"
"6","6","retrieval","new_objects","73","Thermostat.jpg","37","1","691"
"6","6","retrieval","old_objects","74","HoseNozzle.jpg","37","0","1101"
"6","6","retrieval","old_objects","75","Abacus.jpg","37","0","1158"
"6","6","retrieval","new_objects","76","ShakerShekere.jpg","0","0","2000"
"6","6","retrieval","old_objects","77","Chime.jpg","36","1","956"
"6","6","retrieval","new_objects","78","DrinkingFountain.jpg","37","1","867"
"6","6","retrieval","new_objects","79","Brush_Toilet.jpg","37","1","679"
"6","6","retrieval","new_objects","80","Escalator.jpg","37","1","795"
"6","6","retrieval","new_objects","81","SkiPoles.jpg","37","1","806"
"6","6","retrieval","new_objects","82","Shoes_Snowboarding.jpg","37","1","642"
"6","6","retrieval","new_objects","83","Brush_Shaving.jpg","37","1","787"
"6","6","retrieval","new_objects","84","Lantern_Tea.jpg","37","1","541"
"6","6","retrieval","new_objects","85","Toolbox_Old.jpg","37","1","587"
"6","6","retrieval","old_objects","86","Pouch_PotPourri.jpg","36","1","754"
"6","6","retrieval","new_objects","87","MovieSlate.jpg","36","0","717"
"6","6","retrieval","new_objects","88","Toy_Octopus.jpg","37","1","672"
"6","6","retrieval","old_objects","89","Chair_Bamboo.jpg","36","1","735"
"6","6","retrieval","new_objects","90","ChariotGold.jpg","37","1","844"
"6","6","retrieval","new_objects","91","Cabinet_Office.jpg","0","0","2000"
"6","6","retrieval","new_objects","92","Owl.jpg","37","1","765"
"6","6","retrieval","new_objects","93","Switch_LightWhite.jpg","37","1","846"
"6","6","retrieval","old_objects","94","Makeup_Bag.jpg","36","1","706"
"6","6","retrieval","new_objects","95","BookShelf.jpg","37","1","645"
"6","6","retrieval","old_objects","96","Toy_Boat.jpg","36","1","823"
"6","6","retrieval","old_objects","97","JukeboxAntique.jpg","36","1","838"
"6","6","retrieval","old_objects","98","Stove_Propane.jpg","0","0","2000"
"6","6","retrieval","new_objects","99","Machine_Arm.jpg","37","1","779"
