"group","subject","blockcode","trialcode","trialnum","values.stimulus","response","correct","latency"
"4","4","encoding","encoding","1","Ghost.jpg","36","0","87"
"4","4","encoding","encoding","2","TireRims.jpg","36","0","411"
"4","4","encoding","encoding","3","DonaldDuck_Toy.jpg","36","0","376"
"4","4","encoding","encoding","4","Mirror_Makeup.jpg","36","0","164"
"4","4","encoding","encoding","5","Razor.jpg","36","0","1329"
"4","4","encoding","encoding","6","Brush_Shoe.jpg","36","0","510"
"4","4","encoding","encoding","7","Bread_Roll.jpg","36","0","467"
"4","4","encoding","encoding","8","Bread_Carrot.jpg","36","0","376"
"4","4","encoding","encoding","9","Toy_RabbitPlushie.jpg","37","0","213"
"4","4","encoding","encoding","10","HairDryer.jpg","37","0","226"
"4","4","encoding","encoding","11","Jar_Capers.jpg","37","0","407"
"4","4","encoding","encoding","12","Pear_Yellow.jpg","37","0","492"
"4","4","encoding","encoding","13","PaperTowel_Brown.jpg","36","0","496"
"4","4","encoding","encoding","14","Staircase_Straight.jpg","36","0","125"
"4","4","encoding","encoding","15","Necklace_Black.jpg","37","0","458"
"4","4","encoding","encoding","16","Shrimp.jpg","36","0","6"
"4","4","encoding","encoding","17","OnionRings.jpg","36","0","259"
"4","4","encoding","encoding","18","PotatoMasher_Grate.jpg","36","0","416"
"4","4","encoding","encoding","19","Flashlight.jpg","36","0","589"
"4","4","encoding","encoding","20","ChalkLineTool.jpg","36","0","410"
"4","4","encoding","encoding","21","Jug_GallonWhite.jpg","36","0","814"
"4","4","encoding","encoding","22","Jar_Cotton.jpg","37","0","371"
"4","4","encoding","encoding","23","Dreamcatcher.jpg","37","0","416"
"4","4","encoding","encoding","24","Swan.jpg","37","0","613"
"4","4","encoding","encoding","25","RollerBlade.jpg","36","0","506"
"4","4","encoding","encoding","26","Radio_Modern.jpg","37","0","374"
"4","4","encoding","encoding","27","Bat_Cricket.jpg","36","0","410"
"4","4","encoding","encoding","28","Knee.jpg","37","0","39"
"4","4","encoding","encoding","29","CoffeeGrinder.jpg","37","0","420"
"4","4","encoding","encoding","30","Tape_Washi.jpg","37","0","393"
"4","4","encoding","encoding","31","LightBulb_Christmas.jpg","37","0","286"
"4","4","encoding","encoding","32","Bag_Grains.jpg","37","0","403"
"4","4","encoding","encoding","33","Decoration_ChristmasWhite.jpg","37","0","431"
"4","4","encoding","encoding","34","Bird_Duck.jpg","37","0","492"
"4","4","encoding","encoding","35","RibbonPin.jpg","37","0","353"
"4","4","encoding","encoding","36","Steam_Cleaner.jpg","37","0","342"
"4","4","encoding","encoding","37","Pen_Ballpoint.jpg","36","0","451"
"4","4","encoding","encoding","38","ElasticBand.jpg","37","0","408"
"4","4","encoding","encoding","39","BuildingChinese.jpg","0","0","2000"
"4","4","encoding","encoding","40","Cage_Bird.jpg","0","0","2000"
"4","4","encoding","encoding","41","SolderingIron.jpg","0","0","2000"
"4","4","encoding","encoding","42","Toy_BeadMaze.jpg","0","0","2000"
"4","4","encoding","encoding","43","Exercise_Stretch.jpg","0","0","2000"
"4","4","encoding","encoding","44","Bottle_Bleach.jpg","0","0","2000"
"4","4","encoding","encoding","45","LumiereBeautyBeast.jpg","0","0","2000"
"4","4","encoding","encoding","46","Helmet_Soldier.jpg","0","0","2000"
"4","4","encoding","encoding","47","Stool_Camping.jpg","0","0","2000"
"4","4","encoding","encoding","48","DiaperChangingStation.jpg","0","0","2000"
"4","4","encoding","encoding","49","SaxophoneSoprano.jpg","0","0","2000"
"4","4","encoding","encoding","50","Tweezers.jpg","0","0","2000"
"4","4","encoding","encoding","51","Drum_Cymbal.jpg","0","0","2000"
"4","4","encoding","encoding","52","Shark_Hammerhead.jpg","0","0","2000"
"4","4","encoding","encoding","53","Seal_animal.jpg","0","0","2000"
"4","4","encoding","encoding","54","Bowl_Chinese.jpg","37","0","621"
"4","4","encoding","encoding","55","Elephant.jpg","36","0","642"
"4","4","encoding","encoding","56","Nametag.jpg","37","0","166"
"4","4","encoding","encoding","57","ClothesDryingRack.jpg","36","0","571"
"4","4","encoding","encoding","58","Gun_Glue.jpg","36","0","616"
"4","4","encoding","encoding","59","Cracker_Saltine.jpg","37","0","5"
"4","4","encoding","encoding","60","Chairs_Stacked.jpg","36","0","106"
"4","4","encoding","encoding","62","Garlic_Clove.jpg","36","0","64"
"4","4","encoding","encoding","63","Cannister_Gas.jpg","36","0","493"
"4","4","encoding","encoding","64","IceCubes copy.jpg","37","0","322"
"4","4","encoding","encoding","65","Toaster_MetalSleek.jpg","37","0","503"
"4","4","encoding","encoding","66","Tree_ChristmasMini.jpg","37","0","579"
"4","4","encoding","encoding","67","Chair_PlasticGreen.jpg","37","0","0"
"4","4","encoding","encoding","68","WaterHeater.jpg","37","0","901"
"4","4","encoding","encoding","69","Boxcutter.jpg","37","0","409"
"4","4","encoding","encoding","70","Hotdog_WithBun.jpg","36","0","1302"
"4","4","encoding","encoding","71","Ruler_Digital.jpg","36","0","35"
"4","4","encoding","encoding","72","WaterColorPaintset.jpg","37","0","335"
"4","4","encoding","encoding","73","Cranberry.jpg","0","0","2000"
"4","4","encoding","encoding","74","Walkman.jpg","36","0","25"
"4","4","encoding","encoding","75","EyeExamDevice.jpg","36","0","461"
"4","4","encoding","encoding","76","TeethMould.jpg","36","0","706"
"4","4","encoding","encoding","77","Scalpel.jpg","37","0","335"
"4","4","encoding","encoding","78","SnowGlobe.jpg","36","0","364"
"4","4","encoding","encoding","79","Computer_ExpansionCard.jpg","37","0","961"
"4","4","encoding","encoding","80","Glove_Rubber.jpg","0","0","2000"
"4","4","encoding","encoding","81","Cornucopia.jpg","0","0","2000"
"4","4","encoding","encoding","82","Star.jpg","36","0","1616"
"4","4","encoding","encoding","83","Truck_Dump.jpg","36","0","557"
"4","4","encoding","encoding","84","HairClipper.jpg","37","0","426"
"4","4","encoding","encoding","85","RiceRaw.jpg","37","0","191"
"4","4","encoding","encoding","86","Knife_Butter.jpg","37","0","204"
"4","4","encoding","encoding","87","Defribrillator.jpg","37","0","480"
"4","4","encoding","encoding","88","Sign_Parking.jpg","37","0","685"
"4","4","encoding","encoding","89","CarJack.jpg","36","0","330"
"4","4","encoding","encoding","90","Helmet_Bicycle.jpg","36","0","583"
"4","4","encoding","encoding","91","Knife_Kitchen.jpg","37","0","12"
"4","4","encoding","encoding","92","Jack.jpg","37","0","41"
"4","4","encoding","encoding","93","Chainsaw.jpg","37","0","294"
"4","4","encoding","encoding","94","Balalaika.jpg","37","0","123"
"4","4","encoding","encoding","95","ComputerKeyboard_F1.jpg","37","0","16"
"4","4","encoding","encoding","96","Walker_Blue.jpg","37","0","356"
"4","4","encoding","encoding","97","Ashtray_Empty.jpg","37","0","482"
"4","4","encoding","encoding","98","Toolbox_BlackOpen.jpg","36","0","142"
"4","4","encoding","encoding","99","Canister_Tea.jpg","36","0","603"
"4","4","encoding","encoding","100","Crab.jpg","37","0","408"
"4","4","encoding","encoding","101","CapGraduation.jpg","36","0","205"
"4","4","encoding","encoding","102","Rock_Mimetite.jpg","36","0","641"
"4","4","encoding","encoding","103","Snowpea.jpg","37","0","406"
"4","4","encoding","encoding","104","Barrel_Upright.jpg","36","0","259"
"4","4","encoding","encoding","105","JoustingSpear.jpg","36","0","431"
"4","4","encoding","encoding","106","Box_WoodenOpen.jpg","36","0","884"
"4","4","encoding","encoding","107","Bottle_Beer.jpg","37","0","17"
"4","4","encoding","encoding","108","Syringe_Needle.jpg","37","0","310"
"4","4","encoding","encoding","109","Shoes_WomenBoots.jpg","36","0","515"
"4","4","encoding","encoding","110","Pumpkin.jpg","36","0","936"
"4","4","encoding","encoding","111","DoubleBass.jpg","36","0","789"
"4","4","encoding","encoding","112","Squash_Pumpkin.jpg","37","0","58"
"4","4","encoding","encoding","113","GogglesSwim.jpg","36","0","199"
"4","4","encoding","encoding","114","Starfish.jpg","36","0","1572"
"4","4","encoding","encoding","115","Mask_VenetianLongNose.jpg","36","0","528"
"4","4","encoding","encoding","116","FortuneCookie.jpg","37","0","389"
"4","4","encoding","encoding","117","SolderingWire.jpg","37","0","306"
"4","4","encoding","encoding","118","Carabiner_Orange.jpg","36","0","783"
"4","4","encoding","encoding","119","SelfieStick.jpg","36","0","92"
"4","4","encoding","encoding","120","Bird_Toucan.jpg","37","0","449"
"4","4","encoding","encoding","121","FileFolder.jpg","36","0","333"
"4","4","encoding","encoding","123","Castle_Sand.jpg","0","0","2000"
"4","4","encoding","encoding","124","SewingPin_Single.jpg","36","0","843"
"4","4","encoding","encoding","125","Flamingo_Cartoon.jpg","37","0","112"
"4","4","encoding","encoding","126","FlipFlop_PairBlue.jpg","36","0","12"
"4","4","encoding","encoding","127","Bucket_Halloween.jpg","36","0","809"
"4","4","encoding","encoding","128","Weights_Dumbells.jpg","37","0","406"
"4","4","encoding","encoding","129","DryRack_Clothes.jpg","37","0","555"
"4","4","encoding","encoding","130","Glass_Cup.jpg","36","0","832"
"4","4","encoding","encoding","131","Lock_Key.jpg","37","0","173"
"4","4","encoding","encoding","132","CementFinisher.jpg","36","0","386"
"4","4","encoding","encoding","133","Egg_Wooden.jpg","37","0","119"
"4","4","encoding","encoding","134","CinderBlock.jpg","36","0","748"
"4","4","encoding","encoding","135","Grill_Gas.jpg","36","0","209"
"4","4","encoding","encoding","136","Box_FirstAidOpen.jpg","36","0","845"
"4","4","encoding","encoding","137","Coconut.jpg","36","0","274"
"4","4","encoding","encoding","138","Toy_Shapesorter.jpg","37","0","47"
"4","4","encoding","encoding","139","Bandage_Wrap.jpg","36","0","411"
"4","4","encoding","encoding","140","Eraser.jpg","37","0","200"
"4","4","encoding","encoding","141","Icepick.jpg","36","0","357"
"4","4","encoding","encoding","142","Speaker_Computer.jpg","37","0","2"
"4","4","encoding","encoding","143","Tiara.jpg","36","0","424"
"4","4","encoding","encoding","144","Bible.jpg","37","0","93"
"4","4","encoding","encoding","145","Lips_Real.jpg","36","0","538"
"4","4","encoding","encoding","146","Crossbow.jpg","37","0","463"
"4","4","encoding","encoding","147","PocketKnife.jpg","36","0","619"
"4","4","encoding","encoding","148","Lynx.jpg","37","0","376"
"4","4","encoding","encoding","149","Statue_Jesus.jpg","37","0","605"
"4","4","encoding","encoding","150","PaperShredder.jpg","36","0","42"
"4","4","encoding","encoding","151","Candle_Blue.jpg","36","0","174"
"4","4","encoding","encoding","152","Camera_Security.jpg","37","0","107"
"4","4","encoding","encoding","153","Pajamas.jpg","37","0","560"
"4","4","encoding","encoding","154","GiftBow.jpg","37","0","812"
"4","4","encoding","encoding","155","Faucet.jpg","37","0","761"
"4","4","encoding","encoding","156","WagonPilgrim.jpg","37","0","294"
"4","4","encoding","encoding","157","Pants_Jeans.jpg","37","0","498"
"4","4","encoding","encoding","158","Dolly.jpg","36","0","848"
"4","4","encoding","encoding","159","Hat_Party.jpg","36","0","165"
"4","4","encoding","encoding","160","CashRegister_Modern.jpg","37","0","777"
"4","4","encoding","encoding","161","GasStation.jpg","36","0","94"
"4","4","encoding","encoding","162","EyeDrops.jpg","37","0","315"
"4","4","encoding","encoding","163","HairClip.jpg","37","0","711"
"4","4","encoding","encoding","164","CarSeat.jpg","37","0","236"
"4","4","encoding","encoding","165","DryingMachine.jpg","36","0","497"
"4","4","encoding","encoding","166","Earrings_Dangling.jpg","36","0","894"
"4","4","encoding","encoding","167","Lychee.jpg","37","0","82"
"4","4","encoding","encoding","168","Lettuce_GreenLeaf.jpg","37","0","375"
"4","4","encoding","encoding","169","Nuts_PeanutsPeeled.jpg","36","0","371"
"4","4","encoding","encoding","170","TomatoSauce.jpg","36","0","136"
"4","4","encoding","encoding","171","Clip_Chip.jpg","36","0","101"
"4","4","encoding","encoding","172","Bird_Parrot.jpg","36","0","322"
"4","4","encoding","encoding","173","Nutcracker.jpg","37","0","63"
"4","4","encoding","encoding","174","PenHolder.jpg","37","0","372"
"4","4","encoding","encoding","175","MonaLisa.jpg","36","0","433"
"4","4","encoding","encoding","176","Pipe_Drain.jpg","36","0","878"
"4","4","encoding","encoding","177","Fuse.jpg","37","0","155"
"4","4","retrieval","old_objects","1","Pen_Ballpoint.jpg","36","1","418"
"4","4","retrieval","new_objects","2","Makeup_Mascara.jpg","36","0","31"
"4","4","retrieval","old_objects","3","CoffeeGrinder.jpg","37","0","371"
"4","4","retrieval","new_objects","4","Hat_Colonial.jpg","36","0","394"
"4","4","retrieval","old_objects","5","IceCubes copy.jpg","37","0","304"
"4","4","retrieval","old_objects","6","Nuts_PeanutsPeeled.jpg","36","1","305"
"4","4","retrieval","old_objects","7","Jar_Capers.jpg","37","0","362"
"4","4","retrieval","old_objects","8","WaterHeater.jpg","36","1","385"
"4","4","retrieval","old_objects","9","Dolly.jpg","37","0","383"
"4","4","retrieval","new_objects","10","fries.jpg","36","0","413"
"4","4","retrieval","new_objects","11","Candelabra.jpg","37","1","378"
"4","4","retrieval","new_objects","12","Toy_JackInTheBox.jpg","36","0","551"
"4","4","retrieval","new_objects","13","Avocado.jpg","36","0","143"
"4","4","retrieval","new_objects","14","Sign_NoParking.jpg","37","1","374"
"4","4","retrieval","old_objects","15","Icepick.jpg","36","1","413"
"4","4","retrieval","new_objects","16","Seashell_BayScallop.jpg","36","0","10"
"4","4","retrieval","old_objects","17","SaxophoneSoprano.jpg","37","0","407"
"4","4","retrieval","old_objects","18","Mirror_Makeup.jpg","36","1","381"
"4","4","retrieval","new_objects","19","Flamingo_Real.jpg","37","1","363"
"4","4","retrieval","new_objects","20","Cougar.jpg","36","0","345"
"4","4","retrieval","old_objects","21","Glove_Rubber.jpg","37","0","305"
"4","4","retrieval","old_objects","22","PocketKnife.jpg","36","1","322"
"4","4","retrieval","old_objects","23","RibbonPin.jpg","37","0","307"
"4","4","retrieval","new_objects","24","DivingBoard.jpg","36","0","340"
"4","4","retrieval","old_objects","25","Statue_Jesus.jpg","37","0","324"
"4","4","retrieval","old_objects","26","Earrings_Dangling.jpg","36","1","332"
"4","4","retrieval","new_objects","27","Fryingpan.jpg","37","1","316"
"4","4","retrieval","new_objects","28","BloodpPresureCuff.jpg","36","0","349"
"4","4","retrieval","new_objects","29","Dog_ChowChow.jpg","37","1","324"
"4","4","retrieval","old_objects","30","PotatoMasher_Grate.jpg","37","0","445"
"4","4","retrieval","old_objects","31","Stool_Camping.jpg","36","1","224"
"4","4","retrieval","old_objects","32","Steam_Cleaner.jpg","36","1","133"
"4","4","retrieval","old_objects","33","Squash_Pumpkin.jpg","36","1","294"
"4","4","retrieval","old_objects","34","Bird_Duck.jpg","37","0","495"
"4","4","retrieval","old_objects","35","DonaldDuck_Toy.jpg","36","1","561"
"4","4","retrieval","old_objects","36","Chair_PlasticGreen.jpg","37","0","312"
"4","4","retrieval","old_objects","37","Barrel_Upright.jpg","36","1","458"
"4","4","retrieval","old_objects","38","Chairs_Stacked.jpg","36","1","93"
"4","4","retrieval","new_objects","39","Cage_Hamster.jpg","36","0","39"
"4","4","retrieval","new_objects","40","Caribou.jpg","37","1","395"
"4","4","retrieval","new_objects","41","RibbonString.jpg","36","0","408"
"4","4","retrieval","old_objects","42","PaperTowel_Brown.jpg","37","0","509"
"4","4","retrieval","new_objects","43","Ball_8.jpg","36","0","446"
"4","4","retrieval","new_objects","44","Vest.jpg","36","0","1"
"4","4","retrieval","old_objects","45","Sign_Parking.jpg","37","0","367"
"4","4","retrieval","old_objects","46","TomatoSauce.jpg","36","1","374"
"4","4","retrieval","new_objects","47","Currants.jpg","37","1","276"
"4","4","retrieval","new_objects","48","Ramekin.jpg","36","0","383"
"4","4","retrieval","new_objects","49","RecorderCassette.jpg","37","1","477"
"4","4","retrieval","old_objects","50","Grill_Gas.jpg","36","1","335"
"4","4","retrieval","old_objects","51","CinderBlock.jpg","37","0","127"
"4","4","retrieval","old_objects","52","Shoes_WomenBoots.jpg","36","1","208"
"4","4","retrieval","old_objects","53","Knee.jpg","37","0","205"
"4","4","retrieval","old_objects","54","Pants_Jeans.jpg","36","1","274"
"4","4","retrieval","new_objects","55","Barrel_Wine.jpg","37","1","301"
"4","4","retrieval","new_objects","56","Thermostat_Digital.jpg","36","0","278"
"4","4","retrieval","new_objects","57","IceCrusher.jpg","37","1","233"
"4","4","retrieval","new_objects","58","Lettuce_Romaine.jpg","36","0","197"
"4","4","retrieval","old_objects","59","WagonPilgrim.jpg","37","0","370"
"4","4","retrieval","old_objects","60","GiftBow.jpg","36","1","361"
"4","4","retrieval","new_objects","62","Dolphine.jpg","37","1","222"
"4","4","retrieval","old_objects","63","Nutcracker.jpg","36","1","323"
"4","4","retrieval","new_objects","64","Backpack_Travel.jpg","37","1","356"
"4","4","retrieval","old_objects","65","OnionRings.jpg","36","1","291"
"4","4","retrieval","new_objects","66","Fork_Fondue.jpg","37","1","316"
"4","4","retrieval","old_objects","67","Lynx.jpg","36","1","445"
"4","4","retrieval","new_objects","68","PersonWooden.jpg","37","1","280"
"4","4","retrieval","new_objects","69","Stepper.jpg","36","0","355"
"4","4","retrieval","new_objects","70","Motorcycle.jpg","37","1","297"
"4","4","retrieval","new_objects","71","Cable_AudioSplitter.jpg","36","0","330"
"4","4","retrieval","new_objects","72","Toys_Lego.jpg","37","1","314"
"4","4","retrieval","old_objects","73","Cornucopia.jpg","36","1","299"
"4","4","retrieval","new_objects","74","Toy_Train.jpg","37","1","356"
"4","4","retrieval","old_objects","75","TeethMould.jpg","36","1","324"
"4","4","retrieval","new_objects","76","Window.jpg","37","1","268"
"4","4","retrieval","new_objects","77","MouthGuard.jpg","36","0","367"
"4","4","retrieval","new_objects","78","DentalProbe.jpg","37","1","133"
"4","4","retrieval","new_objects","79","Shovel_Sandbox.jpg","36","0","237"
"4","4","retrieval","old_objects","80","Flashlight.jpg","37","0","169"
"4","4","retrieval","new_objects","81","House_CeramicGingerbread.jpg","36","0","296"
"4","4","retrieval","new_objects","82","Match.jpg","37","1","193"
"4","4","retrieval","new_objects","83","LampPost_ThreeBulbs.jpg","36","0","86"
"4","4","retrieval","old_objects","84","Drum_Cymbal.jpg","36","1","288"
"4","4","retrieval","new_objects","85","MassageRoller.jpg","37","1","250"
"4","4","retrieval","old_objects","86","Toy_BeadMaze.jpg","37","0","142"
"4","4","retrieval","new_objects","87","Corkboard.jpg","36","0","133"
"4","4","retrieval","old_objects","88","Bottle_Beer.jpg","37","0","30"
"4","4","retrieval","old_objects","89","SolderingWire.jpg","36","1","283"
"4","4","retrieval","old_objects","90","ElasticBand.jpg","36","1","93"
"4","4","retrieval","old_objects","91","FileFolder.jpg","36","1","7"
"4","4","retrieval","old_objects","92","Cracker_Saltine.jpg","36","1","269"
"4","4","retrieval","old_objects","93","Bag_Grains.jpg","36","1","192"
"4","4","retrieval","new_objects","94","Paddle_Canoe.jpg","36","0","70"
"4","4","retrieval","old_objects","95","Walkman.jpg","36","1","57"
"4","4","retrieval","new_objects","96","FileDivider.jpg","36","0","45"
"4","4","retrieval","old_objects","97","Tiara.jpg","37","0","185"
"4","4","retrieval","old_objects","98","Bandage_Wrap.jpg","36","1","111"
"4","4","retrieval","new_objects","99","DusterFeather.jpg","36","0","16"
"4","4","retrieval","new_objects","100","SaladCaesar.jpg","36","0","173"
"4","4","retrieval","old_objects","101","Box_WoodenOpen.jpg","36","1","211"
"4","4","retrieval","old_objects","102","Lips_Real.jpg","36","1","176"
"4","4","retrieval","old_objects","103","DryingMachine.jpg","37","0","7"
"4","4","retrieval","old_objects","104","MonaLisa.jpg","37","0","117"
"4","4","retrieval","new_objects","105","Beaker.jpg","36","0","285"
"4","4","retrieval","old_objects","106","Castle_Sand.jpg","37","0","16"
"4","4","retrieval","old_objects","107","DiaperChangingStation.jpg","36","1","173"
"4","4","retrieval","old_objects","108","Crab.jpg","36","1","68"
"4","4","retrieval","old_objects","109","Elephant.jpg","36","1","583"
"4","4","retrieval","old_objects","110","Hat_Party.jpg","36","1","221"
"4","4","retrieval","old_objects","111","Toy_Shapesorter.jpg","37","0","305"
"4","4","retrieval","new_objects","112","Candy_Cotton.jpg","36","0","291"
"4","4","retrieval","new_objects","113","BottleOpener.jpg","36","0","309"
"4","4","retrieval","old_objects","114","Dreamcatcher.jpg","36","1","118"
"4","4","retrieval","old_objects","115","Balalaika.jpg","37","0","31"
"4","4","retrieval","new_objects","116","Partition.jpg","36","0","19"
"4","4","retrieval","old_objects","117","Toolbox_BlackOpen.jpg","36","1","88"
"4","4","retrieval","old_objects","118","DoubleBass.jpg","37","0","122"
"4","4","retrieval","old_objects","119","ClothesDryingRack.jpg","37","0","83"
"4","4","retrieval","old_objects","120","Necklace_Black.jpg","37","0","13"
"4","4","retrieval","new_objects","121","Tray_Cafeteria.jpg","36","0","1034"
"4","4","retrieval","new_objects","123","Mask_Happy.jpg","36","0","171"
"4","4","retrieval","old_objects","124","Flamingo_Cartoon.jpg","37","0","233"
"4","4","retrieval","new_objects","125","PaperStack.jpg","37","1","133"
"4","4","retrieval","new_objects","126","Toy_HockeyStick.jpg","37","1","101"
"4","4","retrieval","old_objects","127","Knife_Butter.jpg","36","1","310"
"4","4","retrieval","new_objects","128","Toy_StackingRing.jpg","36","0","111"
"4","4","retrieval","new_objects","129","NeedlesAcupuncture.jpg","36","0","800"
"4","4","retrieval","new_objects","130","ServiceBell.jpg","37","1","45"
"4","4","retrieval","old_objects","131","Razor.jpg","36","1","225"
"4","4","retrieval","old_objects","132","Faucet.jpg","37","0","229"
"4","4","retrieval","new_objects","133","Tomato.jpg","36","0","385"
"4","4","retrieval","new_objects","134","Ashtray_Cigarettes.jpg","37","1","119"
"4","4","retrieval","old_objects","135","Bird_Parrot.jpg","36","1","656"
"4","4","retrieval","old_objects","136","Bucket_Halloween.jpg","37","0","203"
"4","4","retrieval","old_objects","137","SnowGlobe.jpg","37","0","17"
"4","4","retrieval","old_objects","138","SewingPin_Single.jpg","36","1","519"
"4","4","retrieval","old_objects","139","Brush_Shoe.jpg","37","0","159"
"4","4","retrieval","new_objects","140","Computer_CPU.jpg","36","0","430"
"4","4","retrieval","old_objects","141","WaterColorPaintset.jpg","37","0","138"
"4","4","retrieval","new_objects","142","Gun_Bazooka.jpg","36","0","402"
"4","4","retrieval","new_objects","143","Tickets_PrintWords.jpg","36","0","543"
"4","4","retrieval","new_objects","144","Mitt_Blue.jpg","37","1","231"
"4","4","retrieval","new_objects","145","Toy_PandaPlushie.jpg","36","0","187"
"4","4","retrieval","new_objects","146","SoapDish.jpg","37","1","73"
"4","4","retrieval","old_objects","147","CapGraduation.jpg","36","1","132"
"4","4","retrieval","new_objects","148","Carbiner_Ascender.jpg","37","1","84"
"4","4","retrieval","new_objects","149","SundaeBanana.jpg","36","0","110"
"4","4","retrieval","new_objects","150","Drum_Ramadan.jpg","37","1","39"
"4","4","retrieval","old_objects","151","Shrimp.jpg","36","1","134"
"4","4","retrieval","new_objects","152","Container_RedPlastic.jpg","37","1","35"
"4","4","retrieval","old_objects","153","Helmet_Bicycle.jpg","37","0","80"
"4","4","retrieval","new_objects","154","Truck_Army.jpg","36","0","353"
"4","4","retrieval","old_objects","155","LightBulb_Christmas.jpg","37","0","313"
"4","4","retrieval","old_objects","156","CarJack.jpg","36","1","378"
"4","4","retrieval","new_objects","157","Toy_BlocksPlastic Colourful.jpg","37","1","352"
"4","4","retrieval","old_objects","158","Lock_Key.jpg","36","1","1159"
"4","4","retrieval","new_objects","159","Towel.jpg","37","1","126"
"4","4","retrieval","new_objects","160","SofaAntique.jpg","37","1","119"
"4","4","retrieval","new_objects","161","Box_Staples.jpg","36","0","407"
"4","4","retrieval","old_objects","162","Crossbow.jpg","37","0","284"
"4","4","retrieval","old_objects","163","Bird_Toucan.jpg","36","1","343"
"4","4","retrieval","old_objects","164","Seal_animal.jpg","37","0","463"
"4","4","retrieval","new_objects","165","Pineapple.jpg","36","0","217"
"4","4","retrieval","old_objects","166","Canister_Tea.jpg","37","0","78"
"4","4","retrieval","new_objects","167","Castle_Model.jpg","36","0","537"
"4","4","retrieval","new_objects","168","SewingPin_Cushion.jpg","37","1","256"
"4","4","retrieval","old_objects","169","Mask_VenetianLongNose.jpg","36","1","340"
"4","4","retrieval","new_objects","170","TestTube_MultipleAndRack.jpg","37","1","244"
"4","4","retrieval","old_objects","171","Camera_Security.jpg","36","1","304"
"4","4","retrieval","old_objects","172","Snowpea.jpg","37","0","561"
"4","4","retrieval","old_objects","173","Bible.jpg","37","0","432"
"4","4","retrieval","old_objects","174","RiceRaw.jpg","36","1","269"
"4","4","retrieval","old_objects","175","Staircase_Straight.jpg","37","0","295"
"4","4","retrieval","old_objects","176","Cage_Bird.jpg","37","0","505"
"4","4","retrieval","old_objects","177","Cannister_Gas.jpg","36","1","75"
"4","4","retrieval","old_objects","178","Eraser.jpg","37","0","29"
"4","4","retrieval","new_objects","179","Box_Notepaper.jpg","36","0","322"
"4","4","retrieval","new_objects","180","Spraybottle.jpg","0","0","2000"
"4","4","retrieval","new_objects","181","Toy_BearBlackPlastic.jpg","36","0","614"
"4","4","retrieval","old_objects","182","HairClip.jpg","37","0","332"
"4","4","retrieval","old_objects","184","JoustingSpear.jpg","36","1","474"
"4","4","retrieval","old_objects","185","BuildingChinese.jpg","37","0","164"
"4","4","retrieval","new_objects","186","PumiceStone.jpg","36","0","467"
"4","4","retrieval","new_objects","187","Grenade.jpg","37","1","445"
"4","4","retrieval","old_objects","188","TireRims.jpg","36","1","497"
"4","4","retrieval","old_objects","189","Helmet_Soldier.jpg","37","0","338"
"4","4","retrieval","old_objects","190","Tree_ChristmasMini.jpg","36","1","515"
"4","4","retrieval","old_objects","191","RollerBlade.jpg","37","0","436"
"4","4","retrieval","old_objects","192","Box_FirstAidOpen.jpg","36","1","320"
"4","4","retrieval","new_objects","193","Sign_SlipperyRoad.jpg","36","0","256"
"4","4","retrieval","new_objects","194","Bowl_Lemons.jpg","37","1","363"
"4","4","retrieval","old_objects","195","GasStation.jpg","36","1","442"
"4","4","retrieval","old_objects","196","Radio_Modern.jpg","37","0","366"
"4","4","retrieval","new_objects","197","Mango.jpg","36","0","421"
"4","4","retrieval","new_objects","198","Chair_Barber.jpg","36","0","65"
"4","4","retrieval","old_objects","199","Candle_Blue.jpg","37","0","356"
"4","4","retrieval","old_objects","200","Carabiner_Orange.jpg","37","0","132"
"4","4","retrieval","new_objects","201","KnifeHolder.jpg","36","0","68"
"4","4","retrieval","new_objects","202","Card_TwoSpade.jpg","36","0","22"
"4","4","retrieval","new_objects","203","Lock_Combination.jpg","36","0","283"
"4","4","retrieval","new_objects","204","Boat_Trailer.jpg","37","1","229"
"4","4","retrieval","old_objects","205","Jack.jpg","36","1","482"
"4","4","retrieval","new_objects","206","Coatrack.jpg","36","0","12"
"4","4","retrieval","new_objects","207","SnowmanDecor.jpg","36","0","409"
"4","4","retrieval","old_objects","208","Ghost.jpg","36","1","222"
"4","4","retrieval","new_objects","209","Thermos_MetalSleek.jpg","37","1","10"
"4","4","retrieval","new_objects","210","Kite_Rainbow.jpg","36","0","247"
"4","4","retrieval","old_objects","211","PaperShredder.jpg","36","1","123"
"4","4","retrieval","new_objects","212","ShoulderPads.jpg","36","0","172"
"4","4","retrieval","old_objects","213","Scalpel.jpg","36","1","50"
"4","4","retrieval","old_objects","214","LumiereBeautyBeast.jpg","36","1","119"
"4","4","retrieval","old_objects","215","CarSeat.jpg","36","1","239"
"4","4","retrieval","new_objects","216","Pencil.jpg","36","0","99"
"4","4","retrieval","new_objects","217","Playard.jpg","37","1","109"
"4","4","retrieval","old_objects","218","Shark_Hammerhead.jpg","36","1","102"
"4","4","retrieval","new_objects","219","Keys_Bunch.jpg","37","1","39"
"4","4","retrieval","old_objects","220","SelfieStick.jpg","36","1","196"
"4","4","retrieval","new_objects","221","Bus_DoubleDecker.jpg","36","0","202"
"4","4","retrieval","old_objects","222","Boxcutter.jpg","37","0","79"
"4","4","retrieval","old_objects","223","GogglesSwim.jpg","36","1","298"
"4","4","retrieval","new_objects","224","Backhoe.jpg","37","1","259"
"4","4","retrieval","old_objects","225","Glass_Cup.jpg","37","0","30"
"4","4","retrieval","old_objects","226","Ashtray_Empty.jpg","36","1","43"
"4","4","retrieval","old_objects","227","Toaster_MetalSleek.jpg","36","1","391"
"4","4","retrieval","new_objects","228","Heater_ElectricPortable.jpg","36","0","124"
"4","4","retrieval","new_objects","229","Dress_Blue.jpg","36","0","381"
"4","4","retrieval","new_objects","230","Lion.jpg","36","0","106"
"4","4","retrieval","old_objects","231","Knife_Kitchen.jpg","36","1","148"
"4","4","retrieval","new_objects","232","Keychain_Metal.jpg","36","0","228"
"4","4","retrieval","old_objects","233","Syringe_Needle.jpg","36","1","152"
"4","4","retrieval","old_objects","234","Pajamas.jpg","36","1","104"
"4","4","retrieval","new_objects","235","Jar_Strawberry.jpg","36","0","225"
"4","4","retrieval","old_objects","236","FortuneCookie.jpg","36","1","406"
"4","4","retrieval","old_objects","237","Weights_Dumbells.jpg","37","0","180"
"4","4","retrieval","old_objects","238","Bread_Carrot.jpg","36","1","322"
"4","4","retrieval","old_objects","239","FlipFlop_PairBlue.jpg","36","1","1411"
"4","4","retrieval","new_objects","240","Statue_Head.jpg","37","1","287"
"4","4","retrieval","new_objects","241","JumpingJack.jpg","36","0","121"
"4","4","retrieval","new_objects","242","Brush_Nail.jpg","36","0","194"
"4","4","retrieval","old_objects","243","Lettuce_GreenLeaf.jpg","36","1","312"
"4","4","retrieval","new_objects","245","Toy_Slinky.jpg","37","1","384"
"4","4","retrieval","new_objects","246","Fish_Rockbass.jpg","36","0","102"
"4","4","retrieval","old_objects","247","Defribrillator.jpg","36","1","119"
"4","4","retrieval","old_objects","248","Computer_ExpansionCard.jpg","36","1","136"
"4","4","retrieval","old_objects","249","Cranberry.jpg","36","1","120"
"4","4","retrieval","old_objects","250","Star.jpg","36","1","65"
"4","4","retrieval","new_objects","251","Bellows.jpg","36","0","12"
"4","4","retrieval","old_objects","252","Pumpkin.jpg","36","1","89"
"4","4","retrieval","new_objects","253","Envelope_Manila.jpg","37","1","115"
"4","4","retrieval","old_objects","254","Bottle_Bleach.jpg","37","0","44"
"4","4","retrieval","new_objects","255","Telephone_TinCan.jpg","37","1","0"
"4","4","retrieval","old_objects","256","Nametag.jpg","36","1","477"
"4","4","retrieval","new_objects","257","BridgeWooden.jpg","36","0","151"
"4","4","retrieval","old_objects","258","Chainsaw.jpg","36","1","118"
"4","4","retrieval","new_objects","259","Shrub_Cedar.jpg","37","1","71"
"4","4","retrieval","new_objects","260","Hand.jpg","36","0","234"
"4","4","retrieval","old_objects","261","Jug_GallonWhite.jpg","37","0","182"
"4","4","retrieval","old_objects","262","Bat_Cricket.jpg","36","1","181"
"4","4","retrieval","old_objects","263","Speaker_Computer.jpg","37","0","35"
"4","4","retrieval","new_objects","264","Glass_Bowl.jpg","36","0","47"
"4","4","retrieval","new_objects","265","ColoringSet.jpg","36","0","427"
"4","4","retrieval","new_objects","266","Hammer_Reflex.jpg","37","1","207"
"4","4","retrieval","old_objects","267","Jar_Cotton.jpg","36","1","141"
"4","4","retrieval","new_objects","268","MalletJudge.jpg","37","1","76"
"4","4","retrieval","new_objects","269","Horseshoe.jpg","36","0","271"
"4","4","retrieval","old_objects","270","Walker_Blue.jpg","36","1","258"
"4","4","retrieval","old_objects","271","ChalkLineTool.jpg","36","1","374"
"4","4","retrieval","new_objects","272","ClothRed.jpg","36","0","604"
"4","4","retrieval","old_objects","273","Truck_Dump.jpg","36","1","394"
"4","4","retrieval","new_objects","274","Speaker_OnStand.jpg","36","0","40"
"4","4","retrieval","new_objects","275","Table_Set.jpg","36","0","300"
"4","4","retrieval","new_objects","276","Candy_Caramel.jpg","37","1","189"
"4","4","retrieval","old_objects","277","PenHolder.jpg","37","0","140"
"4","4","retrieval","old_objects","278","SolderingIron.jpg","37","0","340"
"4","4","retrieval","old_objects","279","DryRack_Clothes.jpg","37","0","140"
"4","4","retrieval","old_objects","280","Swan.jpg","36","1","252"
"4","4","retrieval","old_objects","281","HairDryer.jpg","37","0","527"
"4","4","retrieval","new_objects","282","Helicopter.jpg","37","1","431"
"4","4","retrieval","old_objects","283","EyeDrops.jpg","36","1","155"
"4","4","retrieval","new_objects","284","Boots_Hiking.jpg","37","1","131"
"4","4","retrieval","new_objects","285","Canister_Oil.jpg","36","0","115"
"4","4","retrieval","new_objects","286","Toy_Chicken.jpg","37","1","188"
"4","4","retrieval","new_objects","287","Teabag.jpg","36","0","410"
"4","4","retrieval","old_objects","288","Tweezers.jpg","37","0","343"
"4","4","retrieval","new_objects","289","Lipstick.jpg","36","0","351"
"4","4","retrieval","new_objects","290","ProjectorScreen.jpg","37","1","278"
"4","4","retrieval","new_objects","291","GingerbreadMan.jpg","36","0","456"
"4","4","retrieval","old_objects","292","Rock_Mimetite.jpg","37","0","539"
"4","4","retrieval","old_objects","293","Bowl_Chinese.jpg","36","1","291"
"4","4","retrieval","new_objects","294","Bag_Gift.jpg","36","0","229"
"4","4","retrieval","new_objects","295","Switch_Power.jpg","36","0","114"
"4","4","retrieval","new_objects","296","Piano_Keyboard.jpg","37","1","114"
"4","4","retrieval","new_objects","297","Crate_Milk.jpg","37","1","243"
"4","4","retrieval","old_objects","298","Pipe_Drain.jpg","37","0","263"
"4","4","retrieval","new_objects","299","Paddle_Bread.jpg","37","1","337"
"4","4","retrieval","new_objects","300","PhoneCase.jpg","37","1","297"
"4","4","retrieval","new_objects","301","TrapAnimal.jpg","0","0","2000"
"4","4","retrieval","new_objects","302","Chopsticks.jpg","37","1","783"
"4","4","retrieval","old_objects","303","ComputerKeyboard_F1.jpg","36","1","253"
"4","4","retrieval","new_objects","304","Flags_CheckeredRacing.jpg","37","1","136"
"4","4","retrieval","new_objects","306","MannequinHead.jpg","0","0","2000"
"4","4","retrieval","old_objects","307","HairClipper.jpg","36","1","400"
"4","4","retrieval","new_objects","308","Plate_Decorative.jpg","37","1","181"
"4","4","retrieval","old_objects","309","Bread_Roll.jpg","36","1","459"
"4","4","retrieval","old_objects","310","CementFinisher.jpg","37","0","279"
"4","4","retrieval","new_objects","311","Spider.jpg","36","0","378"
"4","4","retrieval","new_objects","312","Organ.jpg","37","1","40"
"4","4","retrieval","old_objects","313","Gun_Glue.jpg","36","1","301"
"4","4","retrieval","old_objects","314","Egg_Wooden.jpg","37","0","294"
"4","4","retrieval","new_objects","315","Trumpet.jpg","36","0","288"
"4","4","retrieval","new_objects","316","Oars.jpg","37","1","130"
"4","4","retrieval","new_objects","317","Noisemaker.jpg","36","0","185"
"4","4","retrieval","old_objects","318","Garlic_Clove.jpg","36","1","216"
"4","4","retrieval","new_objects","319","Ring_Diamond.jpg","37","1","508"
"4","4","retrieval","old_objects","320","Coconut.jpg","37","0","421"
"4","4","retrieval","new_objects","321","Grape.jpg","37","1","98"
"4","4","retrieval","new_objects","322","White_Screen.jpg","37","1","364"
"4","4","retrieval","old_objects","323","Pear_Yellow.jpg","37","0","251"
"4","4","retrieval","new_objects","324","Teapot.jpg","36","0","38"
"4","4","retrieval","old_objects","325","Starfish.jpg","36","1","266"
"4","4","retrieval","new_objects","326","Harp.jpg","36","0","205"
"4","4","retrieval","old_objects","327","Hotdog_WithBun.jpg","36","1","314"
"4","4","retrieval","new_objects","328","Shoes_DutchClogs.jpg","36","0","315"
"4","4","retrieval","old_objects","329","Tape_Washi.jpg","36","1","300"
"4","4","retrieval","new_objects","330","RadioactiveContainer.jpg","36","0","373"
"4","4","retrieval","old_objects","331","Fuse.jpg","37","0","52"
"4","4","retrieval","new_objects","332","Bagel.jpg","36","0","182"
"4","4","retrieval","new_objects","333","Leek.jpg","37","1","172"
"4","4","retrieval","new_objects","334","Jug_ClayAncient.jpg","37","1","139"
"4","4","retrieval","new_objects","335","Statue_Man.jpg","37","1","267"
"4","4","retrieval","new_objects","336","Pasta_Fusilli.jpg","36","0","45"
"4","4","retrieval","new_objects","337","Tofu.jpg","36","0","265"
"4","4","retrieval","old_objects","338","Lychee.jpg","37","0","13"
"4","4","retrieval","new_objects","339","Stove_WithOven.jpg","36","0","17"
"4","4","retrieval","new_objects","340","Toy_Shark.jpg","36","0","310"
"4","4","retrieval","new_objects","341","MortarPestle_WhiteMarble.jpg","36","0","311"
"4","4","retrieval","old_objects","342","Exercise_Stretch.jpg","36","1","225"
"4","4","retrieval","new_objects","343","Chest.jpg","36","0","221"
"4","4","retrieval","new_objects","344","Film_Single.jpg","36","0","250"
"4","4","retrieval","old_objects","345","EyeExamDevice.jpg","36","1","310"
"4","4","retrieval","new_objects","346","Thimble.jpg","36","0","246"
"4","4","retrieval","new_objects","347","Stick_Stirring.jpg","36","0","713"
"4","4","retrieval","new_objects","348","Exercise_Machine.jpg","36","0","466"
"4","4","retrieval","old_objects","349","Clip_Chip.jpg","37","0","101"
"4","4","retrieval","new_objects","350","Pen_Calligraphy.jpg","37","1","230"
"4","4","retrieval","old_objects","351","Ruler_Digital.jpg","37","0","59"
"4","4","retrieval","new_objects","352","Origami_Boat.jpg","37","1","638"
"4","4","retrieval","old_objects","353","Decoration_ChristmasWhite.jpg","37","0","210"
"4","4","retrieval","old_objects","354","Toy_RabbitPlushie.jpg","37","0","127"
"4","4","retrieval","old_objects","355","CashRegister_Modern.jpg","0","0","2000"
"4","4","demographics_block","gender","1","CashRegister_Modern.jpg","female","1","237399"
"4","4","demographics_block","age","1","CashRegister_Modern.jpg","32","1","237399"
"4","4","demographics_block","education","1","CashRegister_Modern.jpg","15","1","237399"
"4","4","demographics_block","left_right_handed","2","CashRegister_Modern.jpg","Right","1","10424"
"4","4","demographics_block","raceoption1","2","CashRegister_Modern.jpg","","1","10424"
"4","4","demographics_block","raceoption2","2","CashRegister_Modern.jpg","","1","10424"
"4","4","demographics_block","raceoption3","2","CashRegister_Modern.jpg","","1","10424"
"4","4","demographics_block","raceoption4","2","CashRegister_Modern.jpg","","1","10424"
"4","4","demographics_block","raceoption5","2","CashRegister_Modern.jpg","","1","10424"
"4","4","demographics_block","raceoption6","2","CashRegister_Modern.jpg","5","1","10424"
"4","4","demographics_block","raceoption7","2","CashRegister_Modern.jpg","","1","10424"
"4","4","demographics_block","raceoption8","2","CashRegister_Modern.jpg","","1","10424"
"4","4","demographics_block","raceoption9","2","CashRegister_Modern.jpg","","1","10424"
"4","4","demographics_block","raceother","2","CashRegister_Modern.jpg","","1","10424"
"4","4","demographics_block","raceother","2","CashRegister_Modern.jpg","","1","10424"
"4","4","demographics_block","english_language","2","CashRegister_Modern.jpg","Yes","1","10424"
"4","4","demographics_block","english_languageother","2","CashRegister_Modern.jpg","","1","10424"
"4","4","demographics_block","eyesight","3","CashRegister_Modern.jpg","Yes","1","4939"
"4","4","demographics_block","colorblind","3","CashRegister_Modern.jpg","No","1","4939"
"4","4","worker_id_block","worker_id_textbox","1","CashRegister_Modern.jpg","A2957UI30WYOVW","1","92101"
"8","8","encoding","encoding","1","Bottle_Beer.jpg","36","0","1108"
"8","8","encoding","encoding","2","Knife_Kitchen.jpg","37","0","180"
"8","8","encoding","encoding","3","Balalaika.jpg","36","0","987"
"8","8","encoding","encoding","4","Coconut.jpg","37","0","571"
"8","8","encoding","encoding","5","Pumpkin.jpg","37","0","46"
"8","8","encoding","encoding","6","GiftBow.jpg","36","0","81"
"8","8","encoding","encoding","7","Snowpea.jpg","36","0","60"
"8","8","encoding","encoding","8","CashRegister_Modern.jpg","37","0","118"
"8","8","encoding","encoding","9","Scalpel.jpg","37","0","69"
"8","8","encoding","encoding","10","TeethMould.jpg","36","0","113"
"8","8","encoding","encoding","11","Cannister_Gas.jpg","37","0","83"
"8","8","encoding","encoding","12","Bread_Carrot.jpg","37","0","18"
"8","8","encoding","encoding","13","Eraser.jpg","36","0","73"
"8","8","encoding","encoding","14","Computer_ExpansionCard.jpg","37","0","185"
"8","8","encoding","encoding","15","Nametag.jpg","36","0","11"
"8","8","encoding","encoding","16","Camera_Security.jpg","37","0","55"
"8","8","encoding","encoding","17","EyeDrops.jpg","37","0","130"
"8","8","encoding","encoding","18","Bottle_Bleach.jpg","37","0","127"
"8","8","encoding","encoding","19","DryRack_Clothes.jpg","36","0","95"
"8","8","encoding","encoding","20","Gun_Glue.jpg","37","0","18"
"8","8","encoding","encoding","21","Faucet.jpg","37","0","103"
"8","8","encoding","encoding","22","Bird_Parrot.jpg","36","0","44"
"8","8","encoding","encoding","23","Cranberry.jpg","36","0","176"
"8","8","encoding","encoding","24","Bat_Cricket.jpg","37","0","202"
"8","8","encoding","encoding","25","Castle_Sand.jpg","37","0","33"
"8","8","encoding","encoding","26","WaterHeater.jpg","36","0","85"
"8","8","encoding","encoding","27","DryingMachine.jpg","37","0","54"
"8","8","encoding","encoding","28","Flashlight.jpg","37","0","16"
"8","8","encoding","encoding","29","Lettuce_GreenLeaf.jpg","37","0","113"
"8","8","encoding","encoding","30","Nuts_PeanutsPeeled.jpg","36","0","160"
"8","8","encoding","encoding","31","HairClipper.jpg","37","0","30"
"8","8","encoding","encoding","32","PenHolder.jpg","36","0","118"
"8","8","encoding","encoding","33","Pear_Yellow.jpg","36","0","30"
"8","8","encoding","encoding","34","Bandage_Wrap.jpg","36","0","0"
"8","8","encoding","encoding","35","Shoes_WomenBoots.jpg","37","0","83"
"8","8","encoding","encoding","36","Ashtray_Empty.jpg","37","0","255"
"8","8","encoding","encoding","37","Radio_Modern.jpg","37","0","208"
"8","8","encoding","encoding","38","Toy_RabbitPlushie.jpg","37","0","163"
"8","8","encoding","encoding","39","Jar_Cotton.jpg","37","0","44"
"8","8","encoding","encoding","40","Mirror_Makeup.jpg","37","0","169"
"8","8","encoding","encoding","41","SolderingIron.jpg","36","0","112"
"8","8","encoding","encoding","42","EyeExamDevice.jpg","36","0","160"
"8","8","encoding","encoding","43","Statue_Jesus.jpg","36","0","1"
"8","8","encoding","encoding","44","Squash_Pumpkin.jpg","37","0","82"
"8","8","encoding","encoding","45","HairDryer.jpg","37","0","1091"
"8","8","encoding","encoding","46","Knee.jpg","36","0","83"
"8","8","encoding","encoding","47","Ghost.jpg","37","0","11"
"8","8","encoding","encoding","48","Candle_Blue.jpg","36","0","114"
"8","8","encoding","encoding","49","Bible.jpg","36","0","21"
"8","8","encoding","encoding","50","Tape_Washi.jpg","37","0","45"
"8","8","encoding","encoding","51","Shark_Hammerhead.jpg","36","0","118"
"8","8","encoding","encoding","52","Jug_GallonWhite.jpg","37","0","802"
"8","8","encoding","encoding","53","Canister_Tea.jpg","37","0","71"
"8","8","encoding","encoding","54","PaperShredder.jpg","37","0","145"
"8","8","encoding","encoding","55","Tree_ChristmasMini.jpg","37","0","80"
"8","8","encoding","encoding","56","Pen_Ballpoint.jpg","37","0","55"
"8","8","encoding","encoding","57","Walker_Blue.jpg","37","0","52"
"8","8","encoding","encoding","58","Chairs_Stacked.jpg","37","0","57"
"8","8","encoding","encoding","59","Box_FirstAidOpen.jpg","37","0","128"
"8","8","encoding","encoding","60","DoubleBass.jpg","37","0","65"
"8","8","encoding","encoding","62","Jar_Capers.jpg","36","0","883"
"8","8","encoding","encoding","63","Bird_Toucan.jpg","37","0","65"
"8","8","encoding","encoding","64","Syringe_Needle.jpg","0","0","2000"
"8","8","encoding","encoding","65","FileFolder.jpg","0","0","2000"
"8","8","encoding","encoding","66","MonaLisa.jpg","0","0","2000"
"8","8","encoding","encoding","67","Star.jpg","0","0","2000"
"8","8","encoding","encoding","68","ChalkLineTool.jpg","0","0","2000"
"8","8","encoding","encoding","69","ElasticBand.jpg","0","0","2000"
"8","8","encoding","encoding","70","Barrel_Upright.jpg","0","0","2000"
"8","8","encoding","encoding","71","SaxophoneSoprano.jpg","0","0","2000"
"8","8","encoding","encoding","72","RollerBlade.jpg","0","0","2000"
"8","8","encoding","encoding","73","Drum_Cymbal.jpg","37","0","331"
"8","8","encoding","encoding","74","Pants_Jeans.jpg","37","0","1"
"8","8","encoding","encoding","75","Grill_Gas.jpg","37","0","3"
"8","8","encoding","encoding","76","Chair_PlasticGreen.jpg","37","0","10"
"8","8","encoding","encoding","77","PotatoMasher_Grate.jpg","37","0","62"
"8","8","encoding","encoding","78","Truck_Dump.jpg","36","0","33"
"8","8","encoding","encoding","79","Bowl_Chinese.jpg","36","0","62"
"8","8","encoding","encoding","80","PocketKnife.jpg","37","0","101"
"8","8","encoding","encoding","81","Lychee.jpg","37","0","21"
"8","8","encoding","encoding","82","Box_WoodenOpen.jpg","37","0","7"
"8","8","encoding","encoding","83","Bread_Roll.jpg","37","0","227"
"8","8","encoding","encoding","84","TomatoSauce.jpg","36","0","368"
"8","8","encoding","encoding","85","Seal_animal.jpg","36","0","260"
"8","8","encoding","encoding","86","FlipFlop_PairBlue.jpg","37","0","44"
"8","8","encoding","encoding","87","Stool_Camping.jpg","37","0","103"
"8","8","encoding","encoding","88","Garlic_Clove.jpg","36","0","136"
"8","8","encoding","encoding","89","Helmet_Bicycle.jpg","37","0","51"
"8","8","encoding","encoding","90","Razor.jpg","37","0","172"
"8","8","encoding","encoding","91","Egg_Wooden.jpg","37","0","112"
"8","8","encoding","encoding","92","Exercise_Stretch.jpg","37","0","9"
"8","8","encoding","encoding","93","WagonPilgrim.jpg","37","0","74"
"8","8","encoding","encoding","94","Dreamcatcher.jpg","37","0","128"
"8","8","encoding","encoding","95","Cornucopia.jpg","37","0","149"
"8","8","encoding","encoding","96","Speaker_Computer.jpg","36","0","51"
"8","8","encoding","encoding","97","SelfieStick.jpg","37","0","106"
"8","8","encoding","encoding","98","Hotdog_WithBun.jpg","37","0","89"
"8","8","encoding","encoding","99","ComputerKeyboard_F1.jpg","37","0","54"
"8","8","encoding","encoding","100","CarSeat.jpg","37","0","89"
"8","8","encoding","encoding","101","GasStation.jpg","37","0","171"
"8","8","encoding","encoding","102","Shrimp.jpg","36","0","156"
"8","8","encoding","encoding","103","Bird_Duck.jpg","36","0","211"
"8","8","encoding","encoding","104","Dolly.jpg","36","0","112"
"8","8","encoding","encoding","105","Carabiner_Orange.jpg","37","0","63"
"8","8","encoding","encoding","106","Elephant.jpg","36","0","15"
"8","8","encoding","encoding","107","Hat_Party.jpg","36","0","15"
"8","8","encoding","encoding","108","RibbonPin.jpg","36","0","117"
"8","8","encoding","encoding","109","Bag_Grains.jpg","36","0","90"
"8","8","encoding","encoding","110","Bucket_Halloween.jpg","36","0","109"
"8","8","encoding","encoding","111","Mask_VenetianLongNose.jpg","37","0","8"
"8","8","encoding","encoding","112","Glove_Rubber.jpg","36","0","84"
"8","8","encoding","encoding","113","CinderBlock.jpg","36","0","276"
"8","8","encoding","encoding","114","Pipe_Drain.jpg","37","0","50"
"8","8","encoding","encoding","115","Glass_Cup.jpg","37","0","89"
"8","8","encoding","encoding","116","Nutcracker.jpg","36","0","10"
"8","8","encoding","encoding","117","WaterColorPaintset.jpg","36","0","69"
"8","8","encoding","encoding","118","Helmet_Soldier.jpg","36","0","167"
"8","8","encoding","encoding","119","LightBulb_Christmas.jpg","37","0","14"
"8","8","encoding","encoding","120","Lock_Key.jpg","36","0","16"
"8","8","encoding","encoding","121","CoffeeGrinder.jpg","36","0","148"
"8","8","encoding","encoding","123","Toy_Shapesorter.jpg","36","0","638"
"8","8","encoding","encoding","124","Rock_Mimetite.jpg","36","0","16"
"8","8","encoding","encoding","125","CarJack.jpg","37","0","44"
"8","8","encoding","encoding","126","BuildingChinese.jpg","37","0","8"
"8","8","encoding","encoding","127","SolderingWire.jpg","36","0","4"
"8","8","encoding","encoding","128","SnowGlobe.jpg","36","0","162"
"8","8","encoding","encoding","129","RiceRaw.jpg","37","0","253"
"8","8","encoding","encoding","130","Necklace_Black.jpg","37","0","233"
"8","8","encoding","encoding","131","Earrings_Dangling.jpg","36","0","74"
"8","8","encoding","encoding","132","Walkman.jpg","36","0","254"
"8","8","encoding","encoding","133","Lynx.jpg","36","0","119"
"8","8","encoding","encoding","134","LumiereBeautyBeast.jpg","36","0","104"
"8","8","encoding","encoding","135","Defribrillator.jpg","36","0","42"
"8","8","encoding","encoding","136","Ruler_Digital.jpg","36","0","77"
"8","8","encoding","encoding","137","OnionRings.jpg","37","0","997"
"8","8","encoding","encoding","138","SewingPin_Single.jpg","37","0","394"
"8","8","encoding","encoding","139","CapGraduation.jpg","36","0","852"
"8","8","encoding","encoding","140","Flamingo_Cartoon.jpg","36","0","194"
"8","8","encoding","encoding","141","Toy_BeadMaze.jpg","36","0","52"
"8","8","encoding","encoding","142","Crab.jpg","36","0","44"
"8","8","encoding","encoding","143","Sign_Parking.jpg","37","0","219"
"8","8","encoding","encoding","144","Lips_Real.jpg","37","0","681"
"8","8","encoding","encoding","145","ClothesDryingRack.jpg","36","0","142"
"8","8","encoding","encoding","146","Decoration_ChristmasWhite.jpg","37","0","779"
"8","8","encoding","encoding","147","TireRims.jpg","37","0","1301"
"8","8","encoding","encoding","148","Icepick.jpg","36","0","267"
"8","8","encoding","encoding","149","Jack.jpg","37","0","22"
"8","8","encoding","encoding","150","Tweezers.jpg","37","0","97"
"8","8","encoding","encoding","151","HairClip.jpg","36","0","37"
"8","8","encoding","encoding","152","Staircase_Straight.jpg","37","0","72"
"8","8","encoding","encoding","153","Cracker_Saltine.jpg","37","0","154"
"8","8","encoding","encoding","154","PaperTowel_Brown.jpg","37","0","954"
"8","8","encoding","encoding","155","DiaperChangingStation.jpg","37","0","1640"
"8","8","encoding","encoding","156","Starfish.jpg","37","0","678"
"8","8","encoding","encoding","157","Boxcutter.jpg","36","0","102"
"8","8","encoding","encoding","158","GogglesSwim.jpg","37","0","102"
"8","8","encoding","encoding","159","Toolbox_BlackOpen.jpg","36","0","254"
"8","8","encoding","encoding","160","JoustingSpear.jpg","37","0","167"
"8","8","encoding","encoding","161","Chainsaw.jpg","37","0","158"
"8","8","encoding","encoding","162","Brush_Shoe.jpg","37","0","27"
"8","8","encoding","encoding","163","FortuneCookie.jpg","37","0","148"
"8","8","encoding","encoding","164","Weights_Dumbells.jpg","36","0","718"
"8","8","encoding","encoding","165","Steam_Cleaner.jpg","37","0","38"
"8","8","encoding","encoding","166","IceCubes copy.jpg","36","0","172"
"8","8","encoding","encoding","167","Pajamas.jpg","36","0","147"
"8","8","encoding","encoding","168","Toaster_MetalSleek.jpg","37","0","73"
"8","8","encoding","encoding","169","Cage_Bird.jpg","36","0","828"
"8","8","encoding","encoding","170","CementFinisher.jpg","37","0","85"
"8","8","encoding","encoding","171","Crossbow.jpg","36","0","104"
"8","8","encoding","encoding","172","Fuse.jpg","36","0","326"
"8","8","encoding","encoding","173","Knife_Butter.jpg","36","0","485"
"8","8","encoding","encoding","174","DonaldDuck_Toy.jpg","0","0","2000"
"8","8","encoding","encoding","175","Clip_Chip.jpg","36","0","231"
"8","8","encoding","encoding","176","Tiara.jpg","37","0","353"
"8","8","encoding","encoding","177","Swan.jpg","36","0","930"
"8","8","retrieval","new_objects","1","Speaker_OnStand.jpg","37","1","267"
"8","8","retrieval","old_objects","2","WaterColorPaintset.jpg","36","1","54"
"8","8","retrieval","new_objects","3","Container_RedPlastic.jpg","36","0","143"
"8","8","retrieval","old_objects","4","Sign_Parking.jpg","36","1","72"
"8","8","retrieval","new_objects","5","PersonWooden.jpg","37","1","88"
"8","8","retrieval","new_objects","6","Lettuce_Romaine.jpg","36","0","80"
"8","8","retrieval","new_objects","7","PaperStack.jpg","37","1","131"
"8","8","retrieval","old_objects","8","Stool_Camping.jpg","36","1","122"
"8","8","retrieval","old_objects","9","GiftBow.jpg","37","0","131"
"8","8","retrieval","old_objects","10","Star.jpg","36","1","22"
"8","8","retrieval","old_objects","11","HairDryer.jpg","0","0","2000"
"8","8","retrieval","old_objects","12","Snowpea.jpg","37","0","88"
"8","8","retrieval","new_objects","13","Hand.jpg","37","1","135"
"8","8","retrieval","new_objects","14","Grape.jpg","37","1","131"
"8","8","retrieval","new_objects","15","Drum_Ramadan.jpg","36","0","45"
"8","8","retrieval","old_objects","16","WaterHeater.jpg","36","1","100"
"8","8","retrieval","old_objects","17","Lynx.jpg","37","0","48"
"8","8","retrieval","old_objects","18","Fuse.jpg","36","1","123"
"8","8","retrieval","old_objects","19","SelfieStick.jpg","36","1","67"
"8","8","retrieval","old_objects","20","CapGraduation.jpg","36","1","13"
"8","8","retrieval","new_objects","21","Exercise_Machine.jpg","36","0","38"
"8","8","retrieval","new_objects","22","Paddle_Bread.jpg","36","0","63"
"8","8","retrieval","old_objects","23","LightBulb_Christmas.jpg","36","1","92"
"8","8","retrieval","old_objects","24","CoffeeGrinder.jpg","37","0","80"
"8","8","retrieval","new_objects","25","RibbonString.jpg","37","1","41"
"8","8","retrieval","new_objects","26","MortarPestle_WhiteMarble.jpg","37","1","39"
"8","8","retrieval","new_objects","27","Toy_Slinky.jpg","37","1","67"
"8","8","retrieval","old_objects","28","PotatoMasher_Grate.jpg","37","0","67"
"8","8","retrieval","old_objects","29","Carabiner_Orange.jpg","37","0","18"
"8","8","retrieval","new_objects","30","Origami_Boat.jpg","36","0","386"
"8","8","retrieval","new_objects","31","Shrub_Cedar.jpg","37","1","66"
"8","8","retrieval","old_objects","32","Bat_Cricket.jpg","37","0","29"
"8","8","retrieval","old_objects","33","Knife_Butter.jpg","36","1","90"
"8","8","retrieval","old_objects","34","Lychee.jpg","36","1","42"
"8","8","retrieval","old_objects","35","Glass_Cup.jpg","36","1","102"
"8","8","retrieval","new_objects","36","Stepper.jpg","36","0","16"
"8","8","retrieval","old_objects","37","Box_WoodenOpen.jpg","36","1","174"
"8","8","retrieval","old_objects","38","RibbonPin.jpg","36","1","46"
"8","8","retrieval","old_objects","39","GasStation.jpg","36","1","23"
"8","8","retrieval","new_objects","40","Mango.jpg","36","0","193"
"8","8","retrieval","old_objects","41","Helmet_Soldier.jpg","36","1","6"
"8","8","retrieval","new_objects","42","Table_Set.jpg","36","0","109"
"8","8","retrieval","old_objects","43","Tree_ChristmasMini.jpg","36","1","99"
"8","8","retrieval","new_objects","44","Lipstick.jpg","37","1","107"
"8","8","retrieval","new_objects","45","Spider.jpg","37","1","5"
"8","8","retrieval","new_objects","46","Dress_Blue.jpg","37","1","399"
"8","8","retrieval","new_objects","47","Hammer_Reflex.jpg","36","0","12"
"8","8","retrieval","new_objects","48","Boots_Hiking.jpg","36","0","34"
"8","8","retrieval","new_objects","49","Toy_JackInTheBox.jpg","36","0","59"
"8","8","retrieval","old_objects","50","Barrel_Upright.jpg","36","1","131"
"8","8","retrieval","old_objects","51","RollerBlade.jpg","36","1","43"
"8","8","retrieval","old_objects","52","Truck_Dump.jpg","37","0","141"
"8","8","retrieval","old_objects","53","CinderBlock.jpg","36","1","26"
"8","8","retrieval","new_objects","54","Stove_WithOven.jpg","36","0","188"
"8","8","retrieval","new_objects","55","DusterFeather.jpg","36","0","189"
"8","8","retrieval","new_objects","56","Noisemaker.jpg","37","1","245"
"8","8","retrieval","new_objects","57","Barrel_Wine.jpg","37","1","199"
"8","8","retrieval","old_objects","58","Faucet.jpg","37","0","1054"
"8","8","retrieval","old_objects","59","RiceRaw.jpg","37","0","115"
"8","8","retrieval","new_objects","60","Cougar.jpg","37","1","67"
"8","8","retrieval","old_objects","62","Cranberry.jpg","36","1","776"
"8","8","retrieval","old_objects","63","Speaker_Computer.jpg","37","0","145"
"8","8","retrieval","old_objects","64","Toolbox_BlackOpen.jpg","36","1","115"
"8","8","retrieval","old_objects","65","GogglesSwim.jpg","37","0","86"
"8","8","retrieval","new_objects","66","Tofu.jpg","37","1","75"
"8","8","retrieval","new_objects","67","Currants.jpg","37","1","89"
"8","8","retrieval","new_objects","68","Jug_ClayAncient.jpg","36","0","93"
"8","8","retrieval","new_objects","69","Crate_Milk.jpg","36","0","81"
"8","8","retrieval","new_objects","70","Shoes_DutchClogs.jpg","36","0","30"
"8","8","retrieval","new_objects","71","Candelabra.jpg","37","1","43"
"8","8","retrieval","old_objects","72","Canister_Tea.jpg","37","0","115"
"8","8","retrieval","new_objects","73","LampPost_ThreeBulbs.jpg","37","1","69"
"8","8","retrieval","new_objects","74","Bowl_Lemons.jpg","36","0","367"
"8","8","retrieval","old_objects","75","Egg_Wooden.jpg","0","0","2000"
"8","8","retrieval","old_objects","76","Flashlight.jpg","37","0","200"
"8","8","retrieval","new_objects","77","Truck_Army.jpg","36","0","277"
"8","8","retrieval","old_objects","78","LumiereBeautyBeast.jpg","36","1","1384"
"8","8","retrieval","new_objects","79","Oars.jpg","37","1","6"
"8","8","retrieval","old_objects","80","Tiara.jpg","36","1","87"
"8","8","retrieval","old_objects","81","Jug_GallonWhite.jpg","36","1","32"
"8","8","retrieval","old_objects","82","Lock_Key.jpg","36","1","122"
"8","8","retrieval","old_objects","83","FileFolder.jpg","36","1","98"
"8","8","retrieval","old_objects","84","Camera_Security.jpg","37","0","96"
"8","8","retrieval","old_objects","85","Hotdog_WithBun.jpg","36","1","73"
"8","8","retrieval","old_objects","86","ClothesDryingRack.jpg","37","0","73"
"8","8","retrieval","new_objects","87","Sign_SlipperyRoad.jpg","36","0","115"
"8","8","retrieval","new_objects","88","Makeup_Mascara.jpg","36","0","3"
"8","8","retrieval","old_objects","89","Coconut.jpg","36","1","231"
"8","8","retrieval","new_objects","90","Coatrack.jpg","37","1","86"
"8","8","retrieval","new_objects","91","Keys_Bunch.jpg","37","1","526"
"8","8","retrieval","new_objects","92","Toy_Chicken.jpg","37","1","59"
"8","8","retrieval","new_objects","93","Toy_PandaPlushie.jpg","36","0","107"
"8","8","retrieval","old_objects","94","FlipFlop_PairBlue.jpg","37","0","73"
"8","8","retrieval","old_objects","95","OnionRings.jpg","36","1","126"
"8","8","retrieval","new_objects","96","Harp.jpg","37","1","113"
"8","8","retrieval","old_objects","97","Helmet_Bicycle.jpg","37","0","148"
"8","8","retrieval","new_objects","98","FileDivider.jpg","37","1","101"
"8","8","retrieval","old_objects","99","Walker_Blue.jpg","37","0","156"
"8","8","retrieval","old_objects","100","Bandage_Wrap.jpg","37","0","220"
"8","8","retrieval","new_objects","101","TrapAnimal.jpg","37","1","25"
"8","8","retrieval","new_objects","102","Ball_8.jpg","37","1","180"
"8","8","retrieval","new_objects","103","Cable_AudioSplitter.jpg","37","1","28"
"8","8","retrieval","new_objects","104","Fryingpan.jpg","36","0","36"
"8","8","retrieval","old_objects","105","Grill_Gas.jpg","37","0","32"
"8","8","retrieval","old_objects","106","Eraser.jpg","36","1","25"
"8","8","retrieval","old_objects","107","Pear_Yellow.jpg","36","1","23"
"8","8","retrieval","new_objects","108","DentalProbe.jpg","36","0","59"
"8","8","retrieval","new_objects","109","Canister_Oil.jpg","36","0","104"
"8","8","retrieval","new_objects","110","GingerbreadMan.jpg","36","0","263"
"8","8","retrieval","new_objects","111","ShoulderPads.jpg","36","0","136"
"8","8","retrieval","new_objects","112","NeedlesAcupuncture.jpg","37","1","30"
"8","8","retrieval","old_objects","113","Mask_VenetianLongNose.jpg","37","0","84"
"8","8","retrieval","new_objects","114","BottleOpener.jpg","37","1","76"
"8","8","retrieval","new_objects","115","Paddle_Canoe.jpg","36","0","0"
"8","8","retrieval","new_objects","116","Bag_Gift.jpg","37","1","574"
"8","8","retrieval","old_objects","117","Chair_PlasticGreen.jpg","37","0","145"
"8","8","retrieval","old_objects","118","Swan.jpg","37","0","3"
"8","8","retrieval","old_objects","119","Ghost.jpg","36","1","51"
"8","8","retrieval","new_objects","120","Hat_Colonial.jpg","37","1","107"
"8","8","retrieval","new_objects","121","MouthGuard.jpg","36","0","42"
"8","8","retrieval","new_objects","123","Trumpet.jpg","37","1","164"
"8","8","retrieval","old_objects","124","Bottle_Bleach.jpg","37","0","25"
"8","8","retrieval","new_objects","125","Teapot.jpg","37","1","109"
"8","8","retrieval","new_objects","126","Helicopter.jpg","37","1","253"
"8","8","retrieval","new_objects","127","Tickets_PrintWords.jpg","37","1","197"
"8","8","retrieval","old_objects","128","TomatoSauce.jpg","37","0","65"
"8","8","retrieval","old_objects","129","Lettuce_GreenLeaf.jpg","36","1","102"
"8","8","retrieval","old_objects","130","Pajamas.jpg","37","0","253"
"8","8","retrieval","new_objects","131","Beaker.jpg","37","1","162"
"8","8","retrieval","old_objects","132","Shoes_WomenBoots.jpg","36","1","88"
"8","8","retrieval","old_objects","133","Cracker_Saltine.jpg","37","0","184"
"8","8","retrieval","old_objects","134","Ruler_Digital.jpg","37","0","42"
"8","8","retrieval","new_objects","135","TestTube_MultipleAndRack.jpg","37","1","63"
"8","8","retrieval","old_objects","136","SolderingWire.jpg","36","1","136"
"8","8","retrieval","old_objects","137","Syringe_Needle.jpg","36","1","138"
"8","8","retrieval","new_objects","138","Fish_Rockbass.jpg","37","1","911"
"8","8","retrieval","new_objects","139","SnowmanDecor.jpg","36","0","76"
"8","8","retrieval","new_objects","140","BridgeWooden.jpg","36","0","15"
"8","8","retrieval","new_objects","141","Castle_Model.jpg","36","0","106"
"8","8","retrieval","old_objects","142","Nuts_PeanutsPeeled.jpg","37","0","77"
"8","8","retrieval","new_objects","143","Shovel_Sandbox.jpg","36","0","29"
"8","8","retrieval","new_objects","144","KnifeHolder.jpg","37","1","9"
"8","8","retrieval","old_objects","145","Toy_Shapesorter.jpg","36","1","59"
"8","8","retrieval","new_objects","146","Toy_BearBlackPlastic.jpg","37","1","212"
"8","8","retrieval","old_objects","147","Bird_Toucan.jpg","37","0","54"
"8","8","retrieval","old_objects","148","DonaldDuck_Toy.jpg","37","0","129"
"8","8","retrieval","old_objects","149","Toy_RabbitPlushie.jpg","37","0","94"
"8","8","retrieval","new_objects","150","BloodpPresureCuff.jpg","36","0","232"
"8","8","retrieval","old_objects","151","SnowGlobe.jpg","36","1","112"
"8","8","retrieval","new_objects","152","Stick_Stirring.jpg","36","0","118"
"8","8","retrieval","old_objects","153","PaperTowel_Brown.jpg","37","0","110"
"8","8","retrieval","new_objects","154","Match.jpg","37","1","40"
"8","8","retrieval","new_objects","155","SofaAntique.jpg","37","1","32"
"8","8","retrieval","old_objects","156","Seal_animal.jpg","37","0","70"
"8","8","retrieval","new_objects","157","RecorderCassette.jpg","36","0","100"
"8","8","retrieval","old_objects","158","Bread_Carrot.jpg","36","1","264"
"8","8","retrieval","new_objects","159","Ashtray_Cigarettes.jpg","36","0","92"
"8","8","retrieval","new_objects","160","House_CeramicGingerbread.jpg","36","0","122"
"8","8","retrieval","old_objects","161","Decoration_ChristmasWhite.jpg","37","0","99"
"8","8","retrieval","new_objects","162","Bellows.jpg","36","0","23"
"8","8","retrieval","new_objects","163","Chest.jpg","37","1","8"
"8","8","retrieval","new_objects","164","Ramekin.jpg","37","1","54"
"8","8","retrieval","old_objects","165","HairClip.jpg","37","0","134"
"8","8","retrieval","old_objects","166","Exercise_Stretch.jpg","37","0","36"
"8","8","retrieval","new_objects","167","Grenade.jpg","36","0","62"
"8","8","retrieval","new_objects","168","Tray_Cafeteria.jpg","36","0","100"
"8","8","retrieval","old_objects","169","Pen_Ballpoint.jpg","36","1","162"
"8","8","retrieval","new_objects","170","Sign_NoParking.jpg","37","1","99"
"8","8","retrieval","old_objects","171","TeethMould.jpg","37","0","53"
"8","8","retrieval","new_objects","172","Kite_Rainbow.jpg","37","1","97"
"8","8","retrieval","old_objects","173","Nutcracker.jpg","36","1","263"
"8","8","retrieval","old_objects","174","Bag_Grains.jpg","37","0","51"
"8","8","retrieval","new_objects","175","SoapDish.jpg","36","0","176"
"8","8","retrieval","old_objects","176","Cornucopia.jpg","37","0","67"
"8","8","retrieval","new_objects","177","Box_Notepaper.jpg","37","1","41"
"8","8","retrieval","new_objects","178","MassageRoller.jpg","36","0","64"
"8","8","retrieval","new_objects","179","Seashell_BayScallop.jpg","37","1","237"
"8","8","retrieval","old_objects","180","Knife_Kitchen.jpg","36","1","59"
"8","8","retrieval","old_objects","181","Castle_Sand.jpg","36","1","112"
"8","8","retrieval","old_objects","182","Balalaika.jpg","36","1","93"
"8","8","retrieval","old_objects","184","Toaster_MetalSleek.jpg","37","0","179"
"8","8","retrieval","old_objects","185","Knee.jpg","37","0","21"
"8","8","retrieval","new_objects","186","Leek.jpg","37","1","32"
"8","8","retrieval","old_objects","187","HairClipper.jpg","36","1","9"
"8","8","retrieval","new_objects","188","SewingPin_Cushion.jpg","36","0","57"
"8","8","retrieval","old_objects","189","Necklace_Black.jpg","37","0","128"
"8","8","retrieval","new_objects","190","Toy_Train.jpg","36","0","92"
"8","8","retrieval","new_objects","191","Piano_Keyboard.jpg","36","0","19"
"8","8","retrieval","new_objects","192","Fork_Fondue.jpg","37","1","216"
"8","8","retrieval","old_objects","193","Chainsaw.jpg","37","0","20"
"8","8","retrieval","old_objects","194","Elephant.jpg","37","0","152"
"8","8","retrieval","old_objects","195","JoustingSpear.jpg","37","0","26"
"8","8","retrieval","new_objects","196","Horseshoe.jpg","36","0","110"
"8","8","retrieval","new_objects","197","DivingBoard.jpg","36","0","69"
"8","8","retrieval","new_objects","198","Telephone_TinCan.jpg","37","1","7"
"8","8","retrieval","new_objects","199","IceCrusher.jpg","37","1","141"
"8","8","retrieval","old_objects","200","Dreamcatcher.jpg","37","0","37"
"8","8","retrieval","old_objects","201","Tape_Washi.jpg","37","0","67"
"8","8","retrieval","new_objects","202","Candy_Cotton.jpg","37","1","79"
"8","8","retrieval","old_objects","203","Bowl_Chinese.jpg","36","1","59"
"8","8","retrieval","old_objects","204","DryingMachine.jpg","36","1","37"
"8","8","retrieval","new_objects","205","Lock_Combination.jpg","37","1","78"
"8","8","retrieval","old_objects","206","Hat_Party.jpg","36","1","304"
"8","8","retrieval","new_objects","207","Toy_StackingRing.jpg","37","1","178"
"8","8","retrieval","new_objects","208","Pasta_Fusilli.jpg","37","1","194"
"8","8","retrieval","new_objects","209","Plate_Decorative.jpg","37","1","181"
"8","8","retrieval","old_objects","210","Icepick.jpg","37","0","96"
"8","8","retrieval","old_objects","211","Pants_Jeans.jpg","37","0","70"
"8","8","retrieval","old_objects","212","CarJack.jpg","37","0","507"
"8","8","retrieval","old_objects","213","BuildingChinese.jpg","37","0","228"
"8","8","retrieval","new_objects","214","Film_Single.jpg","37","1","182"
"8","8","retrieval","new_objects","215","Statue_Man.jpg","36","0","80"
"8","8","retrieval","new_objects","216","Gun_Bazooka.jpg","36","0","0"
"8","8","retrieval","old_objects","217","Shrimp.jpg","36","1","89"
"8","8","retrieval","new_objects","218","Pencil.jpg","36","0","34"
"8","8","retrieval","old_objects","219","Drum_Cymbal.jpg","37","0","160"
"8","8","retrieval","old_objects","220","WagonPilgrim.jpg","36","1","20"
"8","8","retrieval","old_objects","221","DiaperChangingStation.jpg","37","0","178"
"8","8","retrieval","new_objects","222","Motorcycle.jpg","37","1","76"
"8","8","retrieval","old_objects","223","FortuneCookie.jpg","36","1","119"
"8","8","retrieval","new_objects","224","Corkboard.jpg","37","1","58"
"8","8","retrieval","new_objects","225","Glass_Bowl.jpg","36","0","166"
"8","8","retrieval","new_objects","226","Brush_Nail.jpg","37","1","145"
"8","8","retrieval","old_objects","227","Crossbow.jpg","37","0","132"
"8","8","retrieval","old_objects","228","Starfish.jpg","0","0","2000"
"8","8","retrieval","old_objects","229","Pipe_Drain.jpg","37","0","100"
"8","8","retrieval","new_objects","230","Card_TwoSpade.jpg","37","1","50"
"8","8","retrieval","new_objects","231","Bagel.jpg","36","0","3"
"8","8","retrieval","old_objects","232","SewingPin_Single.jpg","37","0","35"
"8","8","retrieval","old_objects","233","Ashtray_Empty.jpg","36","1","84"
"8","8","retrieval","old_objects","234","PenHolder.jpg","36","1","50"
"8","8","retrieval","old_objects","235","Bird_Parrot.jpg","37","0","137"
"8","8","retrieval","new_objects","236","MannequinHead.jpg","37","1","236"
"8","8","retrieval","new_objects","237","Envelope_Manila.jpg","37","1","563"
"8","8","retrieval","old_objects","238","Razor.jpg","37","0","109"
"8","8","retrieval","old_objects","239","Bird_Duck.jpg","36","1","27"
"8","8","retrieval","new_objects","240","Thermostat_Digital.jpg","36","0","13"
"8","8","retrieval","new_objects","241","Organ.jpg","37","1","120"
"8","8","retrieval","new_objects","242","JumpingJack.jpg","36","0","196"
"8","8","retrieval","new_objects","243","PumiceStone.jpg","37","1","164"
"8","8","retrieval","old_objects","245","EyeDrops.jpg","36","1","456"
"8","8","retrieval","old_objects","246","PocketKnife.jpg","37","0","110"
"8","8","retrieval","new_objects","247","Backhoe.jpg","36","0","84"
"8","8","retrieval","old_objects","248","Jack.jpg","36","1","84"
"8","8","retrieval","old_objects","249","Lips_Real.jpg","37","0","100"
"8","8","retrieval","old_objects","250","ComputerKeyboard_F1.jpg","37","0","30"
"8","8","retrieval","old_objects","251","Brush_Shoe.jpg","37","0","133"
"8","8","retrieval","old_objects","252","Shark_Hammerhead.jpg","37","0","69"
"8","8","retrieval","old_objects","253","Glove_Rubber.jpg","37","0","110"
"8","8","retrieval","old_objects","254","Jar_Capers.jpg","37","0","60"
"8","8","retrieval","new_objects","255","SaladCaesar.jpg","37","1","168"
"8","8","retrieval","new_objects","256","Backpack_Travel.jpg","36","0","198"
"8","8","retrieval","old_objects","257","Bottle_Beer.jpg","37","0","41"
"8","8","retrieval","old_objects","258","Rock_Mimetite.jpg","37","0","60"
"8","8","retrieval","old_objects","259","CashRegister_Modern.jpg","37","0","169"
"8","8","retrieval","old_objects","260","DryRack_Clothes.jpg","37","0","154"
"8","8","retrieval","old_objects","261","Statue_Jesus.jpg","37","0","105"
"8","8","retrieval","old_objects","262","Candle_Blue.jpg","37","0","27"
"8","8","retrieval","new_objects","263","Jar_Strawberry.jpg","36","0","35"
"8","8","retrieval","new_objects","264","Toy_BlocksPlastic Colourful.jpg","36","0","77"
"8","8","retrieval","new_objects","265","Teabag.jpg","37","1","173"
"8","8","retrieval","new_objects","266","Carbiner_Ascender.jpg","37","1","41"
"8","8","retrieval","new_objects","267","RadioactiveContainer.jpg","37","1","136"
"8","8","retrieval","new_objects","268","Partition.jpg","37","1","35"
"8","8","retrieval","new_objects","269","fries.jpg","37","1","8"
"8","8","retrieval","old_objects","270","EyeExamDevice.jpg","37","0","83"
"8","8","retrieval","new_objects","271","Tomato.jpg","37","1","130"
"8","8","retrieval","old_objects","272","Squash_Pumpkin.jpg","36","1","96"
"8","8","retrieval","old_objects","273","TireRims.jpg","36","1","160"
"8","8","retrieval","old_objects","274","Box_FirstAidOpen.jpg","37","0","26"
"8","8","retrieval","old_objects","275","PaperShredder.jpg","37","0","276"
"8","8","retrieval","new_objects","276","ProjectorScreen.jpg","36","0","441"
"8","8","retrieval","old_objects","277","CarSeat.jpg","36","1","32"
"8","8","retrieval","new_objects","278","Avocado.jpg","37","1","63"
"8","8","retrieval","new_objects","279","Pen_Calligraphy.jpg","37","1","27"
"8","8","retrieval","old_objects","280","IceCubes copy.jpg","37","0","35"
"8","8","retrieval","old_objects","281","MonaLisa.jpg","36","1","6"
"8","8","retrieval","old_objects","282","Walkman.jpg","36","1","92"
"8","8","retrieval","old_objects","283","Tweezers.jpg","37","0","98"
"8","8","retrieval","old_objects","284","Gun_Glue.jpg","36","1","174"
"8","8","retrieval","new_objects","285","Window.jpg","36","0","178"
"8","8","retrieval","old_objects","286","Toy_BeadMaze.jpg","36","1","77"
"8","8","retrieval","old_objects","287","ChalkLineTool.jpg","37","0","245"
"8","8","retrieval","new_objects","288","Flamingo_Real.jpg","36","0","121"
"8","8","retrieval","new_objects","289","Bus_DoubleDecker.jpg","37","1","148"
"8","8","retrieval","old_objects","290","Dolly.jpg","36","1","257"
"8","8","retrieval","old_objects","291","SaxophoneSoprano.jpg","37","0","12"
"8","8","retrieval","old_objects","292","Weights_Dumbells.jpg","37","0","50"
"8","8","retrieval","old_objects","293","CementFinisher.jpg","37","0","89"
"8","8","retrieval","old_objects","294","Boxcutter.jpg","37","0","71"
"8","8","retrieval","old_objects","295","Bread_Roll.jpg","37","0","48"
"8","8","retrieval","new_objects","296","Keychain_Metal.jpg","36","0","214"
"8","8","retrieval","new_objects","297","Computer_CPU.jpg","36","0","51"
"8","8","retrieval","new_objects","298","Dog_ChowChow.jpg","36","0","106"
"8","8","retrieval","old_objects","299","Earrings_Dangling.jpg","37","0","62"
"8","8","retrieval","new_objects","300","Mitt_Blue.jpg","37","1","32"
"8","8","retrieval","old_objects","301","Pumpkin.jpg","36","1","208"
"8","8","retrieval","new_objects","302","ServiceBell.jpg","36","0","302"
"8","8","retrieval","old_objects","303","Nametag.jpg","36","1","181"
"8","8","retrieval","old_objects","304","Chairs_Stacked.jpg","36","1","71"
"10","10","encoding","encoding","1","ComputerKeyboard_F1.jpg","0","0","2000"
"10","10","encoding","encoding","2","FortuneCookie.jpg","36","0","1898"
"10","10","encoding","encoding","3","Defribrillator.jpg","0","0","2000"
"10","10","encoding","encoding","4","PotatoMasher_Grate.jpg","37","0","1687"
"10","10","encoding","encoding","5","PaperShredder.jpg","36","0","970"
"10","10","encoding","encoding","6","SelfieStick.jpg","37","0","1748"
"10","10","encoding","encoding","7","Pajamas.jpg","36","0","1439"
"10","10","encoding","encoding","8","Barrel_Upright.jpg","37","0","1121"
"10","10","encoding","encoding","9","Scalpel.jpg","36","0","1306"
"10","10","encoding","encoding","10","Ashtray_Empty.jpg","36","0","1518"
"10","10","encoding","encoding","11","Candle_Blue.jpg","37","0","1089"
"10","10","encoding","encoding","12","Toy_BeadMaze.jpg","37","0","1203"
"10","10","encoding","encoding","13","Squash_Pumpkin.jpg","37","0","1190"
"10","10","encoding","encoding","14","DoubleBass.jpg","37","0","1360"
"10","10","encoding","encoding","15","Razor.jpg","36","0","1291"
"10","10","encoding","encoding","16","GasStation.jpg","37","0","1134"
"10","10","encoding","encoding","17","Chainsaw.jpg","37","0","1048"
"10","10","encoding","encoding","18","Glass_Cup.jpg","36","0","1122"
"10","10","encoding","encoding","19","Steam_Cleaner.jpg","37","0","1733"
"10","10","encoding","encoding","20","Lychee.jpg","36","0","1712"
"10","10","encoding","encoding","21","PenHolder.jpg","36","0","1050"
"10","10","encoding","encoding","22","Shrimp.jpg","37","0","1349"
"10","10","encoding","encoding","23","ElasticBand.jpg","37","0","1759"
"10","10","encoding","encoding","24","Star.jpg","37","0","1482"
"10","10","encoding","encoding","25","Ghost.jpg","37","0","1813"
"10","10","encoding","encoding","26","Sign_Parking.jpg","37","0","1855"
"10","10","encoding","encoding","27","LumiereBeautyBeast.jpg","36","0","1418"
"10","10","encoding","encoding","28","Chair_PlasticGreen.jpg","36","0","1253"
"10","10","encoding","encoding","29","Box_FirstAidOpen.jpg","37","0","1535"
"10","10","encoding","encoding","30","Bread_Carrot.jpg","37","0","1218"
"10","10","encoding","encoding","31","Pen_Ballpoint.jpg","36","0","1964"
"10","10","encoding","encoding","32","PocketKnife.jpg","0","0","2000"
"10","10","encoding","encoding","33","Ruler_Digital.jpg","37","0","866"
"10","10","encoding","encoding","34","Pumpkin.jpg","0","0","2000"
"10","10","encoding","encoding","35","Canister_Tea.jpg","37","0","1271"
"10","10","encoding","encoding","36","Seal_animal.jpg","37","0","874"
"10","10","encoding","encoding","37","Balalaika.jpg","37","0","836"
"10","10","encoding","encoding","38","Crab.jpg","37","0","823"
"10","10","encoding","encoding","39","Truck_Dump.jpg","37","0","706"
"10","10","encoding","encoding","40","Bird_Toucan.jpg","37","0","716"
"10","10","encoding","encoding","41","Bowl_Chinese.jpg","36","0","1255"
"10","10","encoding","encoding","42","Icepick.jpg","37","0","1913"
"10","10","encoding","encoding","43","Bandage_Wrap.jpg","37","0","1420"
"10","10","encoding","encoding","44","HairClipper.jpg","0","0","2000"
"10","10","encoding","encoding","45","Flashlight.jpg","36","0","1113"
"10","10","encoding","encoding","46","Jug_GallonWhite.jpg","36","0","1733"
"10","10","encoding","encoding","47","Dreamcatcher.jpg","37","0","847"
"10","10","encoding","encoding","48","Glove_Rubber.jpg","37","0","1498"
"10","10","encoding","encoding","49","Nuts_PeanutsPeeled.jpg","36","0","1684"
"10","10","encoding","encoding","50","Coconut.jpg","37","0","1167"
"10","10","encoding","encoding","51","Helmet_Soldier.jpg","37","0","1106"
"10","10","encoding","encoding","52","Hat_Party.jpg","36","0","1764"
"10","10","encoding","encoding","53","CoffeeGrinder.jpg","36","0","1711"
"10","10","encoding","encoding","54","Cannister_Gas.jpg","36","0","1402"
"10","10","encoding","encoding","55","Gun_Glue.jpg","37","0","1276"
"10","10","encoding","encoding","56","FlipFlop_PairBlue.jpg","37","0","1015"
"10","10","encoding","encoding","57","Cranberry.jpg","37","0","1194"
"10","10","encoding","encoding","58","WaterColorPaintset.jpg","36","0","901"
"10","10","encoding","encoding","59","Knife_Kitchen.jpg","36","0","639"
"10","10","encoding","encoding","60","Bird_Duck.jpg","37","0","577"
"10","10","encoding","encoding","62","IceCubes copy.jpg","37","0","1059"
"10","10","encoding","encoding","63","Pants_Jeans.jpg","36","0","1166"
"10","10","encoding","encoding","64","HairDryer.jpg","36","0","1320"
"10","10","encoding","encoding","65","RiceRaw.jpg","36","0","915"
"10","10","encoding","encoding","66","SewingPin_Single.jpg","36","0","1958"
"10","10","encoding","encoding","67","Eraser.jpg","37","0","1432"
"10","10","encoding","encoding","68","Bag_Grains.jpg","0","0","2000"
"10","10","encoding","encoding","69","CashRegister_Modern.jpg","37","0","1094"
"10","10","encoding","encoding","70","OnionRings.jpg","37","0","1856"
"10","10","encoding","encoding","71","LightBulb_Christmas.jpg","37","0","1819"
"10","10","encoding","encoding","72","TireRims.jpg","37","0","1517"
"10","10","encoding","encoding","73","Mirror_Makeup.jpg","36","0","1583"
"10","10","encoding","encoding","74","Faucet.jpg","37","0","1218"
"10","10","encoding","encoding","75","Syringe_Needle.jpg","37","0","869"
"10","10","encoding","encoding","76","Toaster_MetalSleek.jpg","36","0","1327"
"10","10","encoding","encoding","77","Fuse.jpg","37","0","1066"
"10","10","encoding","encoding","78","Staircase_Straight.jpg","37","0","1068"
"10","10","encoding","encoding","79","DiaperChangingStation.jpg","37","0","1327"
"10","10","encoding","encoding","80","Crossbow.jpg","37","0","858"
"10","10","encoding","encoding","81","Bucket_Halloween.jpg","0","0","2000"
"10","10","encoding","encoding","82","DryingMachine.jpg","36","0","967"
"10","10","encoding","encoding","83","Lettuce_GreenLeaf.jpg","37","0","1354"
"10","10","encoding","encoding","84","Tiara.jpg","37","0","1156"
"10","10","encoding","encoding","85","RibbonPin.jpg","37","0","1022"
"10","10","encoding","encoding","86","Weights_Dumbells.jpg","37","0","1225"
"10","10","encoding","encoding","87","Statue_Jesus.jpg","37","0","907"
"10","10","encoding","encoding","88","Camera_Security.jpg","37","0","1726"
"10","10","encoding","encoding","89","GiftBow.jpg","37","0","1377"
"10","10","encoding","encoding","90","Bread_Roll.jpg","36","0","1075"
"10","10","encoding","encoding","91","DryRack_Clothes.jpg","36","0","1806"
"10","10","encoding","encoding","92","TeethMould.jpg","37","0","1913"
"10","10","encoding","encoding","93","Bottle_Beer.jpg","37","0","1043"
"10","10","encoding","encoding","94","Jack.jpg","37","0","1093"
"10","10","encoding","encoding","95","JoustingSpear.jpg","37","0","1408"
"10","10","encoding","encoding","96","Tape_Washi.jpg","37","0","1234"
"10","10","encoding","encoding","97","Clip_Chip.jpg","0","0","2000"
"10","10","encoding","encoding","98","Toy_RabbitPlushie.jpg","36","0","943"
"10","10","encoding","encoding","99","Swan.jpg","37","0","634"
"10","10","encoding","encoding","100","CarSeat.jpg","37","0","1012"
"10","10","encoding","encoding","101","FileFolder.jpg","36","0","1487"
"10","10","encoding","encoding","102","SolderingIron.jpg","36","0","1265"
"10","10","encoding","encoding","103","Bat_Cricket.jpg","37","0","1483"
"10","10","encoding","encoding","104","Radio_Modern.jpg","37","0","1646"
"10","10","encoding","encoding","105","Walker_Blue.jpg","37","0","1001"
"10","10","encoding","encoding","106","Cornucopia.jpg","36","0","1539"
"10","10","encoding","encoding","107","GogglesSwim.jpg","37","0","1758"
"10","10","encoding","encoding","108","Bottle_Bleach.jpg","37","0","1016"
"10","10","encoding","encoding","109","Shark_Hammerhead.jpg","0","0","2000"
"10","10","encoding","encoding","110","Lock_Key.jpg","37","0","1622"
"10","10","encoding","encoding","111","Helmet_Bicycle.jpg","37","0","1432"
"10","10","encoding","encoding","112","Tree_ChristmasMini.jpg","37","0","1683"
"10","10","encoding","encoding","113","PaperTowel_Brown.jpg","36","0","1550"
"10","10","encoding","encoding","114","Mask_VenetianLongNose.jpg","37","0","1472"
"10","10","encoding","encoding","115","Boxcutter.jpg","37","0","1723"
"10","10","encoding","encoding","116","SaxophoneSoprano.jpg","36","0","1838"
"10","10","encoding","encoding","117","CementFinisher.jpg","37","0","1137"
"10","10","encoding","encoding","118","Necklace_Black.jpg","36","0","1708"
"10","10","encoding","encoding","119","Stool_Camping.jpg","37","0","1255"
"10","10","encoding","encoding","120","HairClip.jpg","37","0","1073"
"10","10","encoding","encoding","121","Decoration_ChristmasWhite.jpg","37","0","805"
"10","10","encoding","encoding","123","BuildingChinese.jpg","37","0","1224"
"10","10","encoding","encoding","124","Elephant.jpg","37","0","1371"
"10","10","encoding","encoding","125","CinderBlock.jpg","37","0","934"
"10","10","encoding","encoding","126","CarJack.jpg","37","0","1600"
"10","10","encoding","encoding","127","Dolly.jpg","37","0","940"
"10","10","encoding","encoding","128","Cracker_Saltine.jpg","36","0","926"
"10","10","encoding","encoding","129","EyeExamDevice.jpg","37","0","1385"
"10","10","encoding","encoding","130","Jar_Capers.jpg","36","0","1500"
"10","10","encoding","encoding","131","Box_WoodenOpen.jpg","37","0","1614"
"10","10","encoding","encoding","132","Lynx.jpg","37","0","1081"
"10","10","encoding","encoding","133","Walkman.jpg","37","0","859"
"10","10","encoding","encoding","134","Exercise_Stretch.jpg","37","0","1030"
"10","10","encoding","encoding","135","Hotdog_WithBun.jpg","36","0","1009"
"10","10","encoding","encoding","136","Pear_Yellow.jpg","36","0","1275"
"10","10","encoding","encoding","137","ClothesDryingRack.jpg","37","0","805"
"10","10","encoding","encoding","138","WaterHeater.jpg","37","0","848"
"10","10","encoding","encoding","139","Earrings_Dangling.jpg","36","0","1282"
"10","10","encoding","encoding","140","Bird_Parrot.jpg","37","0","541"
"10","10","encoding","encoding","141","Toy_Shapesorter.jpg","37","0","935"
"10","10","encoding","encoding","142","Snowpea.jpg","37","0","1906"
"10","10","encoding","encoding","143","Shoes_WomenBoots.jpg","37","0","980"
"10","10","encoding","encoding","144","Lips_Real.jpg","36","0","1407"
"10","10","encoding","encoding","145","Tweezers.jpg","37","0","634"
"10","10","encoding","encoding","146","Carabiner_Orange.jpg","36","0","1757"
"10","10","encoding","encoding","147","Speaker_Computer.jpg","36","0","1272"
"10","10","encoding","encoding","148","Toolbox_BlackOpen.jpg","37","0","1027"
"10","10","encoding","encoding","149","SnowGlobe.jpg","37","0","854"
"10","10","encoding","encoding","150","Castle_Sand.jpg","37","0","1024"
"10","10","encoding","encoding","151","EyeDrops.jpg","36","0","1795"
"10","10","encoding","encoding","152","Knee.jpg","36","0","1069"
"10","10","encoding","encoding","153","Cage_Bird.jpg","37","0","1016"
"10","10","encoding","encoding","154","Chairs_Stacked.jpg","36","0","1275"
"10","10","encoding","encoding","155","Computer_ExpansionCard.jpg","37","0","1837"
"10","10","encoding","encoding","156","Egg_Wooden.jpg","36","0","1743"
"10","10","encoding","encoding","157","Pipe_Drain.jpg","37","0","1090"
"10","10","encoding","encoding","158","Knife_Butter.jpg","37","0","916"
"10","10","encoding","encoding","159","Flamingo_Cartoon.jpg","37","0","959"
"10","10","encoding","encoding","160","MonaLisa.jpg","37","0","1258"
"10","10","encoding","encoding","161","WagonPilgrim.jpg","37","0","996"
"10","10","encoding","encoding","162","Bible.jpg","36","0","1439"
"10","10","encoding","encoding","163","CapGraduation.jpg","37","0","1266"
"10","10","encoding","encoding","164","Starfish.jpg","37","0","748"
"10","10","encoding","encoding","165","Grill_Gas.jpg","36","0","1710"
"10","10","encoding","encoding","166","Nametag.jpg","37","0","745"
"10","10","encoding","encoding","167","SolderingWire.jpg","37","0","923"
"10","10","encoding","encoding","168","Garlic_Clove.jpg","37","0","270"
"10","10","encoding","encoding","169","Nutcracker.jpg","0","0","2000"
"10","10","encoding","encoding","170","DonaldDuck_Toy.jpg","37","0","1003"
"10","10","encoding","encoding","171","TomatoSauce.jpg","0","0","2000"
"10","10","encoding","encoding","172","Rock_Mimetite.jpg","36","0","1256"
"10","10","encoding","encoding","173","Jar_Cotton.jpg","37","0","1011"
"10","10","encoding","encoding","174","Drum_Cymbal.jpg","37","0","1254"
"10","10","encoding","encoding","175","Brush_Shoe.jpg","37","0","1816"
"10","10","encoding","encoding","176","ChalkLineTool.jpg","37","0","979"
"10","10","encoding","encoding","177","RollerBlade.jpg","37","0","982"
"10","10","retrieval","new_objects","1","Hammer_Reflex.jpg","0","0","2000"
"10","10","retrieval","new_objects","2","Ball_8.jpg","37","1","1892"
"10","10","retrieval","new_objects","3","Mango.jpg","37","1","1531"
"10","10","retrieval","old_objects","4","PenHolder.jpg","0","0","2000"
"10","10","retrieval","new_objects","5","LampPost_ThreeBulbs.jpg","37","1","1684"
"10","10","retrieval","old_objects","6","GiftBow.jpg","36","1","1237"
"10","10","retrieval","new_objects","7","MouthGuard.jpg","37","1","1736"
"10","10","retrieval","new_objects","8","Pineapple.jpg","36","0","1053"
"10","10","retrieval","old_objects","9","SnowGlobe.jpg","37","0","1522"
"10","10","retrieval","new_objects","10","Chopsticks.jpg","37","1","1441"
"10","10","retrieval","old_objects","11","Faucet.jpg","36","1","1252"
"10","10","retrieval","old_objects","12","Jar_Cotton.jpg","36","1","1279"
"10","10","retrieval","old_objects","13","Bowl_Chinese.jpg","36","1","1625"
"10","10","retrieval","new_objects","14","DivingBoard.jpg","37","1","1172"
"10","10","retrieval","new_objects","15","MortarPestle_WhiteMarble.jpg","36","0","1299"
"10","10","retrieval","old_objects","16","Scalpel.jpg","36","1","1468"
"10","10","retrieval","new_objects","17","KnifeHolder.jpg","37","1","966"
"10","10","retrieval","new_objects","18","Lipstick.jpg","37","1","1293"
"10","10","retrieval","old_objects","19","Bird_Toucan.jpg","36","1","1991"
"10","10","retrieval","new_objects","20","BottleOpener.jpg","36","0","1402"
"10","10","retrieval","old_objects","21","FortuneCookie.jpg","37","0","1559"
"10","10","retrieval","old_objects","22","Pumpkin.jpg","36","1","1157"
"10","10","retrieval","old_objects","23","Pajamas.jpg","36","1","1285"
"10","10","retrieval","old_objects","24","TomatoSauce.jpg","36","1","1335"
"10","10","retrieval","old_objects","25","Statue_Jesus.jpg","36","1","1247"
"10","10","retrieval","old_objects","26","BuildingChinese.jpg","37","0","1683"
"10","10","retrieval","old_objects","27","DoubleBass.jpg","36","1","1123"
"10","10","retrieval","old_objects","28","ElasticBand.jpg","37","0","1180"
"10","10","retrieval","new_objects","29","Computer_CPU.jpg","37","1","1018"
"10","10","retrieval","old_objects","30","ComputerKeyboard_F1.jpg","36","1","1496"
"10","10","retrieval","new_objects","31","Carbiner_Ascender.jpg","37","1","1032"
"10","10","retrieval","new_objects","32","BridgeWooden.jpg","37","1","837"
"10","10","retrieval","old_objects","33","Garlic_Clove.jpg","37","0","1122"
"10","10","retrieval","old_objects","34","TireRims.jpg","37","0","852"
"10","10","retrieval","old_objects","35","TeethMould.jpg","36","1","969"
"10","10","retrieval","new_objects","36","Makeup_Mascara.jpg","37","1","817"
"10","10","retrieval","old_objects","37","Mask_VenetianLongNose.jpg","37","0","1479"
"10","10","retrieval","new_objects","38","Fish_Rockbass.jpg","36","0","848"
"10","10","retrieval","new_objects","39","White_Screen.jpg","36","0","1732"
"10","10","retrieval","new_objects","40","Lion.jpg","36","0","1091"
"10","10","retrieval","new_objects","41","Boots_Hiking.jpg","37","1","837"
"10","10","retrieval","new_objects","42","Jar_Strawberry.jpg","36","0","1394"
"10","10","retrieval","old_objects","43","Knee.jpg","36","1","1015"
"10","10","retrieval","new_objects","44","Lock_Combination.jpg","37","1","956"
"10","10","retrieval","old_objects","45","Barrel_Upright.jpg","36","1","1308"
"10","10","retrieval","new_objects","46","BloodpPresureCuff.jpg","37","1","1165"
"10","10","retrieval","new_objects","47","Shoes_DutchClogs.jpg","37","1","892"
"10","10","retrieval","old_objects","48","PocketKnife.jpg","36","1","831"
"10","10","retrieval","old_objects","49","DryRack_Clothes.jpg","37","0","1012"
"10","10","retrieval","new_objects","50","Thermostat_Digital.jpg","37","1","826"
"10","10","retrieval","old_objects","51","Star.jpg","36","1","1031"
"10","10","retrieval","old_objects","52","EyeDrops.jpg","37","0","1469"
"10","10","retrieval","new_objects","53","Canister_Oil.jpg","36","0","974"
"10","10","retrieval","old_objects","54","ChalkLineTool.jpg","37","0","958"
"10","10","retrieval","old_objects","55","Glass_Cup.jpg","37","0","1567"
"10","10","retrieval","new_objects","56","Candelabra.jpg","37","1","756"
"10","10","retrieval","new_objects","57","Heater_ElectricPortable.jpg","36","0","1429"
"10","10","retrieval","old_objects","58","Gun_Glue.jpg","37","0","760"
"10","10","retrieval","new_objects","59","DusterFeather.jpg","37","1","993"
"10","10","retrieval","new_objects","60","Table_Set.jpg","37","1","848"
"10","10","retrieval","old_objects","62","Radio_Modern.jpg","36","1","927"
"10","10","retrieval","old_objects","63","RiceRaw.jpg","36","1","976"
"10","10","retrieval","new_objects","64","Boat_Trailer.jpg","37","1","767"
"10","10","retrieval","old_objects","65","Cracker_Saltine.jpg","36","1","1064"
"10","10","retrieval","new_objects","66","Partition.jpg","37","1","763"
"10","10","retrieval","new_objects","67","Pen_Calligraphy.jpg","36","0","1155"
"10","10","retrieval","new_objects","68","Stove_WithOven.jpg","37","1","890"
"10","10","retrieval","new_objects","69","Backpack_Travel.jpg","37","1","1389"
"10","10","retrieval","old_objects","70","PotatoMasher_Grate.jpg","37","0","1091"
"10","10","retrieval","new_objects","71","DentalProbe.jpg","37","1","845"
"10","10","retrieval","new_objects","72","Trumpet.jpg","37","1","801"
"10","10","retrieval","old_objects","73","Pear_Yellow.jpg","36","1","745"
"10","10","retrieval","new_objects","74","Noisemaker.jpg","37","1","1554"
"10","10","retrieval","new_objects","75","Backhoe.jpg","36","0","1143"
"10","10","retrieval","new_objects","76","Tofu.jpg","36","0","1342"
"10","10","retrieval","old_objects","77","HairDryer.jpg","37","0","1030"
"10","10","retrieval","new_objects","78","Keychain_Metal.jpg","37","1","866"
"10","10","retrieval","old_objects","79","Walker_Blue.jpg","37","0","599"
"10","10","retrieval","old_objects","80","Toy_BeadMaze.jpg","37","0","615"
"10","10","retrieval","new_objects","81","Box_Notepaper.jpg","36","0","1078"
"10","10","retrieval","old_objects","82","Cannister_Gas.jpg","36","1","960"
"10","10","retrieval","old_objects","83","Lynx.jpg","36","1","873"
"10","10","retrieval","new_objects","84","JumpingJack.jpg","37","1","644"
"10","10","retrieval","old_objects","85","Bread_Carrot.jpg","36","1","602"
"10","10","retrieval","old_objects","86","Shark_Hammerhead.jpg","36","1","946"
"10","10","retrieval","old_objects","87","Bandage_Wrap.jpg","37","0","1443"
"10","10","retrieval","new_objects","88","Crate_Milk.jpg","36","0","1142"
"10","10","retrieval","new_objects","89","Window.jpg","37","1","1138"
"10","10","retrieval","old_objects","90","Lychee.jpg","36","1","1134"
"10","10","retrieval","old_objects","91","CapGraduation.jpg","36","1","1103"
"10","10","retrieval","new_objects","92","SaladCaesar.jpg","36","0","1200"
"10","10","retrieval","new_objects","93","MalletJudge.jpg","36","0","1101"
"10","10","retrieval","old_objects","94","Lock_Key.jpg","37","0","727"
"10","10","retrieval","old_objects","95","Cranberry.jpg","36","1","994"
"10","10","retrieval","old_objects","96","OnionRings.jpg","36","1","664"
"10","10","retrieval","old_objects","97","WaterHeater.jpg","37","0","822"
"10","10","retrieval","new_objects","98","SoapDish.jpg","36","0","980"
"10","10","retrieval","old_objects","99","Elephant.jpg","36","1","659"
"10","10","retrieval","old_objects","100","LumiereBeautyBeast.jpg","37","0","808"
"10","10","retrieval","old_objects","101","Steam_Cleaner.jpg","37","0","607"
"10","10","retrieval","old_objects","102","Shrimp.jpg","37","0","759"
"10","10","retrieval","old_objects","103","FileFolder.jpg","37","0","736"
"10","10","retrieval","old_objects","104","Boxcutter.jpg","37","0","642"
"10","10","retrieval","old_objects","105","FlipFlop_PairBlue.jpg","37","0","680"
"10","10","retrieval","new_objects","106","RibbonString.jpg","37","1","732"
"10","10","retrieval","new_objects","107","Leek.jpg","36","0","862"
"10","10","retrieval","old_objects","108","Clip_Chip.jpg","37","0","978"
"10","10","retrieval","new_objects","109","Dress_Blue.jpg","37","1","769"
"10","10","retrieval","old_objects","110","LightBulb_Christmas.jpg","37","0","745"
"10","10","retrieval","new_objects","111","NeedlesAcupuncture.jpg","36","0","1162"
"10","10","retrieval","new_objects","112","Bag_Gift.jpg","37","1","1129"
"10","10","retrieval","old_objects","113","Ashtray_Empty.jpg","36","1","898"
"10","10","retrieval","old_objects","114","WaterColorPaintset.jpg","36","1","765"
"10","10","retrieval","new_objects","115","Bellows.jpg","37","1","1069"
"10","10","retrieval","new_objects","116","Thimble.jpg","36","0","1016"
"10","10","retrieval","old_objects","117","Candle_Blue.jpg","36","1","1062"
"10","10","retrieval","new_objects","118","Toy_Shark.jpg","37","1","1504"
"10","10","retrieval","new_objects","119","Card_TwoSpade.jpg","36","0","1112"
"10","10","retrieval","old_objects","120","Toaster_MetalSleek.jpg","37","0","1010"
"10","10","retrieval","old_objects","121","HairClipper.jpg","37","0","664"
"10","10","retrieval","new_objects","123","Dog_ChowChow.jpg","36","0","1005"
"10","10","retrieval","old_objects","124","Cornucopia.jpg","36","1","748"
"10","10","retrieval","new_objects","125","Stepper.jpg","37","1","1013"
"10","10","retrieval","old_objects","126","Speaker_Computer.jpg","37","0","1107"
"10","10","retrieval","new_objects","127","ColoringSet.jpg","37","1","524"
"10","10","retrieval","old_objects","128","Jug_GallonWhite.jpg","36","1","839"
"10","10","retrieval","old_objects","129","Nametag.jpg","37","0","749"
"10","10","retrieval","old_objects","130","Bird_Parrot.jpg","37","0","551"
"10","10","retrieval","new_objects","131","Barrel_Wine.jpg","36","0","1832"
"10","10","retrieval","new_objects","132","Grenade.jpg","37","1","762"
"10","10","retrieval","old_objects","133","Castle_Sand.jpg","37","0","922"
"10","10","retrieval","old_objects","134","Staircase_Straight.jpg","36","1","1117"
"10","10","retrieval","new_objects","135","RadioactiveContainer.jpg","36","0","693"
"10","10","retrieval","new_objects","136","Switch_Power.jpg","37","1","761"
"10","10","retrieval","old_objects","137","CarSeat.jpg","37","0","841"
"10","10","retrieval","new_objects","138","Teapot.jpg","37","1","1151"
"10","10","retrieval","new_objects","139","SofaAntique.jpg","36","0","1022"
"10","10","retrieval","new_objects","140","ClothRed.jpg","37","1","1251"
"10","10","retrieval","new_objects","141","Ashtray_Cigarettes.jpg","36","0","1014"
"10","10","retrieval","new_objects","142","Fork_Fondue.jpg","37","1","875"
"10","10","retrieval","old_objects","143","Bag_Grains.jpg","36","1","911"
"10","10","retrieval","old_objects","144","IceCubes copy.jpg","36","1","882"
"10","10","retrieval","new_objects","145","ShoulderPads.jpg","37","1","789"
"10","10","retrieval","new_objects","146","PhoneCase.jpg","37","1","924"
"10","10","retrieval","old_objects","147","Lips_Real.jpg","36","1","894"
"10","10","retrieval","new_objects","148","Box_Staples.jpg","37","1","1473"
"10","10","retrieval","new_objects","149","Tickets_PrintWords.jpg","36","0","1514"
"10","10","retrieval","old_objects","150","Drum_Cymbal.jpg","36","1","834"
"10","10","retrieval","old_objects","151","CementFinisher.jpg","37","0","896"
"10","10","retrieval","old_objects","152","Pants_Jeans.jpg","37","0","931"
"10","10","retrieval","new_objects","153","Fryingpan.jpg","36","0","1123"
"10","10","retrieval","old_objects","154","Coconut.jpg","36","1","837"
"10","10","retrieval","new_objects","155","Toy_StackingRing.jpg","37","1","1142"
"10","10","retrieval","old_objects","156","Snowpea.jpg","36","1","842"
"10","10","retrieval","old_objects","157","CoffeeGrinder.jpg","36","1","1399"
"10","10","retrieval","new_objects","158","Toy_JackInTheBox.jpg","37","1","604"
"10","10","retrieval","new_objects","159","Keys_Bunch.jpg","36","0","779"
"10","10","retrieval","old_objects","160","Toy_RabbitPlushie.jpg","37","0","675"
"10","10","retrieval","new_objects","161","Pencil.jpg","36","0","864"
"10","10","retrieval","new_objects","162","Jug_ClayAncient.jpg","36","0","683"
"10","10","retrieval","new_objects","163","Beaker.jpg","37","1","698"
"10","10","retrieval","old_objects","164","SolderingWire.jpg","36","1","1003"
"10","10","retrieval","old_objects","165","Bottle_Beer.jpg","37","0","722"
"10","10","retrieval","new_objects","166","Container_RedPlastic.jpg","37","1","596"
"10","10","retrieval","new_objects","167","Tray_Cafeteria.jpg","37","1","875"
"10","10","retrieval","old_objects","168","SolderingIron.jpg","37","0","1399"
"10","10","retrieval","old_objects","169","Ruler_Digital.jpg","37","0","636"
"10","10","retrieval","old_objects","170","Syringe_Needle.jpg","37","0","587"
