"group","subject","blockcode","trialcode","trialnum","values.stimulus","response","correct","latency"
"2","2","encoding","encoding","1","Napkin_Single.jpg","36","0","1362"
"2","2","encoding","encoding","2","Funnel.jpg","36","0","930"
"2","2","encoding","encoding","3","Potato.jpg","36","0","1379"
"2","2","encoding","encoding","4","Bagpipes.jpg","36","0","1044"
"2","2","encoding","encoding","5","Boat_Colourful.jpg","37","0","1215"
"2","2","encoding","encoding","6","Coral.jpg","37","0","1220"
"2","2","encoding","encoding","7","Boat_Ferry.jpg","37","0","1115"
"2","2","encoding","encoding","8","CodeDoorLock.jpg","36","0","1375"
"2","2","encoding","encoding","9","DentalFloss.jpg","36","0","1196"
"2","2","encoding","encoding","10","Cannister_GasVintage.jpg","36","0","937"
"2","2","encoding","encoding","11","TartStrawberry.jpg","36","0","1165"
"2","2","encoding","encoding","12","Apple_Candy.jpg","36","0","1246"
"2","2","encoding","encoding","13","CartonEggs.jpg","36","0","1283"
"2","2","encoding","encoding","14","BicycleReflector.jpg","36","0","1435"
"2","2","encoding","encoding","15","Shoe_Sneaker.jpg","36","0","1803"
"2","2","encoding","encoding","16","HedgeShears.jpg","37","0","1040"
"2","2","encoding","encoding","17","IceCreamCone.jpg","36","0","909"
"2","2","encoding","encoding","18","LightBulb_White.jpg","36","0","953"
"2","2","encoding","encoding","19","Sled.jpg","37","0","1085"
"2","2","encoding","encoding","20","SmokingPipe.jpg","0","0","2000"
"2","2","encoding","encoding","21","Playground.jpg","37","0","943"
"2","2","encoding","encoding","22","Spoon_Serving.jpg","36","0","915"
"2","2","encoding","encoding","23","Car_Sedan.jpg","37","0","1183"
"2","2","encoding","encoding","24","Bag_Groceries.jpg","36","0","1551"
"2","2","encoding","encoding","25","Slippers.jpg","36","0","865"
"2","2","encoding","encoding","26","Toy_Top.jpg","36","0","1055"
"2","2","encoding","encoding","27","Dropper.jpg","36","0","1064"
"2","2","encoding","encoding","28","TimerKitchen.jpg","36","0","1150"
"2","2","encoding","encoding","29","WindshieldWasherFluid.jpg","37","0","1496"
"2","2","encoding","encoding","30","AlcoholBar.jpg","36","0","1005"
"2","2","encoding","encoding","31","Cookie.jpg","36","0","1163"
"2","2","encoding","encoding","32","KeyHook_Occupied.jpg","36","0","1028"
"2","2","encoding","encoding","33","Kangaroo.jpg","37","0","858"
"2","2","encoding","encoding","34","Dreidel.jpg","36","0","814"
"2","2","encoding","encoding","35","Tube_Glue.jpg","36","0","920"
"2","2","encoding","encoding","36","Shrub_Boxwood.jpg","37","0","780"
"2","2","encoding","encoding","37","PuppetTheatre_WhiteGold.jpg","36","0","1087"
"2","2","encoding","encoding","38","ToothPick.jpg","36","0","860"
"2","2","encoding","encoding","39","Hawk.jpg","37","0","686"
"2","2","encoding","encoding","40","Puzzle_Tree.jpg","36","0","1470"
"2","2","encoding","encoding","41","Dress_Cocktail.jpg","36","0","1015"
"2","2","encoding","encoding","42","Calculator.jpg","36","0","986"
"2","2","encoding","encoding","43","Drum_Conga.jpg","36","0","1035"
"2","2","encoding","encoding","44","Toy_DinosaurBrontosaurus.jpg","36","0","888"
"2","2","encoding","encoding","45","Table_Saw.jpg","36","0","1200"
"2","2","encoding","encoding","46","GasBurner.jpg","36","0","970"
"2","2","encoding","encoding","47","Bird_Pelican.jpg","37","0","756"
"2","2","encoding","encoding","48","PaintRollTray.jpg","36","0","1142"
"2","2","encoding","encoding","49","Mop.jpg","36","0","890"
"2","2","encoding","encoding","50","Jar_Empty.jpg","36","0","896"
"2","2","encoding","encoding","51","ChessPiece_Bishop.jpg","36","0","764"
"2","2","encoding","encoding","52","Hammock.jpg","37","0","1088"
"2","2","encoding","encoding","53","Comb_1.jpg","36","0","704"
"2","2","encoding","encoding","54","Igloo.jpg","37","0","1379"
"2","2","encoding","encoding","55","SoundMixer_Blue.jpg","36","0","904"
"2","2","encoding","encoding","56","Keyhole.jpg","36","0","712"
"2","2","encoding","encoding","57","ShowerCap.jpg","36","0","1551"
"2","2","encoding","encoding","58","Eggplant.jpg","37","0","754"
"2","2","encoding","encoding","59","Ladle.jpg","36","0","792"
"2","2","encoding","encoding","60","Brush_Cleaning.jpg","36","0","829"
"2","2","encoding","encoding","62","Toast.jpg","36","0","917"
"2","2","encoding","encoding","63","Socks_Baby.jpg","36","0","1242"
"2","2","encoding","encoding","64","Clippers_Glass.jpg","37","0","918"
"2","2","encoding","encoding","65","FuseBox.jpg","36","0","933"
"2","2","encoding","encoding","66","Lantern_TeaBox.jpg","37","0","1525"
"2","2","encoding","encoding","67","Box_WoodCrate.jpg","36","0","1514"
"2","2","encoding","encoding","68","Mask_African.jpg","36","0","958"
"2","2","encoding","encoding","69","Cloud.jpg","37","0","924"
"2","2","encoding","encoding","70","Magnet_Three.jpg","36","0","1004"
"2","2","encoding","encoding","71","Trowel.jpg","37","0","830"
"2","2","encoding","encoding","72","Snail.jpg","37","0","924"
"2","2","encoding","encoding","73","Plate_Wooden.jpg","36","0","1023"
"2","2","encoding","encoding","74","Fireplace_Outdoor.jpg","37","0","1136"
"2","2","encoding","encoding","75","Barbecue_Gas.jpg","37","0","809"
"2","2","encoding","encoding","76","Figurine_Ballerina.jpg","36","0","904"
"2","2","encoding","encoding","77","Cabasa.jpg","36","0","1025"
"2","2","encoding","encoding","78","DogFood.jpg","36","0","1132"
"2","2","encoding","encoding","79","Mug_Beer.jpg","36","0","1081"
"2","2","encoding","encoding","80","Spool_Thread.jpg","36","0","1006"
"2","2","encoding","encoding","81","Clip_Binder.jpg","36","0","902"
"2","2","encoding","encoding","82","Cannoli.jpg","36","0","1036"
"2","2","encoding","encoding","83","Ball_Golf.jpg","37","0","861"
"2","2","encoding","encoding","84","Tombstone.jpg","37","0","908"
"2","2","encoding","encoding","85","Hat_Visor.jpg","36","0","969"
"2","2","encoding","encoding","86","Chair_High.jpg","36","0","1174"
"2","2","encoding","encoding","87","Corn_Kernels.jpg","36","0","1782"
"2","2","encoding","encoding","88","Mattress.jpg","36","0","935"
"2","2","encoding","encoding","89","Spotlight.jpg","37","0","970"
"2","2","encoding","encoding","90","Tuxedo.jpg","36","0","822"
"2","2","encoding","encoding","91","DJMixer.jpg","36","0","908"
"2","2","encoding","encoding","92","Ship_Battle.jpg","37","0","964"
"2","2","encoding","encoding","93","Pot_FlowerClay.jpg","37","0","796"
"2","2","encoding","encoding","94","ClothCoaster.jpg","36","0","787"
"2","2","encoding","encoding","95","SiloGrain.jpg","37","0","1052"
"2","2","encoding","encoding","96","Shoes_Sneakers.jpg","37","0","1239"
"2","2","encoding","encoding","97","Case_Leather.jpg","36","0","985"
"2","2","encoding","encoding","98","Cymbals.jpg","36","0","1095"
"2","2","encoding","encoding","99","Distaff.jpg","36","0","1202"
"2","2","encoding","encoding","100","PotatoMasher_Zigzag.jpg","36","0","1254"
"2","2","encoding","encoding","101","Brush_Light.jpg","36","0","996"
"2","2","encoding","encoding","102","IceCubes.jpg","36","0","1191"
"2","2","encoding","encoding","103","Pitcher.jpg","36","0","1070"
"2","2","encoding","encoding","104","BrainSagittal.jpg","36","0","1070"
"2","2","encoding","encoding","105","Exercise_Bike.jpg","36","0","1279"
"2","2","encoding","encoding","106","Seashell_RoseMurex.jpg","37","0","947"
"2","2","encoding","encoding","107","Bird_Falcon.jpg","37","0","844"
"2","2","encoding","encoding","108","VGAport.jpg","36","0","926"
"2","2","encoding","encoding","109","Bag_Garbage.jpg","36","0","1468"
"2","2","encoding","encoding","110","Bottle_Liquor.jpg","36","0","1467"
"2","2","encoding","encoding","111","Toy_PoliceCar.jpg","36","0","1741"
"2","2","encoding","encoding","112","Chair_Folding.jpg","37","0","997"
"2","2","encoding","encoding","113","Brush_Paint.jpg","36","0","1133"
"2","2","encoding","encoding","114","WashingMachine.jpg","36","0","908"
"2","2","encoding","encoding","115","Bugle.jpg","36","0","808"
"2","2","encoding","encoding","116","Tap.jpg","36","0","1203"
"2","2","encoding","encoding","117","Bird_Tern.jpg","37","0","989"
"2","2","encoding","encoding","118","Branches_Campfire.jpg","37","0","1200"
"2","2","encoding","encoding","119","VacuumHose.jpg","36","0","965"
"2","2","encoding","encoding","120","Bread_Pita.jpg","36","0","1477"
"2","2","encoding","encoding","121","Bucket_WoodenDark.jpg","37","0","1389"
"2","2","encoding","encoding","123","Bottle_Champagne.jpg","36","0","1029"
"2","2","encoding","encoding","124","MeatRaw.jpg","36","0","1090"
"2","2","encoding","encoding","125","Cassette_Video.jpg","36","0","767"
"2","2","encoding","encoding","126","Bird_CanadianGoose.jpg","37","0","707"
"2","2","encoding","encoding","127","Spoons_Musical.jpg","36","0","876"
"2","2","encoding","encoding","128","GutterAndDrainPipe.jpg","37","0","973"
"2","2","encoding","encoding","129","PenStand.jpg","36","0","1196"
"2","2","encoding","encoding","130","Shampoo.jpg","36","0","1015"
"2","2","encoding","encoding","131","LawnMower.jpg","37","0","778"
"2","2","encoding","encoding","132","Sushi.jpg","36","0","886"
"2","2","encoding","encoding","133","Toy_MerryGoRound.jpg","36","0","1255"
"2","2","encoding","encoding","134","ToothbrushHolder.jpg","36","0","1118"
"2","2","encoding","encoding","135","Book_Leather.jpg","36","0","882"
"2","2","encoding","encoding","136","CoolingFan_Engine.jpg","36","0","1728"
"2","2","encoding","encoding","137","Ostrich.jpg","37","0","781"
"2","2","encoding","encoding","138","Bottle_Baby.jpg","36","0","866"
"2","2","encoding","encoding","139","Pasta_Macaroni.jpg","36","0","890"
"2","2","encoding","encoding","140","Mask_Ski.jpg","36","0","1114"
"2","2","encoding","encoding","141","Cherry.jpg","37","0","1439"
"2","2","encoding","encoding","142","Tricycle.jpg","37","0","1347"
"2","2","encoding","encoding","143","Tape_Scotch.jpg","36","0","1077"
"2","2","encoding","encoding","144","Ruler_Triangle.jpg","36","0","969"
"2","2","encoding","encoding","145","MixingGlass.jpg","36","0","1243"
"2","2","encoding","encoding","146","Autocreeper.jpg","36","0","1304"
"2","2","encoding","encoding","147","Spoon_WoodenLight.jpg","36","0","1230"
"2","2","encoding","encoding","148","Triangle.jpg","36","0","1059"
"2","2","encoding","encoding","149","Gloves_WhiteKnit.jpg","37","0","1063"
"2","2","encoding","encoding","150","Pepper_Chili.jpg","37","0","1126"
"2","2","encoding","encoding","151","TubeRing.jpg","37","0","1167"
"2","2","encoding","encoding","152","Origami_Bird.jpg","36","0","1313"
"2","2","encoding","encoding","153","Belt.jpg","36","0","1060"
"2","2","encoding","encoding","154","Light_Siren.jpg","37","0","1225"
"2","2","encoding","encoding","155","Pot_Crock.jpg","36","0","1046"
"2","2","encoding","encoding","156","Toy_Lion.jpg","36","0","1073"
"2","2","encoding","encoding","157","Sword.jpg","36","0","1179"
"2","2","encoding","encoding","158","Canteen.jpg","37","0","1283"
"2","2","encoding","encoding","159","Gun_Revolver.jpg","37","0","1148"
"2","2","encoding","encoding","160","Bowl_Glass.jpg","36","0","969"
"2","2","encoding","encoding","161","Phone_Public.jpg","37","0","1052"
"2","2","encoding","encoding","162","PokerChips.jpg","36","0","1071"
"2","2","encoding","encoding","163","Hoodie.jpg","37","0","1034"
"2","2","encoding","encoding","164","Nyala.jpg","37","0","924"
"2","2","encoding","encoding","165","Panda.jpg","37","0","777"
"2","2","encoding","encoding","166","DrainPlug.jpg","36","0","1133"
"2","2","encoding","encoding","167","Bottle_CosmeticSpray.jpg","36","0","1059"
"2","2","encoding","encoding","168","WateringCan_Antique.jpg","37","0","846"
"2","2","encoding","encoding","169","Cassette_Audio.jpg","36","0","902"
"2","2","encoding","encoding","170","Tripod.jpg","37","0","1413"
"2","2","encoding","encoding","171","Desk_School.jpg","36","0","1397"
"2","2","encoding","encoding","172","Napkin_Holder.jpg","36","0","1163"
"2","2","encoding","encoding","173","Toy_BearBluePlushie.jpg","36","0","909"
"2","2","encoding","encoding","174","Telescope.jpg","37","0","930"
"2","2","encoding","encoding","175","DoorBolt.jpg","37","0","1370"
"2","2","encoding","encoding","176","Toy_Witch.jpg","37","0","1507"
"2","2","encoding","encoding","177","Armchair.jpg","36","0","812"
"2","2","retrieval","old_objects","1","PenStand.jpg","36","1","1004"
"2","2","retrieval","old_objects","2","Fireplace_Outdoor.jpg","36","1","875"
"2","2","retrieval","new_objects","3","Garlic_Whole.jpg","37","1","1188"
"2","2","retrieval","new_objects","4","Pricegun.jpg","37","1","1269"
"2","2","retrieval","new_objects","5","Toy_Tank.jpg","37","1","692"
"2","2","retrieval","old_objects","6","MixingGlass.jpg","36","1","724"
"2","2","retrieval","old_objects","7","Autocreeper.jpg","36","1","675"
"2","2","retrieval","old_objects","8","Box_WoodCrate.jpg","36","1","712"
"2","2","retrieval","old_objects","9","ToothPick.jpg","36","1","662"
"2","2","retrieval","old_objects","10","Bread_Pita.jpg","36","1","887"
"2","2","retrieval","new_objects","11","PencilSharpener.jpg","37","1","835"
"2","2","retrieval","new_objects","12","CoolingFan_Engine2.jpg","37","1","813"
"2","2","retrieval","new_objects","13","Staircase_Curving.jpg","37","1","659"
"2","2","retrieval","new_objects","14","Bread_Loaf.jpg","37","1","652"
"2","2","retrieval","new_objects","15","Crowbar.jpg","37","1","660"
"2","2","retrieval","new_objects","16","Toy_Zebra.jpg","37","1","645"
"2","2","retrieval","old_objects","17","Igloo.jpg","36","1","842"
"2","2","retrieval","new_objects","18","CarLighter.jpg","37","1","626"
"2","2","retrieval","new_objects","19","Earring_Hoop.jpg","37","1","791"
"2","2","retrieval","old_objects","20","Napkin_Holder.jpg","36","1","817"
"2","2","retrieval","new_objects","21","Box_Present.jpg","37","1","819"
"2","2","retrieval","old_objects","22","Bugle.jpg","36","1","1438"
"2","2","retrieval","old_objects","23","Shrub_Boxwood.jpg","37","0","1469"
"2","2","retrieval","old_objects","24","Table_Saw.jpg","37","0","1051"
"2","2","retrieval","new_objects","25","Toy_Babydoll.jpg","37","1","685"
"2","2","retrieval","new_objects","26","Qtip_Single.jpg","37","1","807"
"2","2","retrieval","new_objects","27","TurkeyDinner.jpg","37","1","643"
"2","2","retrieval","old_objects","28","Spoon_Serving.jpg","36","1","1188"
"2","2","retrieval","new_objects","29","Cleaver_Meat.jpg","37","1","699"
"2","2","retrieval","new_objects","30","Projector_Film.jpg","37","1","685"
"2","2","retrieval","old_objects","31","Seashell_RoseMurex.jpg","36","1","808"
"2","2","retrieval","new_objects","32","Toy_LambPlushie.jpg","37","1","666"
"2","2","retrieval","new_objects","33","Pouch_PotPourri.jpg","37","1","607"
"2","2","retrieval","old_objects","34","TimerKitchen.jpg","36","1","1419"
"2","2","retrieval","new_objects","35","Suspenders.jpg","37","1","610"
"2","2","retrieval","old_objects","36","Snail.jpg","36","1","698"
"2","2","retrieval","old_objects","37","Sushi.jpg","36","1","693"
"2","2","retrieval","old_objects","38","Brush_Cleaning.jpg","36","1","796"
"2","2","retrieval","new_objects","39","Abacus.jpg","37","1","619"
"2","2","retrieval","new_objects","40","DarthVader.jpg","37","1","1311"
"2","2","retrieval","new_objects","41","Spear.jpg","37","1","777"
"2","2","retrieval","new_objects","42","CDstack.jpg","37","1","759"
"2","2","retrieval","new_objects","43","TortillaChip.jpg","37","1","672"
"2","2","retrieval","old_objects","44","Phone_Public.jpg","36","1","753"
"2","2","retrieval","new_objects","45","Flute_Tin.jpg","37","1","618"
"2","2","retrieval","old_objects","46","Dress_Cocktail.jpg","36","1","946"
"2","2","retrieval","new_objects","47","Chime.jpg","37","1","717"
"2","2","retrieval","old_objects","48","TubeRing.jpg","36","1","655"
"2","2","retrieval","new_objects","49","Mask_Viking.jpg","37","1","538"
"2","2","retrieval","new_objects","50","Mask_HockeyGoalie.jpg","37","1","583"
"2","2","retrieval","old_objects","51","PotatoMasher_Zigzag.jpg","36","1","691"
"2","2","retrieval","old_objects","52","Bowl_Glass.jpg","36","1","639"
"2","2","retrieval","new_objects","53","Catheter.jpg","37","1","976"
"2","2","retrieval","old_objects","54","Boat_Ferry.jpg","36","1","1466"
"2","2","retrieval","old_objects","55","Case_Leather.jpg","36","1","729"
"2","2","retrieval","old_objects","56","Kangaroo.jpg","36","1","626"
"2","2","retrieval","old_objects","57","DoorBolt.jpg","36","1","742"
"2","2","retrieval","new_objects","58","Glasses_Sun.jpg","37","1","573"
"2","2","retrieval","new_objects","59","Toy_BlocksMultiShape.jpg","37","1","643"
"2","2","retrieval","new_objects","60","ContactLens.jpg","37","1","904"
"2","2","retrieval","new_objects","62","JuicerCitrus.jpg","37","1","847"
"2","2","retrieval","new_objects","63","GoldNugget.jpg","37","1","652"
"2","2","retrieval","new_objects","64","PirateFlag.jpg","37","1","647"
"2","2","retrieval","new_objects","65","Box_GiftTopView.jpg","37","1","578"
"2","2","retrieval","old_objects","66","WateringCan_Antique.jpg","36","1","692"
"2","2","retrieval","new_objects","67","Bird_Budgie.jpg","37","1","612"
"2","2","retrieval","new_objects","68","Airplane_Fighter.jpg","37","1","761"
"2","2","retrieval","old_objects","69","Drum_Conga.jpg","36","1","790"
"2","2","retrieval","new_objects","70","Cork.jpg","37","1","587"
"2","2","retrieval","new_objects","71","AirVent.jpg","37","1","610"
"2","2","retrieval","old_objects","72","Bird_CanadianGoose.jpg","36","1","593"
"2","2","retrieval","new_objects","73","Gauge.jpg","37","1","858"
"2","2","retrieval","new_objects","74","HotWaterBottle.jpg","37","1","816"
"2","2","retrieval","new_objects","75","Keg.jpg","37","1","709"
"2","2","retrieval","new_objects","76","Bag_Camera.jpg","36","0","1686"
"2","2","retrieval","old_objects","77","Bucket_WoodenDark.jpg","36","1","796"
"2","2","retrieval","new_objects","78","Toilet.jpg","37","1","710"
"2","2","retrieval","new_objects","79","Crib_Basket.jpg","37","1","929"
"2","2","retrieval","old_objects","80","Bird_Pelican.jpg","36","1","747"
"2","2","retrieval","new_objects","81","Brush_Windshield.jpg","37","1","617"
"2","2","retrieval","new_objects","82","Chair_MedicalToilet.jpg","37","1","627"
"2","2","retrieval","old_objects","83","Cherry.jpg","36","1","557"
"2","2","retrieval","old_objects","84","CartonEggs.jpg","36","1","629"
"2","2","retrieval","new_objects","85","SmokeDetector.jpg","37","1","584"
"2","2","retrieval","old_objects","86","SoundMixer_Blue.jpg","36","1","939"
"2","2","retrieval","old_objects","87","SiloGrain.jpg","36","1","764"
"2","2","retrieval","old_objects","88","Cymbals.jpg","36","1","728"
"2","2","retrieval","old_objects","89","Tube_Glue.jpg","36","1","729"
"2","2","retrieval","new_objects","90","MechanicalSpring.jpg","37","1","631"
"2","2","retrieval","new_objects","91","HandRake.jpg","37","1","1156"
"2","2","retrieval","new_objects","92","BunsenBurner.jpg","37","1","988"
"2","2","retrieval","old_objects","93","DrainPlug.jpg","36","1","796"
"2","2","retrieval","old_objects","94","Ruler_Triangle.jpg","36","1","701"
"2","2","retrieval","new_objects","95","Toolbox_RedOpen.jpg","37","1","609"
"2","2","retrieval","new_objects","96","Chair_Airplane.jpg","37","1","652"
"2","2","retrieval","new_objects","97","Bicycle_Adult.jpg","37","1","648"
"2","2","retrieval","new_objects","98","Candy_Chocolate.jpg","37","1","730"
"2","2","retrieval","old_objects","99","ToothbrushHolder.jpg","36","1","662"
"2","2","retrieval","old_objects","100","GutterAndDrainPipe.jpg","36","1","879"
"2","2","retrieval","new_objects","101","Acorn.jpg","37","1","1065"
"2","2","retrieval","new_objects","102","Accordion.jpg","37","1","944"
"2","2","retrieval","old_objects","103","Mop.jpg","36","1","868"
"2","2","retrieval","new_objects","104","Folder_Plastic.jpg","37","1","899"
"2","2","retrieval","new_objects","105","Hockey_Equipment.jpg","37","1","749"
"2","2","retrieval","old_objects","106","Bottle_Champagne.jpg","36","1","631"
"2","2","retrieval","new_objects","107","Banana.jpg","37","1","658"
"2","2","retrieval","old_objects","108","Dropper.jpg","36","1","822"
"2","2","retrieval","new_objects","109","Box_Cutlery.jpg","37","1","732"
"2","2","retrieval","new_objects","110","Umbrella_Retractable.jpg","37","1","781"
"2","2","retrieval","old_objects","111","Dreidel.jpg","36","1","856"
"2","2","retrieval","old_objects","112","Playground.jpg","36","1","782"
"2","2","retrieval","new_objects","113","Brace_Neck.jpg","37","1","635"
"2","2","retrieval","new_objects","114","Embosser.jpg","37","1","849"
"2","2","retrieval","old_objects","115","Hawk.jpg","36","1","643"
"2","2","retrieval","old_objects","116","Cabasa.jpg","36","1","841"
"2","2","retrieval","old_objects","117","Clippers_Glass.jpg","36","1","699"
"2","2","retrieval","new_objects","118","AirTank.jpg","37","1","755"
"2","2","retrieval","old_objects","119","Sword.jpg","36","1","746"
"2","2","retrieval","new_objects","120","Flower_Rose.jpg","37","1","745"
"2","2","retrieval","old_objects","121","Pot_FlowerClay.jpg","36","1","714"
"2","2","retrieval","old_objects","123","FuseBox.jpg","0","0","2000"
"2","2","retrieval","old_objects","124","AlcoholBar.jpg","36","1","970"
"2","2","retrieval","old_objects","125","ClothCoaster.jpg","36","1","1107"
"2","2","retrieval","old_objects","126","DentalFloss.jpg","37","0","669"
"2","2","retrieval","new_objects","127","IroningBoard.jpg","37","1","755"
"2","2","retrieval","old_objects","128","Hat_Visor.jpg","36","1","706"
"2","2","retrieval","new_objects","129","Gloves_Winter.jpg","37","1","747"
"2","2","retrieval","old_objects","130","Mask_African.jpg","36","1","865"
"2","2","retrieval","new_objects","131","TreeStump.jpg","37","1","858"
"2","2","retrieval","old_objects","132","PuppetTheatre_WhiteGold.jpg","36","1","958"
"2","2","retrieval","old_objects","133","Triangle.jpg","36","1","1145"
"2","2","retrieval","old_objects","134","Cassette_Video.jpg","36","1","628"
"2","2","retrieval","new_objects","135","Can_Oblong.jpg","37","1","658"
"2","2","retrieval","old_objects","136","Pepper_Chili.jpg","36","1","744"
"2","2","retrieval","old_objects","137","Jar_Empty.jpg","36","1","650"
"2","2","retrieval","old_objects","138","Toy_PoliceCar.jpg","36","1","656"
"2","2","retrieval","old_objects","139","VGAport.jpg","36","1","702"
"2","2","retrieval","old_objects","140","Bird_Tern.jpg","36","1","880"
"2","2","retrieval","old_objects","141","Tape_Scotch.jpg","36","1","670"
"2","2","retrieval","new_objects","142","RAMchip.jpg","37","1","634"
"2","2","retrieval","new_objects","143","MemoPaperSpike.jpg","37","1","723"
"2","2","retrieval","old_objects","144","Ship_Battle.jpg","36","1","1120"
"2","2","retrieval","old_objects","145","Sled.jpg","36","1","628"
"2","2","retrieval","old_objects","146","Nyala.jpg","36","1","664"
"2","2","retrieval","old_objects","147","Bottle_Baby.jpg","36","1","1324"
"2","2","retrieval","old_objects","148","Origami_Bird.jpg","36","1","754"
"2","2","retrieval","new_objects","149","Skirt_Long.jpg","37","1","803"
"2","2","retrieval","old_objects","150","Eggplant.jpg","36","1","621"
"2","2","retrieval","old_objects","151","Hammock.jpg","36","1","879"
"2","2","retrieval","new_objects","152","Hay.jpg","37","1","930"
"2","2","retrieval","new_objects","153","Sculpture_MetalMan.jpg","37","1","708"
"2","2","retrieval","new_objects","154","Plum.jpg","37","1","625"
"2","2","retrieval","new_objects","155","Makeup_Bag.jpg","37","1","541"
"2","2","retrieval","new_objects","156","CameoPortrait.jpg","37","1","718"
"2","2","retrieval","new_objects","157","Cucumber.jpg","37","1","714"
"2","2","retrieval","new_objects","158","Stethoscope.jpg","37","1","620"
"2","2","retrieval","old_objects","159","Toy_BearBluePlushie.jpg","36","1","684"
"2","2","retrieval","new_objects","160","MatchBook.jpg","37","1","774"
"2","2","retrieval","old_objects","161","CodeDoorLock.jpg","36","1","857"
"2","2","retrieval","old_objects","162","Chair_Folding.jpg","36","1","908"
"2","2","retrieval","new_objects","163","Mousetrap.jpg","37","1","1219"
"2","2","retrieval","old_objects","164","Hoodie.jpg","36","1","838"
"2","2","retrieval","new_objects","165","Shark_GreatWhite.jpg","37","1","650"
"2","2","retrieval","new_objects","166","Pipette.jpg","37","1","597"
"2","2","retrieval","new_objects","167","Wallet_ClosedBrown.jpg","37","1","695"
"2","2","retrieval","new_objects","168","Drum_Set.jpg","37","1","847"
"2","2","retrieval","new_objects","169","Phone_Wireless.jpg","37","1","789"
"2","2","retrieval","old_objects","170","SmokingPipe.jpg","36","1","683"
"2","2","retrieval","old_objects","171","VacuumHose.jpg","36","1","793"
"2","2","retrieval","old_objects","172","Toy_Witch.jpg","36","1","884"
"2","2","retrieval","old_objects","173","BrainSagittal.jpg","0","0","2000"
"2","2","retrieval","new_objects","174","Box_Package.jpg","37","1","735"
"2","2","retrieval","new_objects","175","PropellerFan.jpg","37","1","847"
"2","2","retrieval","new_objects","176","Mallet.jpg","37","1","755"
"2","2","retrieval","old_objects","177","Brush_Paint.jpg","36","1","676"
"2","2","retrieval","new_objects","178","Wallet_ClosedBlack.jpg","37","1","680"
"2","2","retrieval","new_objects","179","MilkPitcher.jpg","37","1","924"
"2","2","retrieval","old_objects","180","Desk_School.jpg","36","1","676"
"2","2","retrieval","old_objects","181","PaintRollTray.jpg","36","1","831"
"2","2","retrieval","old_objects","182","Mattress.jpg","36","1","748"
"2","2","retrieval","new_objects","184","Honeydew_Green.jpg","37","1","782"
"2","2","retrieval","new_objects","185","Toy_FigurineSwing.jpg","37","1","645"
"2","2","retrieval","new_objects","186","SeatBuckle.jpg","37","1","859"
"2","2","retrieval","old_objects","187","Cloud.jpg","36","1","756"
"2","2","retrieval","new_objects","188","Car_Buggy.jpg","37","1","617"
"2","2","retrieval","old_objects","189","Belt.jpg","36","1","659"
"2","2","retrieval","old_objects","190","Book_Leather.jpg","36","1","621"
"2","2","retrieval","new_objects","191","AirPump.jpg","37","1","655"
"2","2","retrieval","new_objects","192","Bus_School.jpg","37","1","1183"
"2","2","retrieval","old_objects","193","LightBulb_White.jpg","36","1","947"
"2","2","retrieval","new_objects","194","DustPan.jpg","37","1","662"
"2","2","retrieval","old_objects","195","MeatRaw.jpg","36","1","776"
"2","2","retrieval","new_objects","196","Teardrop.jpg","37","1","626"
"2","2","retrieval","old_objects","197","Gloves_WhiteKnit.jpg","36","1","705"
"2","2","retrieval","new_objects","198","Freezer.jpg","37","1","640"
"2","2","retrieval","old_objects","199","Keyhole.jpg","36","1","758"
"2","2","retrieval","old_objects","200","Distaff.jpg","36","1","1014"
"2","2","retrieval","new_objects","201","Kebab_Meat.jpg","37","1","604"
"2","2","retrieval","old_objects","202","Boat_Colourful.jpg","36","1","962"
"2","2","retrieval","new_objects","203","PaperCutter.jpg","37","1","831"
"2","2","retrieval","old_objects","204","Bottle_CosmeticSpray.jpg","36","1","846"
"2","2","retrieval","old_objects","205","Gun_Revolver.jpg","36","1","597"
"2","2","retrieval","old_objects","206","Toy_Top.jpg","36","1","842"
"2","2","retrieval","old_objects","207","DJMixer.jpg","36","1","720"
"2","2","retrieval","old_objects","208","Exercise_Bike.jpg","36","1","1067"
"2","2","retrieval","old_objects","209","BicycleReflector.jpg","36","1","1041"
"2","2","retrieval","new_objects","210","Pipe_Pitch.jpg","37","1","805"
"2","2","retrieval","new_objects","211","Compact_Powder.jpg","37","1","691"
"2","2","retrieval","old_objects","212","Bag_Groceries.jpg","36","1","870"
"2","2","retrieval","new_objects","213","sign_traffic.jpg","37","1","769"
"2","2","retrieval","old_objects","214","Apple_Candy.jpg","36","1","931"
"2","2","retrieval","old_objects","215","Tuxedo.jpg","36","1","1056"
"2","2","retrieval","old_objects","216","Potato.jpg","36","1","589"
"2","2","retrieval","old_objects","217","Shoes_Sneakers.jpg","36","1","668"
"2","2","retrieval","new_objects","218","DayPlanner.jpg","37","1","796"
"2","2","retrieval","old_objects","219","Ladle.jpg","36","1","836"
"2","2","retrieval","old_objects","220","Magnet_Three.jpg","36","1","692"
"2","2","retrieval","old_objects","221","Calculator.jpg","36","1","1274"
"2","2","retrieval","old_objects","222","Figurine_Ballerina.jpg","36","1","1062"
"2","2","retrieval","new_objects","223","Hose_Garden.jpg","37","1","810"
"2","2","retrieval","old_objects","224","Corn_Kernels.jpg","36","1","727"
"2","2","retrieval","old_objects","225","KeyHook_Occupied.jpg","36","1","944"
"2","2","retrieval","new_objects","226","Shoe_Highheel.jpg","37","1","1048"
"2","2","retrieval","old_objects","227","Toy_MerryGoRound.jpg","36","1","707"
"2","2","retrieval","new_objects","228","Hockey_Puck.jpg","37","1","646"
"2","2","retrieval","old_objects","229","Spotlight.jpg","36","1","1120"
"2","2","retrieval","old_objects","230","Shampoo.jpg","36","1","1041"
"2","2","retrieval","new_objects","231","Decoration_ChristmasRed.jpg","37","1","680"
"2","2","retrieval","old_objects","232","Cannister_GasVintage.jpg","36","1","730"
"2","2","retrieval","new_objects","233","Lacrosse_Stick.jpg","37","1","732"
"2","2","retrieval","new_objects","234","Cheese_Platter.jpg","37","1","734"
"2","2","retrieval","new_objects","235","Scoop_IceCream.jpg","37","1","920"
"2","2","retrieval","new_objects","236","Hat_Sheriff.jpg","37","1","643"
"2","2","retrieval","old_objects","237","Barbecue_Gas.jpg","36","1","687"
"2","2","retrieval","old_objects","238","Comb_1.jpg","36","1","807"
"2","2","retrieval","old_objects","239","Toast.jpg","36","1","790"
"2","2","retrieval","old_objects","240","LawnMower.jpg","36","1","789"
"2","2","retrieval","new_objects","241","Decoration_WallOrnament.jpg","37","1","657"
"2","2","retrieval","new_objects","242","Soap.jpg","37","1","683"
"2","2","retrieval","old_objects","243","Spool_Thread.jpg","36","1","743"
"2","2","retrieval","new_objects","245","Toy_Boat.jpg","37","1","880"
"2","2","retrieval","new_objects","246","Hoverboard.jpg","37","1","872"
"2","2","retrieval","new_objects","247","JukeboxAntique.jpg","37","1","620"
"2","2","retrieval","old_objects","248","CoolingFan_Engine.jpg","36","1","1171"
"2","2","retrieval","old_objects","249","Brush_Light.jpg","36","1","606"
"2","2","retrieval","new_objects","250","Chair_Bamboo.jpg","37","1","821"
"2","2","retrieval","old_objects","251","Lantern_TeaBox.jpg","36","1","1047"
"2","2","retrieval","old_objects","252","Telescope.jpg","36","1","621"
"2","2","retrieval","old_objects","253","ShowerCap.jpg","36","1","990"
"2","2","retrieval","new_objects","254","ChessPiece_Knight.jpg","37","1","719"
"2","2","retrieval","new_objects","255","Chair_Student.jpg","37","1","912"
"2","2","retrieval","old_objects","256","Bagpipes.jpg","36","1","900"
"2","2","retrieval","old_objects","257","GasBurner.jpg","36","1","1381"
"2","2","retrieval","new_objects","258","Sign_Open.jpg","37","1","815"
"2","2","retrieval","old_objects","259","ChessPiece_Bishop.jpg","36","1","764"
"2","2","retrieval","old_objects","260","Bottle_Liquor.jpg","36","1","725"
"2","2","retrieval","new_objects","261","Sign_Washroom.jpg","37","1","691"
"2","2","retrieval","new_objects","262","Boardgame_ChineseCheckers.jpg","37","1","794"
"2","2","retrieval","new_objects","263","Hook_Fish.jpg","37","1","609"
"2","2","retrieval","old_objects","264","Bag_Garbage.jpg","36","1","684"
"2","2","retrieval","old_objects","265","Spoons_Musical.jpg","36","1","697"
"2","2","retrieval","old_objects","266","Cassette_Audio.jpg","36","1","1080"
"2","2","retrieval","new_objects","267","CuttingBoard.jpg","37","1","667"
"2","2","retrieval","old_objects","268","Tripod.jpg","36","1","649"
"2","2","retrieval","new_objects","269","Telephone_Dial.jpg","37","1","723"
"2","2","retrieval","old_objects","270","Mug_Beer.jpg","36","1","817"
"2","2","retrieval","old_objects","271","DogFood.jpg","36","1","705"
"2","2","retrieval","old_objects","272","WashingMachine.jpg","36","1","1008"
"2","2","retrieval","new_objects","273","Costume_Wizard.jpg","37","1","578"
"2","2","retrieval","new_objects","274","Shed.jpg","37","1","759"
"2","2","retrieval","new_objects","275","Bird_Hen.jpg","37","1","784"
"2","2","retrieval","old_objects","276","Ostrich.jpg","36","1","632"
"2","2","retrieval","old_objects","277","Ball_Golf.jpg","36","1","1035"
"2","2","retrieval","new_objects","278","FlashlightHeadBand.jpg","37","1","1590"
"2","2","retrieval","new_objects","279","Box_Vials.jpg","37","1","813"
"2","2","retrieval","new_objects","280","Knife_Camping.jpg","37","1","886"
"2","2","retrieval","old_objects","281","Canteen.jpg","36","1","722"
"2","2","retrieval","new_objects","282","Can_OilSpout.jpg","36","0","1301"
"2","2","retrieval","old_objects","283","Toy_DinosaurBrontosaurus.jpg","36","1","631"
"2","2","retrieval","old_objects","284","Tricycle.jpg","36","1","924"
"2","2","retrieval","new_objects","285","Blackboard.jpg","37","1","815"
"2","2","retrieval","new_objects","286","Oyster.jpg","37","1","972"
"2","2","retrieval","old_objects","287","Trowel.jpg","36","1","938"
"2","2","retrieval","old_objects","288","Armchair.jpg","36","1","647"
"2","2","retrieval","new_objects","289","Flower_Sun.jpg","36","0","964"
"2","2","retrieval","old_objects","290","PokerChips.jpg","36","1","687"
"2","2","retrieval","new_objects","291","Hat_Police.jpg","37","1","628"
"2","2","retrieval","old_objects","292","Cannoli.jpg","36","1","893"
"2","2","retrieval","new_objects","293","TinChristmas.jpg","37","1","655"
"2","2","retrieval","old_objects","294","Tombstone.jpg","36","1","682"
"2","2","retrieval","old_objects","295","Coral.jpg","36","1","877"
"2","2","retrieval","old_objects","296","Tap.jpg","36","1","1132"
"2","2","retrieval","old_objects","297","Socks_Baby.jpg","36","1","773"
"2","2","retrieval","old_objects","298","Clip_Binder.jpg","36","1","767"
"2","2","retrieval","old_objects","299","Spoon_WoodenLight.jpg","36","1","575"
"2","2","retrieval","new_objects","300","Stool_Wood.jpg","37","1","1007"
"2","2","retrieval","old_objects","301","Plate_Wooden.jpg","36","1","814"
"2","2","retrieval","old_objects","302","Pot_Crock.jpg","36","1","1286"
"2","2","retrieval","old_objects","303","Chair_High.jpg","36","1","1184"
"2","2","retrieval","new_objects","304","Radio_Vintage.jpg","37","1","833"
"2","2","retrieval","old_objects","306","IceCubes.jpg","36","1","900"
"2","2","retrieval","new_objects","307","Fan_Ceiling.jpg","37","1","645"
"2","2","retrieval","new_objects","308","MannequinBust.jpg","37","1","1142"
"2","2","retrieval","new_objects","309","Cable_JumpStart.jpg","37","1","768"
"2","2","retrieval","old_objects","310","Car_Sedan.jpg","36","1","721"
"2","2","retrieval","new_objects","311","Helmet_Knight.jpg","37","1","653"
"2","2","retrieval","new_objects","312","CoffeeLid.jpg","37","1","863"
"2","2","retrieval","old_objects","313","IceCreamCone.jpg","36","1","679"
"2","2","retrieval","new_objects","314","Bed_ChildBirch.jpg","37","1","1169"
"2","2","retrieval","old_objects","315","Pitcher.jpg","36","1","863"
"2","2","retrieval","new_objects","316","Balcony.jpg","37","1","786"
"2","2","retrieval","new_objects","317","Toy_RockingHorseBeige.jpg","37","1","792"
"2","2","retrieval","old_objects","318","Toy_Lion.jpg","36","1","638"
"2","2","retrieval","new_objects","319","Boardgame_Checkers.jpg","37","1","700"
"2","2","retrieval","new_objects","320","Stone_Spa.jpg","37","1","616"
"2","2","retrieval","new_objects","321","ChainRusty.jpg","37","1","765"
"2","2","retrieval","old_objects","322","Pasta_Macaroni.jpg","36","1","612"
"2","2","retrieval","old_objects","323","Shoe_Sneaker.jpg","36","1","876"
"2","2","retrieval","new_objects","324","HoseNozzle.jpg","37","1","1093"
"2","2","retrieval","old_objects","325","TartStrawberry.jpg","36","1","720"
"2","2","retrieval","old_objects","326","Bird_Falcon.jpg","36","1","1306"
"2","2","retrieval","new_objects","327","Stove_Propane.jpg","37","1","802"
"2","2","retrieval","new_objects","328","Centrifuge.jpg","37","1","812"
"2","2","retrieval","old_objects","329","Napkin_Single.jpg","37","0","848"
"2","2","retrieval","old_objects","330","Panda.jpg","36","1","690"
"2","2","retrieval","old_objects","331","Light_Siren.jpg","36","1","723"
"2","2","retrieval","new_objects","332","CasketOpen.jpg","37","1","721"
"2","2","retrieval","old_objects","333","Puzzle_Tree.jpg","36","1","741"
"2","2","retrieval","old_objects","334","Funnel.jpg","37","0","721"
"2","2","retrieval","new_objects","335","Fence_Wooden.jpg","37","1","680"
"2","2","retrieval","new_objects","336","Toy_Dog.jpg","37","1","705"
"2","2","retrieval","new_objects","337","DryRack_Dishes.jpg","37","1","597"
"2","2","retrieval","new_objects","338","WaterCooler.jpg","37","1","819"
"2","2","retrieval","new_objects","339","Honeydew_yellow.jpg","37","1","809"
"2","2","retrieval","new_objects","340","MeterElectric.jpg","37","1","1016"
"2","2","retrieval","old_objects","341","Branches_Campfire.jpg","36","1","714"
"2","2","retrieval","new_objects","342","Maraca.jpg","37","1","681"
"2","2","retrieval","old_objects","343","Mask_Ski.jpg","36","1","626"
"2","2","retrieval","old_objects","344","WindshieldWasherFluid.jpg","36","1","1383"
"2","2","retrieval","new_objects","345","OperaGlasses.jpg","37","1","733"
"2","2","retrieval","old_objects","346","Cookie.jpg","36","1","899"
"2","2","retrieval","new_objects","347","HairScrunchie.jpg","37","1","605"
"2","2","retrieval","new_objects","348","Basket_Plastic.jpg","37","1","744"
"2","2","retrieval","new_objects","349","Plate_Children.jpg","37","1","689"
"2","2","retrieval","new_objects","350","Telephone_Booth.jpg","36","0","1437"
"2","2","retrieval","new_objects","351","Man.jpg","37","1","721"
"2","2","retrieval","old_objects","352","HedgeShears.jpg","36","1","904"
"2","2","retrieval","new_objects","353","LeafBlower.jpg","37","1","783"
"2","2","retrieval","new_objects","354","Earth_Planet.jpg","37","1","778"
"2","2","retrieval","old_objects","355","Slippers.jpg","36","1","1037"
"2","2","demographics_block","gender","1","Slippers.jpg","Male","1","12720"
"2","2","demographics_block","age","1","Slippers.jpg","26","1","12720"
"2","2","demographics_block","education","1","Slippers.jpg","13","1","12720"
"2","2","demographics_block","left_right_handed","2","Slippers.jpg","Right","1","9183"
"2","2","demographics_block","raceoption1","2","Slippers.jpg","0","1","9183"
"2","2","demographics_block","raceoption2","2","Slippers.jpg","","1","9183"
"2","2","demographics_block","raceoption3","2","Slippers.jpg","","1","9183"
"2","2","demographics_block","raceoption4","2","Slippers.jpg","","1","9183"
"2","2","demographics_block","raceoption5","2","Slippers.jpg","","1","9183"
"2","2","demographics_block","raceoption6","2","Slippers.jpg","","1","9183"
"2","2","demographics_block","raceoption7","2","Slippers.jpg","","1","9183"
"2","2","demographics_block","raceoption8","2","Slippers.jpg","","1","9183"
"2","2","demographics_block","raceoption9","2","Slippers.jpg","","1","9183"
"2","2","demographics_block","raceother","2","Slippers.jpg","","1","9183"
"2","2","demographics_block","raceother","2","Slippers.jpg","","1","9183"
"2","2","demographics_block","english_language","2","Slippers.jpg","Yes","1","9183"
"2","2","demographics_block","english_languageother","2","Slippers.jpg","","1","9183"
"2","2","demographics_block","eyesight","3","Slippers.jpg","Yes","1","19270"
"2","2","demographics_block","colorblind","3","Slippers.jpg","No","1","19270"
"2","2","worker_id_block","worker_id_textbox","1","Slippers.jpg","A2JDYN6QM8M5UN","1","43214"
"4","4","encoding","encoding","1","GutterAndDrainPipe.jpg","36","0","1026"
"4","4","encoding","encoding","2","Car_Sedan.jpg","37","0","730"
"4","4","encoding","encoding","3","Hat_Visor.jpg","36","0","1065"
"4","4","encoding","encoding","4","Coral.jpg","37","0","1010"
"4","4","encoding","encoding","5","DJMixer.jpg","37","0","1090"
"4","4","encoding","encoding","6","Clippers_Glass.jpg","37","0","889"
"4","4","encoding","encoding","7","Distaff.jpg","36","0","890"
"4","4","encoding","encoding","8","Shoes_Sneakers.jpg","37","0","1082"
"4","4","encoding","encoding","9","Bugle.jpg","36","0","1133"
"4","4","encoding","encoding","10","Bottle_Liquor.jpg","36","0","754"
"4","4","encoding","encoding","11","Bagpipes.jpg","37","0","1501"
"4","4","encoding","encoding","12","DrainPlug.jpg","36","0","1249"
"4","4","encoding","encoding","13","KeyHook_Occupied.jpg","36","0","918"
"4","4","encoding","encoding","14","Ladle.jpg","36","0","881"
"4","4","encoding","encoding","15","HedgeShears.jpg","37","0","1277"
"4","4","encoding","encoding","16","SoundMixer_Blue.jpg","36","0","902"
"4","4","encoding","encoding","17","Mattress.jpg","37","0","1277"
"4","4","encoding","encoding","18","Slippers.jpg","36","0","1659"
"4","4","encoding","encoding","19","ChessPiece_Bishop.jpg","36","0","774"
"4","4","encoding","encoding","20","TubeRing.jpg","37","0","817"
"4","4","encoding","encoding","21","MixingGlass.jpg","36","0","657"
"4","4","encoding","encoding","22","Calculator.jpg","36","0","730"
"4","4","encoding","encoding","23","Toast.jpg","36","0","1041"
"4","4","encoding","encoding","24","VGAport.jpg","36","0","1131"
"4","4","encoding","encoding","25","Lantern_TeaBox.jpg","36","0","948"
"4","4","encoding","encoding","26","Mask_Ski.jpg","36","0","617"
"4","4","encoding","encoding","27","Bird_Pelican.jpg","37","0","831"
"4","4","encoding","encoding","28","Panda.jpg","37","0","738"
"4","4","encoding","encoding","29","PuppetTheatre_WhiteGold.jpg","36","0","1093"
"4","4","encoding","encoding","30","Dreidel.jpg","36","0","582"
"4","4","encoding","encoding","31","Tombstone.jpg","37","0","1222"
"4","4","encoding","encoding","32","WindshieldWasherFluid.jpg","36","0","1021"
"4","4","encoding","encoding","33","Mug_Beer.jpg","36","0","558"
"4","4","encoding","encoding","34","Case_Leather.jpg","36","0","746"
"4","4","encoding","encoding","35","Gloves_WhiteKnit.jpg","36","0","1889"
"4","4","encoding","encoding","36","Bottle_CosmeticSpray.jpg","36","0","754"
"4","4","encoding","encoding","37","Pepper_Chili.jpg","37","0","1420"
"4","4","encoding","encoding","38","Bag_Groceries.jpg","36","0","1141"
"4","4","encoding","encoding","39","Nyala.jpg","36","0","1470"
"4","4","encoding","encoding","40","Phone_Public.jpg","37","0","1458"
"4","4","encoding","encoding","41","TartStrawberry.jpg","37","0","1253"
"4","4","encoding","encoding","42","Igloo.jpg","37","0","746"
"4","4","encoding","encoding","43","Spotlight.jpg","36","0","1150"
"4","4","encoding","encoding","44","Toy_Top.jpg","36","0","1289"
"4","4","encoding","encoding","45","Table_Saw.jpg","37","0","1066"
"4","4","encoding","encoding","46","Pot_Crock.jpg","36","0","1281"
"4","4","encoding","encoding","47","Hammock.jpg","37","0","1305"
"4","4","encoding","encoding","48","Cannoli.jpg","36","0","1170"
"4","4","encoding","encoding","49","Eggplant.jpg","37","0","1570"
"4","4","encoding","encoding","50","Tube_Glue.jpg","36","0","981"
"4","4","encoding","encoding","51","Branches_Campfire.jpg","37","0","1150"
"4","4","encoding","encoding","52","Cannister_GasVintage.jpg","37","0","954"
"4","4","encoding","encoding","53","IceCreamCone.jpg","36","0","813"
"4","4","encoding","encoding","54","CartonEggs.jpg","37","0","954"
"4","4","encoding","encoding","55","Origami_Bird.jpg","37","0","1534"
"4","4","encoding","encoding","56","PokerChips.jpg","36","0","1155"
"4","4","encoding","encoding","57","Toy_Lion.jpg","37","0","1546"
"4","4","encoding","encoding","58","Trowel.jpg","37","0","1721"
"4","4","encoding","encoding","59","Toy_Witch.jpg","36","0","1855"
"4","4","encoding","encoding","60","Ostrich.jpg","37","0","778"
"4","4","encoding","encoding","62","Seashell_RoseMurex.jpg","37","0","1003"
"4","4","encoding","encoding","63","Potato.jpg","37","0","1036"
"4","4","encoding","encoding","64","Spoon_WoodenLight.jpg","36","0","939"
"4","4","encoding","encoding","65","Cherry.jpg","36","0","1171"
"4","4","encoding","encoding","66","Drum_Conga.jpg","36","0","840"
"4","4","encoding","encoding","67","Napkin_Single.jpg","36","0","1335"
"4","4","encoding","encoding","68","DogFood.jpg","36","0","1202"
"4","4","encoding","encoding","69","Triangle.jpg","36","0","1188"
"4","4","encoding","encoding","70","Belt.jpg","36","0","1391"
"4","4","encoding","encoding","71","Telescope.jpg","36","0","1170"
"4","4","encoding","encoding","72","Dress_Cocktail.jpg","36","0","1056"
"4","4","encoding","encoding","73","SmokingPipe.jpg","36","0","611"
"4","4","encoding","encoding","74","Snail.jpg","37","0","999"
"4","4","encoding","encoding","75","Cassette_Video.jpg","36","0","1084"
"4","4","encoding","encoding","76","Cymbals.jpg","36","0","1451"
"4","4","encoding","encoding","77","Dropper.jpg","36","0","1162"
"4","4","encoding","encoding","78","Keyhole.jpg","37","0","1432"
"4","4","encoding","encoding","79","IceCubes.jpg","36","0","1843"
"4","4","encoding","encoding","80","Toy_DinosaurBrontosaurus.jpg","36","0","772"
"4","4","encoding","encoding","81","Cloud.jpg","37","0","1008"
"4","4","encoding","encoding","82","Brush_Paint.jpg","37","0","1667"
"4","4","encoding","encoding","83","Napkin_Holder.jpg","36","0","1236"
"4","4","encoding","encoding","84","PenStand.jpg","36","0","952"
"4","4","encoding","encoding","85","Fireplace_Outdoor.jpg","37","0","1215"
"4","4","encoding","encoding","86","TimerKitchen.jpg","36","0","1185"
"4","4","encoding","encoding","87","Hawk.jpg","37","0","644"
"4","4","encoding","encoding","88","Playground.jpg","37","0","1187"
"4","4","encoding","encoding","89","DoorBolt.jpg","36","0","1424"
"4","4","encoding","encoding","90","Mop.jpg","36","0","1109"
"4","4","encoding","encoding","91","Cabasa.jpg","36","0","1175"
"4","4","encoding","encoding","92","Pitcher.jpg","36","0","796"
"4","4","encoding","encoding","93","Sushi.jpg","36","0","788"
"4","4","encoding","encoding","94","FuseBox.jpg","36","0","939"
"4","4","encoding","encoding","95","ToothbrushHolder.jpg","36","0","924"
"4","4","encoding","encoding","96","Corn_Kernels.jpg","37","0","1127"
"4","4","encoding","encoding","97","Socks_Baby.jpg","36","0","1147"
"4","4","encoding","encoding","98","DentalFloss.jpg","37","0","1576"
"4","4","encoding","encoding","99","ShowerCap.jpg","36","0","1196"
"4","4","encoding","encoding","100","Light_Siren.jpg","37","0","1519"
"4","4","encoding","encoding","101","CoolingFan_Engine.jpg","37","0","712"
"4","4","encoding","encoding","102","Sword.jpg","37","0","983"
"4","4","encoding","encoding","103","Tap.jpg","36","0","975"
"4","4","encoding","encoding","104","Shrub_Boxwood.jpg","37","0","1448"
"4","4","encoding","encoding","105","Funnel.jpg","36","0","951"
"4","4","encoding","encoding","106","Tape_Scotch.jpg","36","0","1279"
"4","4","encoding","encoding","107","Figurine_Ballerina.jpg","37","0","1356"
"4","4","encoding","encoding","108","ClothCoaster.jpg","36","0","1171"
"4","4","encoding","encoding","109","Boat_Ferry.jpg","37","0","723"
"4","4","encoding","encoding","110","Shoe_Sneaker.jpg","37","0","760"
"4","4","encoding","encoding","111","Tuxedo.jpg","36","0","1359"
"4","4","encoding","encoding","112","GasBurner.jpg","36","0","1260"
"4","4","encoding","encoding","113","Pot_FlowerClay.jpg","37","0","1500"
"4","4","encoding","encoding","114","Kangaroo.jpg","37","0","1055"
"4","4","encoding","encoding","115","Bowl_Glass.jpg","36","0","893"
"4","4","encoding","encoding","116","MeatRaw.jpg","36","0","1372"
"4","4","encoding","encoding","117","Comb_1.jpg","36","0","543"
"4","4","encoding","encoding","118","Barbecue_Gas.jpg","37","0","1544"
"4","4","encoding","encoding","119","LightBulb_White.jpg","36","0","1288"
"4","4","encoding","encoding","120","VacuumHose.jpg","36","0","1275"
"4","4","encoding","encoding","121","Shampoo.jpg","36","0","648"
"4","4","encoding","encoding","123","Box_WoodCrate.jpg","37","0","1464"
"4","4","encoding","encoding","124","Autocreeper.jpg","37","0","1255"
"4","4","encoding","encoding","125","Brush_Light.jpg","0","0","2000"
"4","4","encoding","encoding","126","AlcoholBar.jpg","36","0","1064"
"4","4","encoding","encoding","127","Book_Leather.jpg","36","0","927"
"4","4","encoding","encoding","128","Desk_School.jpg","36","0","1400"
"4","4","encoding","encoding","129","Canteen.jpg","36","0","1244"
"4","4","encoding","encoding","130","Chair_Folding.jpg","37","0","611"
"4","4","encoding","encoding","131","Brush_Cleaning.jpg","36","0","1280"
"4","4","encoding","encoding","132","Chair_High.jpg","36","0","860"
"4","4","encoding","encoding","133","Sled.jpg","37","0","1201"
"4","4","encoding","encoding","134","Spool_Thread.jpg","36","0","1360"
"4","4","encoding","encoding","135","Spoons_Musical.jpg","36","0","1699"
"4","4","encoding","encoding","136","Clip_Binder.jpg","36","0","675"
"4","4","encoding","encoding","137","Bottle_Baby.jpg","36","0","652"
"4","4","encoding","encoding","138","Pasta_Macaroni.jpg","36","0","1072"
"4","4","encoding","encoding","139","CodeDoorLock.jpg","36","0","1481"
"4","4","encoding","encoding","140","Jar_Empty.jpg","0","0","2000"
"4","4","encoding","encoding","141","SiloGrain.jpg","37","0","744"
"4","4","encoding","encoding","142","BrainSagittal.jpg","36","0","1313"
"4","4","encoding","encoding","143","Bottle_Champagne.jpg","36","0","712"
"4","4","encoding","encoding","144","Hoodie.jpg","37","0","1396"
"4","4","encoding","encoding","145","Bird_CanadianGoose.jpg","37","0","1333"
"4","4","encoding","encoding","146","Apple_Candy.jpg","36","0","1580"
"4","4","encoding","encoding","147","Puzzle_Tree.jpg","36","0","656"
"4","4","encoding","encoding","148","Ruler_Triangle.jpg","36","0","1737"
"4","4","encoding","encoding","149","Toy_PoliceCar.jpg","36","0","1004"
"4","4","encoding","encoding","150","Magnet_Three.jpg","36","0","1811"
"4","4","encoding","encoding","151","Boat_Colourful.jpg","37","0","581"
"4","4","encoding","encoding","152","Bird_Falcon.jpg","37","0","572"
"4","4","encoding","encoding","153","Spoon_Serving.jpg","0","0","2000"
"4","4","encoding","encoding","154","WateringCan_Antique.jpg","37","0","1053"
"4","4","encoding","encoding","155","Bag_Garbage.jpg","37","0","1828"
"4","4","encoding","encoding","156","Plate_Wooden.jpg","36","0","1039"
"4","4","encoding","encoding","157","BicycleReflector.jpg","37","0","1517"
"4","4","encoding","encoding","158","Exercise_Bike.jpg","36","0","1248"
"4","4","encoding","encoding","159","LawnMower.jpg","37","0","807"
"4","4","encoding","encoding","160","Cassette_Audio.jpg","36","0","885"
"4","4","encoding","encoding","161","Toy_MerryGoRound.jpg","36","0","1080"
"4","4","encoding","encoding","162","Cookie.jpg","36","0","1351"
"4","4","encoding","encoding","163","Tricycle.jpg","37","0","1725"
"4","4","encoding","encoding","164","PotatoMasher_Zigzag.jpg","36","0","1308"
"4","4","encoding","encoding","165","Bucket_WoodenDark.jpg","36","0","1421"
"4","4","encoding","encoding","166","Ball_Golf.jpg","37","0","1076"
"4","4","encoding","encoding","167","Ship_Battle.jpg","37","0","1312"
"4","4","encoding","encoding","168","Mask_African.jpg","36","0","1381"
"4","4","encoding","encoding","169","Bird_Tern.jpg","37","0","788"
"4","4","encoding","encoding","170","Tripod.jpg","37","0","1467"
"4","4","encoding","encoding","171","Armchair.jpg","36","0","861"
"4","4","encoding","encoding","172","WashingMachine.jpg","36","0","1188"
"4","4","encoding","encoding","173","Toy_BearBluePlushie.jpg","37","0","1272"
"4","4","encoding","encoding","174","Gun_Revolver.jpg","37","0","953"
"4","4","encoding","encoding","175","ToothPick.jpg","36","0","965"
"4","4","encoding","encoding","176","PaintRollTray.jpg","36","0","1076"
"4","4","encoding","encoding","177","Bread_Pita.jpg","36","0","1421"
"4","4","retrieval","new_objects","1","TinChristmas.jpg","37","1","891"
"4","4","retrieval","new_objects","2","Plum.jpg","37","1","651"
"4","4","retrieval","old_objects","3","DogFood.jpg","36","1","679"
"4","4","retrieval","old_objects","4","AlcoholBar.jpg","36","1","595"
"4","4","retrieval","old_objects","5","Apple_Candy.jpg","36","1","606"
"4","4","retrieval","new_objects","6","Makeup_Bag.jpg","37","1","631"
"4","4","retrieval","new_objects","7","Boardgame_Checkers.jpg","37","1","500"
"4","4","retrieval","old_objects","8","SmokingPipe.jpg","36","1","644"
"4","4","retrieval","new_objects","9","MeterElectric.jpg","37","1","1071"
"4","4","retrieval","old_objects","10","Shoes_Sneakers.jpg","36","1","755"
"4","4","retrieval","new_objects","11","Mousetrap.jpg","37","1","818"
"4","4","retrieval","new_objects","12","Cleaver_Meat.jpg","37","1","624"
"4","4","retrieval","old_objects","13","Table_Saw.jpg","36","1","690"
"4","4","retrieval","new_objects","14","CarLighter.jpg","37","1","777"
"4","4","retrieval","new_objects","15","Candy_Chocolate.jpg","37","1","626"
"4","4","retrieval","old_objects","16","Hammock.jpg","36","1","774"
"4","4","retrieval","new_objects","17","Costume_Wizard.jpg","37","1","737"
"4","4","retrieval","old_objects","18","Bag_Garbage.jpg","36","1","647"
"4","4","retrieval","old_objects","19","Panda.jpg","36","1","612"
"4","4","retrieval","new_objects","20","Gauge.jpg","37","1","749"
"4","4","retrieval","new_objects","21","Earring_Hoop.jpg","37","1","572"
"4","4","retrieval","old_objects","22","WateringCan_Antique.jpg","36","1","536"
"4","4","retrieval","old_objects","23","LawnMower.jpg","36","1","861"
"4","4","retrieval","old_objects","24","LightBulb_White.jpg","36","1","490"
"4","4","retrieval","old_objects","25","Bag_Groceries.jpg","36","1","465"
"4","4","retrieval","new_objects","26","JuicerCitrus.jpg","37","1","669"
"4","4","retrieval","new_objects","27","ChainRusty.jpg","37","1","579"
"4","4","retrieval","old_objects","28","SiloGrain.jpg","36","1","583"
"4","4","retrieval","old_objects","29","Gloves_WhiteKnit.jpg","36","1","687"
"4","4","retrieval","old_objects","30","Fireplace_Outdoor.jpg","36","1","578"
"4","4","retrieval","old_objects","31","CoolingFan_Engine.jpg","36","1","730"
"4","4","retrieval","old_objects","32","Comb_1.jpg","36","1","798"
"4","4","retrieval","new_objects","33","Wallet_ClosedBrown.jpg","37","1","785"
"4","4","retrieval","old_objects","34","DrainPlug.jpg","36","1","468"
"4","4","retrieval","old_objects","35","VacuumHose.jpg","36","1","588"
"4","4","retrieval","old_objects","36","Clippers_Glass.jpg","36","1","575"
"4","4","retrieval","new_objects","37","Box_Package.jpg","37","1","861"
"4","4","retrieval","old_objects","38","Jar_Empty.jpg","36","1","602"
"4","4","retrieval","old_objects","39","Toy_PoliceCar.jpg","36","1","549"
"4","4","retrieval","old_objects","40","Bread_Pita.jpg","36","1","577"
"4","4","retrieval","old_objects","41","Cymbals.jpg","36","1","553"
"4","4","retrieval","new_objects","42","Decoration_WallOrnament.jpg","37","1","576"
"4","4","retrieval","new_objects","43","HotWaterBottle.jpg","37","1","500"
"4","4","retrieval","new_objects","44","ContactLens.jpg","37","1","675"
"4","4","retrieval","old_objects","45","Brush_Paint.jpg","37","0","630"
"4","4","retrieval","new_objects","46","Crib_Basket.jpg","37","1","700"
"4","4","retrieval","new_objects","47","Toy_LambPlushie.jpg","37","1","523"
"4","4","retrieval","old_objects","48","Toy_MerryGoRound.jpg","36","1","595"
"4","4","retrieval","old_objects","49","Bottle_Baby.jpg","36","1","538"
"4","4","retrieval","old_objects","50","Snail.jpg","36","1","1263"
"4","4","retrieval","old_objects","51","WashingMachine.jpg","36","1","616"
"4","4","retrieval","new_objects","52","CoolingFan_Engine2.jpg","37","1","906"
"4","4","retrieval","new_objects","53","Plate_Children.jpg","37","1","723"
"4","4","retrieval","old_objects","54","Napkin_Holder.jpg","36","1","1273"
"4","4","retrieval","old_objects","55","Calculator.jpg","36","1","608"
"4","4","retrieval","old_objects","56","Slippers.jpg","36","1","763"
"4","4","retrieval","new_objects","57","Bird_Hen.jpg","37","1","849"
"4","4","retrieval","old_objects","58","Mask_African.jpg","36","1","750"
"4","4","retrieval","old_objects","59","Car_Sedan.jpg","36","1","1298"
"4","4","retrieval","new_objects","60","Bed_ChildBirch.jpg","37","1","605"
"4","4","retrieval","old_objects","62","Mattress.jpg","36","1","821"
"4","4","retrieval","old_objects","63","Cloud.jpg","37","0","581"
"4","4","retrieval","new_objects","64","Telephone_Dial.jpg","37","1","756"
"4","4","retrieval","new_objects","65","Gloves_Winter.jpg","37","1","1213"
"4","4","retrieval","new_objects","66","AirPump.jpg","37","1","579"
"4","4","retrieval","old_objects","67","Triangle.jpg","36","1","975"
"4","4","retrieval","old_objects","68","GasBurner.jpg","36","1","733"
"4","4","retrieval","old_objects","69","Cannoli.jpg","36","1","614"
"4","4","retrieval","new_objects","70","MannequinBust.jpg","37","1","689"
"4","4","retrieval","old_objects","71","Tricycle.jpg","36","1","856"
"4","4","retrieval","old_objects","72","Barbecue_Gas.jpg","36","1","536"
"4","4","retrieval","new_objects","73","Knife_Camping.jpg","37","1","980"
"4","4","retrieval","new_objects","74","HairScrunchie.jpg","37","1","603"
"4","4","retrieval","new_objects","75","PropellerFan.jpg","37","1","421"
"4","4","retrieval","old_objects","76","Spoon_WoodenLight.jpg","36","1","631"
"4","4","retrieval","new_objects","77","Bag_Camera.jpg","37","1","665"
"4","4","retrieval","new_objects","78","Toy_FigurineSwing.jpg","37","1","457"
"4","4","retrieval","new_objects","79","AirVent.jpg","37","1","532"
"4","4","retrieval","old_objects","80","Cannister_GasVintage.jpg","37","0","581"
"4","4","retrieval","new_objects","81","Spear.jpg","37","1","884"
"4","4","retrieval","new_objects","82","MechanicalSpring.jpg","37","1","576"
"4","4","retrieval","new_objects","83","Cable_JumpStart.jpg","37","1","599"
"4","4","retrieval","old_objects","84","Bagpipes.jpg","36","1","740"
"4","4","retrieval","new_objects","85","Pricegun.jpg","37","1","674"
"4","4","retrieval","old_objects","86","Ladle.jpg","36","1","562"
"4","4","retrieval","new_objects","87","Keg.jpg","37","1","742"
"4","4","retrieval","old_objects","88","Cassette_Video.jpg","36","1","591"
"4","4","retrieval","new_objects","89","Sculpture_MetalMan.jpg","37","1","625"
"4","4","retrieval","new_objects","90","JukeboxAntique.jpg","37","1","563"
"4","4","retrieval","new_objects","91","Centrifuge.jpg","37","1","731"
"4","4","retrieval","new_objects","92","BunsenBurner.jpg","37","1","996"
"4","4","retrieval","old_objects","93","Boat_Colourful.jpg","36","1","607"
"4","4","retrieval","new_objects","94","Earth_Planet.jpg","36","0","656"
"4","4","retrieval","new_objects","95","Mallet.jpg","37","1","1093"
"4","4","retrieval","old_objects","96","Armchair.jpg","36","1","660"
"4","4","retrieval","new_objects","97","Can_Oblong.jpg","37","1","1129"
"4","4","retrieval","new_objects","98","Phone_Wireless.jpg","37","1","794"
"4","4","retrieval","new_objects","99","Scoop_IceCream.jpg","37","1","596"
"4","4","retrieval","new_objects","100","MilkPitcher.jpg","37","1","630"
"4","4","retrieval","old_objects","101","PaintRollTray.jpg","36","1","583"
"4","4","retrieval","old_objects","102","Hoodie.jpg","36","1","747"
"4","4","retrieval","new_objects","103","Pipe_Pitch.jpg","37","1","579"
"4","4","retrieval","new_objects","104","Balcony.jpg","37","1","661"
"4","4","retrieval","new_objects","105","Embosser.jpg","37","1","597"
"4","4","retrieval","old_objects","106","PenStand.jpg","37","0","636"
"4","4","retrieval","old_objects","107","Box_WoodCrate.jpg","37","0","574"
"4","4","retrieval","old_objects","108","ShowerCap.jpg","36","1","629"
"4","4","retrieval","old_objects","109","ToothPick.jpg","36","1","514"
"4","4","retrieval","new_objects","110","Folder_Plastic.jpg","37","1","1023"
"4","4","retrieval","new_objects","111","Airplane_Fighter.jpg","37","1","809"
"4","4","retrieval","old_objects","112","Magnet_Three.jpg","36","1","612"
"4","4","retrieval","new_objects","113","Drum_Set.jpg","37","1","751"
"4","4","retrieval","old_objects","114","Clip_Binder.jpg","36","1","553"
"4","4","retrieval","new_objects","115","Decoration_ChristmasRed.jpg","37","1","526"
"4","4","retrieval","old_objects","116","Pitcher.jpg","36","1","628"
"4","4","retrieval","new_objects","117","Freezer.jpg","37","1","654"
"4","4","retrieval","old_objects","118","Spoon_Serving.jpg","36","1","690"
"4","4","retrieval","old_objects","119","Desk_School.jpg","37","0","610"
"4","4","retrieval","new_objects","120","Soap.jpg","37","1","699"
"4","4","retrieval","new_objects","121","Bread_Loaf.jpg","37","1","683"
"4","4","retrieval","new_objects","123","Bus_School.jpg","37","1","554"
"4","4","retrieval","new_objects","124","PirateFlag.jpg","37","1","469"
"4","4","retrieval","new_objects","125","Hockey_Equipment.jpg","37","1","585"
"4","4","retrieval","old_objects","126","Brush_Light.jpg","36","1","840"
"4","4","retrieval","old_objects","127","Corn_Kernels.jpg","36","1","586"
"4","4","retrieval","new_objects","128","Teardrop.jpg","37","1","493"
"4","4","retrieval","new_objects","129","Box_Vials.jpg","37","1","688"
"4","4","retrieval","new_objects","130","Toy_Boat.jpg","37","1","1166"
"4","4","retrieval","old_objects","131","DoorBolt.jpg","36","1","946"
"4","4","retrieval","old_objects","132","TartStrawberry.jpg","36","1","599"
"4","4","retrieval","new_objects","133","WaterCooler.jpg","37","1","846"
"4","4","retrieval","old_objects","134","Toy_Witch.jpg","36","1","637"
"4","4","retrieval","old_objects","135","FuseBox.jpg","36","1","478"
"4","4","retrieval","old_objects","136","Canteen.jpg","36","1","618"
"4","4","retrieval","old_objects","137","Hawk.jpg","36","1","1160"
"4","4","retrieval","new_objects","138","Fence_Wooden.jpg","37","1","677"
"4","4","retrieval","old_objects","139","Bugle.jpg","36","1","497"
"4","4","retrieval","new_objects","140","Pipette.jpg","37","1","934"
"4","4","retrieval","new_objects","141","Helmet_Knight.jpg","37","1","971"
"4","4","retrieval","new_objects","142","CasketOpen.jpg","37","1","563"
"4","4","retrieval","new_objects","143","Banana.jpg","37","1","1475"
"4","4","retrieval","new_objects","144","Can_OilSpout.jpg","37","1","657"
"4","4","retrieval","new_objects","145","Pouch_PotPourri.jpg","37","1","562"
"4","4","retrieval","old_objects","146","Hat_Visor.jpg","37","0","774"
"4","4","retrieval","new_objects","147","Cheese_Platter.jpg","37","1","986"
"4","4","retrieval","new_objects","148","Kebab_Meat.jpg","37","1","446"
"4","4","retrieval","new_objects","149","AirTank.jpg","37","1","844"
"4","4","retrieval","old_objects","150","Phone_Public.jpg","37","0","654"
"4","4","retrieval","old_objects","151","IceCreamCone.jpg","37","0","1134"
"4","4","retrieval","new_objects","152","DarthVader.jpg","37","1","884"
"4","4","retrieval","new_objects","153","Shed.jpg","37","1","487"
"4","4","retrieval","old_objects","154","Bird_Pelican.jpg","36","1","636"
"4","4","retrieval","old_objects","155","MixingGlass.jpg","36","1","517"
"4","4","retrieval","old_objects","156","Telescope.jpg","36","1","660"
"4","4","retrieval","old_objects","157","ClothCoaster.jpg","36","1","592"
"4","4","retrieval","new_objects","158","Hat_Police.jpg","37","1","620"
"4","4","retrieval","new_objects","159","Box_Cutlery.jpg","37","1","608"
"4","4","retrieval","old_objects","160","DJMixer.jpg","36","1","726"
"4","4","retrieval","old_objects","161","Spoons_Musical.jpg","36","1","600"
"4","4","retrieval","old_objects","162","Ruler_Triangle.jpg","36","1","539"
"4","4","retrieval","new_objects","163","LeafBlower.jpg","37","1","988"
"4","4","retrieval","new_objects","164","Accordion.jpg","37","1","1134"
"4","4","retrieval","old_objects","165","Bottle_Champagne.jpg","36","1","1275"
"4","4","retrieval","new_objects","166","Telephone_Booth.jpg","37","1","1187"
"4","4","retrieval","old_objects","167","Bottle_CosmeticSpray.jpg","36","1","578"
"4","4","retrieval","new_objects","168","DustPan.jpg","37","1","637"
"4","4","retrieval","new_objects","169","Abacus.jpg","37","1","685"
"4","4","retrieval","new_objects","170","Qtip_Single.jpg","37","1","744"
"4","4","retrieval","old_objects","171","Eggplant.jpg","36","1","673"
"4","4","retrieval","old_objects","172","Tombstone.jpg","36","1","861"
"4","4","retrieval","new_objects","173","Brush_Windshield.jpg","36","0","650"
"4","4","retrieval","new_objects","174","Suspenders.jpg","37","1","569"
"4","4","retrieval","new_objects","175","Toy_RockingHorseBeige.jpg","37","1","1041"
"4","4","retrieval","new_objects","176","Stove_Propane.jpg","37","1","978"
"4","4","retrieval","old_objects","177","Chair_Folding.jpg","36","1","930"
"4","4","retrieval","new_objects","178","Box_Present.jpg","37","1","573"
"4","4","retrieval","old_objects","179","Bottle_Liquor.jpg","36","1","542"
"4","4","retrieval","new_objects","180","Flower_Sun.jpg","36","0","986"
"4","4","retrieval","new_objects","181","CoffeeLid.jpg","37","1","1450"
"4","4","retrieval","old_objects","182","ToothbrushHolder.jpg","36","1","659"
"4","4","retrieval","old_objects","184","TimerKitchen.jpg","36","1","1078"
"4","4","retrieval","new_objects","185","Projector_Film.jpg","37","1","594"
"4","4","retrieval","old_objects","186","Igloo.jpg","36","1","642"
"4","4","retrieval","new_objects","187","TortillaChip.jpg","37","1","647"
"4","4","retrieval","new_objects","188","Lacrosse_Stick.jpg","37","1","516"
"4","4","retrieval","old_objects","189","Case_Leather.jpg","36","1","734"
"4","4","retrieval","old_objects","190","Ship_Battle.jpg","36","1","1193"
"4","4","retrieval","old_objects","191","Pepper_Chili.jpg","36","1","549"
"4","4","retrieval","new_objects","192","Wallet_ClosedBlack.jpg","37","1","641"
"4","4","retrieval","old_objects","193","Ball_Golf.jpg","37","0","650"
"4","4","retrieval","old_objects","194","DentalFloss.jpg","36","1","769"
"4","4","retrieval","new_objects","195","PencilSharpener.jpg","37","1","921"
"4","4","retrieval","old_objects","196","Shoe_Sneaker.jpg","36","1","731"
"4","4","retrieval","old_objects","197","Sled.jpg","36","1","1473"
"4","4","retrieval","new_objects","198","Brace_Neck.jpg","37","1","728"
"4","4","retrieval","new_objects","199","Radio_Vintage.jpg","37","1","1320"
"4","4","retrieval","new_objects","200","Bicycle_Adult.jpg","36","0","1498"
"4","4","retrieval","old_objects","201","Exercise_Bike.jpg","36","1","645"
"4","4","retrieval","new_objects","202","CameoPortrait.jpg","37","1","665"
"4","4","retrieval","old_objects","203","Dreidel.jpg","36","1","632"
"4","4","retrieval","old_objects","204","Funnel.jpg","36","1","1249"
"4","4","retrieval","old_objects","205","Bowl_Glass.jpg","37","0","1138"
"4","4","retrieval","old_objects","206","Toy_Lion.jpg","36","1","671"
"4","4","retrieval","old_objects","207","Coral.jpg","36","1","691"
"4","4","retrieval","new_objects","208","IroningBoard.jpg","37","1","608"
"4","4","retrieval","old_objects","209","ChessPiece_Bishop.jpg","36","1","539"
"4","4","retrieval","new_objects","210","Glasses_Sun.jpg","37","1","641"
"4","4","retrieval","new_objects","211","Honeydew_Green.jpg","37","1","717"
"4","4","retrieval","old_objects","212","BrainSagittal.jpg","36","1","683"
"4","4","retrieval","new_objects","213","Hat_Sheriff.jpg","37","1","1009"
"4","4","retrieval","old_objects","214","BicycleReflector.jpg","36","1","640"
"4","4","retrieval","new_objects","215","Acorn.jpg","37","1","1301"
"4","4","retrieval","old_objects","216","Puzzle_Tree.jpg","36","1","603"
"4","4","retrieval","new_objects","217","Shoe_Highheel.jpg","37","1","618"
"4","4","retrieval","new_objects","218","Toy_Zebra.jpg","37","1","632"
"4","4","retrieval","old_objects","219","Cassette_Audio.jpg","36","1","568"
"4","4","retrieval","old_objects","220","Brush_Cleaning.jpg","36","1","580"
"4","4","retrieval","old_objects","221","KeyHook_Occupied.jpg","36","1","620"
"4","4","retrieval","new_objects","222","Flower_Rose.jpg","37","1","585"
"4","4","retrieval","old_objects","223","Seashell_RoseMurex.jpg","37","0","767"
"4","4","retrieval","old_objects","224","Sword.jpg","36","1","563"
"4","4","retrieval","new_objects","225","Sign_Washroom.jpg","37","1","571"
"4","4","retrieval","old_objects","226","PotatoMasher_Zigzag.jpg","36","1","799"
"4","4","retrieval","new_objects","227","Toy_Dog.jpg","37","1","705"
"4","4","retrieval","new_objects","228","Chair_MedicalToilet.jpg","37","1","738"
"4","4","retrieval","new_objects","229","Bird_Budgie.jpg","37","1","1051"
"4","4","retrieval","old_objects","230","Chair_High.jpg","36","1","776"
"4","4","retrieval","new_objects","231","FlashlightHeadBand.jpg","37","1","1016"
"4","4","retrieval","old_objects","232","Tripod.jpg","36","1","530"
"4","4","retrieval","old_objects","233","Toy_Top.jpg","37","0","630"
"4","4","retrieval","new_objects","234","Oyster.jpg","37","1","831"
"4","4","retrieval","new_objects","235","Mask_Viking.jpg","37","1","621"
"4","4","retrieval","old_objects","236","CodeDoorLock.jpg","36","1","623"
"4","4","retrieval","new_objects","237","Basket_Plastic.jpg","37","1","649"
"4","4","retrieval","new_objects","238","Compact_Powder.jpg","37","1","535"
"4","4","retrieval","new_objects","239","Hay.jpg","37","1","493"
"4","4","retrieval","old_objects","240","Boat_Ferry.jpg","36","1","552"
"4","4","retrieval","new_objects","241","Boardgame_ChineseCheckers.jpg","37","1","613"
"4","4","retrieval","old_objects","242","Toy_DinosaurBrontosaurus.jpg","37","0","1068"
"4","4","retrieval","old_objects","243","Kangaroo.jpg","36","1","592"
"4","4","retrieval","old_objects","245","Nyala.jpg","37","0","1086"
"4","4","retrieval","new_objects","246","Flute_Tin.jpg","37","1","613"
"4","4","retrieval","old_objects","247","Lantern_TeaBox.jpg","36","1","982"
"4","4","retrieval","new_objects","248","DayPlanner.jpg","37","1","597"
"4","4","retrieval","old_objects","249","Bird_Falcon.jpg","36","1","712"
"4","4","retrieval","old_objects","250","VGAport.jpg","36","1","691"
"4","4","retrieval","new_objects","251","SeatBuckle.jpg","37","1","634"
"4","4","retrieval","new_objects","252","CuttingBoard.jpg","36","0","729"
"4","4","retrieval","new_objects","253","Honeydew_yellow.jpg","36","0","739"
"4","4","retrieval","old_objects","254","Light_Siren.jpg","36","1","604"
"4","4","retrieval","new_objects","255","Toy_Tank.jpg","37","1","695"
"4","4","retrieval","old_objects","256","TubeRing.jpg","36","1","602"
"4","4","retrieval","new_objects","257","Toilet.jpg","37","1","688"
"4","4","retrieval","new_objects","258","Car_Buggy.jpg","37","1","1170"
"4","4","retrieval","new_objects","259","Stool_Wood.jpg","37","1","802"
"4","4","retrieval","new_objects","260","Hockey_Puck.jpg","37","1","636"
"4","4","retrieval","old_objects","261","Cookie.jpg","36","1","594"
"4","4","retrieval","old_objects","262","PuppetTheatre_WhiteGold.jpg","36","1","631"
"4","4","retrieval","new_objects","263","Hoverboard.jpg","37","1","788"
"4","4","retrieval","old_objects","264","SoundMixer_Blue.jpg","37","0","684"
"4","4","retrieval","new_objects","265","Crowbar.jpg","37","1","847"
"4","4","retrieval","new_objects","266","Maraca.jpg","37","1","644"
"4","4","retrieval","new_objects","267","CDstack.jpg","37","1","651"
"4","4","retrieval","new_objects","268","Toy_BlocksMultiShape.jpg","37","1","884"
"4","4","retrieval","new_objects","269","TreeStump.jpg","37","1","599"
"4","4","retrieval","old_objects","270","Plate_Wooden.jpg","36","1","901"
"4","4","retrieval","new_objects","271","sign_traffic.jpg","36","0","1164"
"4","4","retrieval","old_objects","272","IceCubes.jpg","0","0","2000"
"4","4","retrieval","new_objects","273","Hook_Fish.jpg","37","1","549"
"4","4","retrieval","old_objects","274","HedgeShears.jpg","36","1","606"
"4","4","retrieval","old_objects","275","Book_Leather.jpg","36","1","648"
"4","4","retrieval","old_objects","276","Mask_Ski.jpg","36","1","553"
"4","4","retrieval","new_objects","277","Toolbox_RedOpen.jpg","37","1","600"
"4","4","retrieval","new_objects","278","Chair_Student.jpg","37","1","598"
"4","4","retrieval","new_objects","279","Blackboard.jpg","37","1","573"
"4","4","retrieval","new_objects","280","PaperCutter.jpg","37","1","493"
"4","4","retrieval","old_objects","281","Toast.jpg","36","1","508"
"4","4","retrieval","new_objects","282","Man.jpg","37","1","661"
"4","4","retrieval","old_objects","283","Distaff.jpg","36","1","870"
"4","4","retrieval","new_objects","284","Fan_Ceiling.jpg","37","1","962"
"4","4","retrieval","old_objects","285","Drum_Conga.jpg","36","1","586"
"4","4","retrieval","new_objects","286","Cork.jpg","37","1","701"
"4","4","retrieval","old_objects","287","Figurine_Ballerina.jpg","36","1","526"
"4","4","retrieval","old_objects","288","Cabasa.jpg","36","1","788"
"4","4","retrieval","old_objects","289","GutterAndDrainPipe.jpg","36","1","1208"
"4","4","retrieval","new_objects","290","OperaGlasses.jpg","37","1","622"
"4","4","retrieval","new_objects","291","Chair_Airplane.jpg","37","1","684"
"4","4","retrieval","old_objects","292","Dropper.jpg","36","1","846"
"4","4","retrieval","new_objects","293","Chime.jpg","37","1","582"
"4","4","retrieval","old_objects","294","Belt.jpg","36","1","830"
"4","4","retrieval","old_objects","295","Ostrich.jpg","36","1","868"
"4","4","retrieval","old_objects","296","Bird_Tern.jpg","36","1","1300"
"4","4","retrieval","new_objects","297","Garlic_Whole.jpg","37","1","656"
"4","4","retrieval","old_objects","298","Spotlight.jpg","36","1","677"
"4","4","retrieval","new_objects","299","Stethoscope.jpg","36","0","697"
"4","4","retrieval","new_objects","300","Skirt_Long.jpg","37","1","727"
"4","4","retrieval","old_objects","301","CartonEggs.jpg","36","1","533"
"4","4","retrieval","new_objects","302","Staircase_Curving.jpg","36","0","521"
"4","4","retrieval","old_objects","303","Pot_FlowerClay.jpg","36","1","467"
"4","4","retrieval","new_objects","304","HoseNozzle.jpg","37","1","739"
"4","4","retrieval","old_objects","306","WindshieldWasherFluid.jpg","36","1","714"
"4","4","retrieval","old_objects","307","Mop.jpg","36","1","1388"
"4","4","retrieval","new_objects","308","Catheter.jpg","37","1","839"
"4","4","retrieval","old_objects","309","Napkin_Single.jpg","36","1","995"
"4","4","retrieval","new_objects","310","Toy_Babydoll.jpg","37","1","1100"
"4","4","retrieval","old_objects","311","Gun_Revolver.jpg","36","1","1417"
"4","4","retrieval","new_objects","312","Stone_Spa.jpg","37","1","1597"
"4","4","retrieval","new_objects","313","HandRake.jpg","37","1","1059"
"4","4","retrieval","new_objects","314","Shark_GreatWhite.jpg","37","1","596"
"4","4","retrieval","new_objects","315","Mask_HockeyGoalie.jpg","37","1","467"
"4","4","retrieval","new_objects","316","Cucumber.jpg","37","1","651"
"4","4","retrieval","old_objects","317","PokerChips.jpg","37","0","475"
"4","4","retrieval","old_objects","318","Cherry.jpg","36","1","465"
"4","4","retrieval","old_objects","319","Trowel.jpg","36","1","541"
"4","4","retrieval","old_objects","320","Pasta_Macaroni.jpg","36","1","582"
"4","4","retrieval","new_objects","321","MemoPaperSpike.jpg","37","1","626"
"4","4","retrieval","old_objects","322","Tube_Glue.jpg","36","1","640"
"4","4","retrieval","old_objects","323","Playground.jpg","36","1","843"
"4","4","retrieval","old_objects","324","Toy_BearBluePlushie.jpg","36","1","809"
"4","4","retrieval","new_objects","325","Sign_Open.jpg","37","1","615"
"4","4","retrieval","old_objects","326","Origami_Bird.jpg","37","0","937"
"4","4","retrieval","old_objects","327","Spool_Thread.jpg","37","0","666"
"4","4","retrieval","old_objects","328","Keyhole.jpg","36","1","636"
"4","4","retrieval","new_objects","329","GoldNugget.jpg","37","1","698"
"4","4","retrieval","new_objects","330","Box_GiftTopView.jpg","37","1","1056"
"4","4","retrieval","old_objects","331","Shrub_Boxwood.jpg","36","1","589"
"4","4","retrieval","old_objects","332","Shampoo.jpg","36","1","568"
"4","4","retrieval","old_objects","333","Tuxedo.jpg","36","1","1542"
"4","4","retrieval","old_objects","334","Tape_Scotch.jpg","36","1","500"
"4","4","retrieval","new_objects","335","TurkeyDinner.jpg","37","1","618"
"4","4","retrieval","new_objects","336","Chair_Bamboo.jpg","37","1","636"
"4","4","retrieval","old_objects","337","Bucket_WoodenDark.jpg","36","1","702"
"4","4","retrieval","new_objects","338","MatchBook.jpg","37","1","631"
"4","4","retrieval","old_objects","339","Tap.jpg","36","1","696"
"4","4","retrieval","new_objects","340","SmokeDetector.jpg","37","1","930"
"4","4","retrieval","old_objects","341","Autocreeper.jpg","36","1","1016"
"4","4","retrieval","old_objects","342","Branches_Campfire.jpg","36","1","574"
"4","4","retrieval","new_objects","343","ChessPiece_Knight.jpg","37","1","1512"
"4","4","retrieval","new_objects","344","RAMchip.jpg","37","1","647"
"4","4","retrieval","new_objects","345","Hose_Garden.jpg","37","1","698"
"4","4","retrieval","new_objects","346","DryRack_Dishes.jpg","37","1","997"
"4","4","retrieval","old_objects","347","Pot_Crock.jpg","36","1","928"
"4","4","retrieval","new_objects","348","Umbrella_Retractable.jpg","37","1","552"
"4","4","retrieval","old_objects","349","Mug_Beer.jpg","36","1","528"
"4","4","retrieval","old_objects","350","Sushi.jpg","36","1","502"
"4","4","retrieval","old_objects","351","MeatRaw.jpg","36","1","585"
"4","4","retrieval","old_objects","352","Potato.jpg","36","1","646"
"4","4","retrieval","old_objects","353","Dress_Cocktail.jpg","36","1","524"
"4","4","retrieval","old_objects","354","Bird_CanadianGoose.jpg","36","1","477"
"4","4","retrieval","old_objects","355","Socks_Baby.jpg","36","1","490"
"4","4","demographics_block","gender","1","Socks_Baby.jpg","Female","1","15433"
"4","4","demographics_block","age","1","Socks_Baby.jpg","33","1","15433"
"4","4","demographics_block","education","1","Socks_Baby.jpg","16","1","15433"
"4","4","demographics_block","left_right_handed","2","Socks_Baby.jpg","Right","1","14248"
"4","4","demographics_block","raceoption1","2","Socks_Baby.jpg","","1","14248"
"4","4","demographics_block","raceoption2","2","Socks_Baby.jpg","","1","14248"
"4","4","demographics_block","raceoption3","2","Socks_Baby.jpg","","1","14248"
"4","4","demographics_block","raceoption4","2","Socks_Baby.jpg","","1","14248"
"4","4","demographics_block","raceoption5","2","Socks_Baby.jpg","","1","14248"
"4","4","demographics_block","raceoption6","2","Socks_Baby.jpg","","1","14248"
"4","4","demographics_block","raceoption7","2","Socks_Baby.jpg","6","1","14248"
"4","4","demographics_block","raceoption8","2","Socks_Baby.jpg","","1","14248"
"4","4","demographics_block","raceoption9","2","Socks_Baby.jpg","","1","14248"
"4","4","demographics_block","raceother","2","Socks_Baby.jpg","","1","14248"
"4","4","demographics_block","raceother","2","Socks_Baby.jpg","","1","14248"
"4","4","demographics_block","english_language","2","Socks_Baby.jpg","No. When did you first learn English? :","1","14248"
"4","4","demographics_block","english_languageother","2","Socks_Baby.jpg","5 years old","1","14248"
"4","4","demographics_block","eyesight","3","Socks_Baby.jpg","Yes","1","5962"
"4","4","demographics_block","colorblind","3","Socks_Baby.jpg","No","1","5962"
"4","4","worker_id_block","worker_id_textbox","1","Socks_Baby.jpg","A1Z0O5MC9DAE8C","1","10516"
"6","6","encoding","encoding","1","Belt.jpg","36","0","814"
"6","6","encoding","encoding","2","Phone_Public.jpg","37","0","597"
"6","6","encoding","encoding","3","VGAport.jpg","36","0","847"
"6","6","encoding","encoding","4","Spoons_Musical.jpg","36","0","1121"
"6","6","encoding","encoding","5","Sushi.jpg","36","0","1181"
"6","6","encoding","encoding","6","Exercise_Bike.jpg","36","0","1078"
"6","6","encoding","encoding","7","WashingMachine.jpg","36","0","797"
"6","6","encoding","encoding","8","DoorBolt.jpg","37","0","1371"
"6","6","encoding","encoding","9","Shrub_Boxwood.jpg","37","0","488"
"6","6","encoding","encoding","10","Funnel.jpg","36","0","1699"
"6","6","encoding","encoding","11","Origami_Bird.jpg","36","0","1261"
"6","6","encoding","encoding","12","DentalFloss.jpg","36","0","1190"
"6","6","encoding","encoding","13","Toy_BearBluePlushie.jpg","36","0","740"
"6","6","encoding","encoding","14","Barbecue_Gas.jpg","37","0","745"
"6","6","encoding","encoding","15","Socks_Baby.jpg","36","0","1378"
"6","6","encoding","encoding","16","Puzzle_Tree.jpg","36","0","967"
"6","6","encoding","encoding","17","DogFood.jpg","37","0","1010"
"6","6","encoding","encoding","18","Hoodie.jpg","36","0","739"
"6","6","encoding","encoding","19","Tombstone.jpg","37","0","653"
"6","6","encoding","encoding","20","Bottle_Champagne.jpg","36","0","708"
"6","6","encoding","encoding","21","Tripod.jpg","37","0","1175"
"6","6","encoding","encoding","22","Sled.jpg","37","0","658"
"6","6","encoding","encoding","23","PuppetTheatre_WhiteGold.jpg","36","0","1118"
"6","6","encoding","encoding","24","Branches_Campfire.jpg","37","0","556"
"6","6","encoding","encoding","25","BrainSagittal.jpg","36","0","1347"
"6","6","encoding","encoding","26","Clip_Binder.jpg","36","0","1074"
"6","6","encoding","encoding","27","MixingGlass.jpg","37","0","1560"
"6","6","encoding","encoding","28","Toast.jpg","36","0","800"
"6","6","encoding","encoding","29","Mask_African.jpg","36","0","1396"
"6","6","encoding","encoding","30","Cloud.jpg","37","0","881"
"6","6","encoding","encoding","31","Bird_Falcon.jpg","37","0","601"
"6","6","encoding","encoding","32","Tap.jpg","37","0","715"
"6","6","encoding","encoding","33","SiloGrain.jpg","37","0","1080"
"6","6","encoding","encoding","34","Bottle_Baby.jpg","36","0","905"
"6","6","encoding","encoding","35","VacuumHose.jpg","36","0","1230"
"6","6","encoding","encoding","36","Telescope.jpg","37","0","1546"
"6","6","encoding","encoding","37","ChessPiece_Bishop.jpg","36","0","1172"
"6","6","encoding","encoding","38","Mask_Ski.jpg","37","0","1449"
"6","6","encoding","encoding","39","Spoon_WoodenLight.jpg","36","0","1038"
"6","6","encoding","encoding","40","Armchair.jpg","36","0","884"
"6","6","encoding","encoding","41","Figurine_Ballerina.jpg","36","0","807"
"6","6","encoding","encoding","42","Case_Leather.jpg","36","0","1066"
"6","6","encoding","encoding","43","Apple_Candy.jpg","36","0","1024"
"6","6","encoding","encoding","44","Bird_Tern.jpg","37","0","624"
"6","6","encoding","encoding","45","Cassette_Video.jpg","36","0","737"
"6","6","encoding","encoding","46","Corn_Kernels.jpg","37","0","1501"
"6","6","encoding","encoding","47","Trowel.jpg","37","0","682"
"6","6","encoding","encoding","48","Bagpipes.jpg","37","0","1389"
"6","6","encoding","encoding","49","TartStrawberry.jpg","36","0","770"
"6","6","encoding","encoding","50","Brush_Paint.jpg","37","0","1025"
"6","6","encoding","encoding","51","Kangaroo.jpg","37","0","686"
"6","6","encoding","encoding","52","TubeRing.jpg","37","0","636"
"6","6","encoding","encoding","53","Seashell_RoseMurex.jpg","36","0","1540"
"6","6","encoding","encoding","54","Eggplant.jpg","36","0","667"
"6","6","encoding","encoding","55","Triangle.jpg","37","0","941"
"6","6","encoding","encoding","56","SmokingPipe.jpg","36","0","753"
"6","6","encoding","encoding","57","CartonEggs.jpg","36","0","678"
"6","6","encoding","encoding","58","Tube_Glue.jpg","37","0","1180"
"6","6","encoding","encoding","59","Comb_1.jpg","36","0","690"
"6","6","encoding","encoding","60","Keyhole.jpg","37","0","837"
"6","6","encoding","encoding","62","TimerKitchen.jpg","36","0","1526"
"6","6","encoding","encoding","63","Car_Sedan.jpg","37","0","721"
"6","6","encoding","encoding","64","Box_WoodCrate.jpg","37","0","1540"
"6","6","encoding","encoding","65","Toy_Lion.jpg","36","0","1759"
"6","6","encoding","encoding","66","Spoon_Serving.jpg","36","0","731"
"6","6","encoding","encoding","67","Ruler_Triangle.jpg","36","0","697"
"6","6","encoding","encoding","68","Bird_Pelican.jpg","37","0","703"
"6","6","encoding","encoding","69","Napkin_Single.jpg","36","0","874"
"6","6","encoding","encoding","70","Calculator.jpg","36","0","1235"
"6","6","encoding","encoding","71","Ostrich.jpg","37","0","1149"
"6","6","encoding","encoding","72","Bottle_CosmeticSpray.jpg","36","0","1023"
"6","6","encoding","encoding","73","Pot_FlowerClay.jpg","37","0","931"
"6","6","encoding","encoding","74","Bucket_WoodenDark.jpg","37","0","594"
"6","6","encoding","encoding","75","Toy_Witch.jpg","37","0","985"
"6","6","encoding","encoding","76","Snail.jpg","37","0","848"
"6","6","encoding","encoding","77","Lantern_TeaBox.jpg","37","0","561"
"6","6","encoding","encoding","78","DrainPlug.jpg","37","0","720"
"6","6","encoding","encoding","79","Shampoo.jpg","36","0","648"
"6","6","encoding","encoding","80","AlcoholBar.jpg","37","0","668"
"6","6","encoding","encoding","81","Napkin_Holder.jpg","36","0","969"
"6","6","encoding","encoding","82","WateringCan_Antique.jpg","37","0","1256"
"6","6","encoding","encoding","83","Bugle.jpg","37","0","1645"
"6","6","encoding","encoding","84","Book_Leather.jpg","36","0","1019"
"6","6","encoding","encoding","85","Ladle.jpg","36","0","650"
"6","6","encoding","encoding","86","Clippers_Glass.jpg","37","0","894"
"6","6","encoding","encoding","87","Fireplace_Outdoor.jpg","37","0","816"
"6","6","encoding","encoding","88","WindshieldWasherFluid.jpg","37","0","1594"
"6","6","encoding","encoding","89","Tape_Scotch.jpg","36","0","986"
"6","6","encoding","encoding","90","Coral.jpg","37","0","650"
"6","6","encoding","encoding","91","ToothPick.jpg","37","0","1244"
"6","6","encoding","encoding","92","Mattress.jpg","36","0","1006"
"6","6","encoding","encoding","93","ShowerCap.jpg","37","0","1233"
"6","6","encoding","encoding","94","Pot_Crock.jpg","36","0","893"
"6","6","encoding","encoding","95","Toy_DinosaurBrontosaurus.jpg","36","0","863"
"6","6","encoding","encoding","96","PaintRollTray.jpg","37","0","786"
"6","6","encoding","encoding","97","Gloves_WhiteKnit.jpg","36","0","703"
"6","6","encoding","encoding","98","Tricycle.jpg","37","0","848"
"6","6","encoding","encoding","99","Toy_Top.jpg","37","0","1402"
"6","6","encoding","encoding","100","Spool_Thread.jpg","36","0","1457"
"6","6","encoding","encoding","101","Plate_Wooden.jpg","36","0","1104"
"6","6","encoding","encoding","102","Toy_MerryGoRound.jpg","36","0","1052"
"6","6","encoding","encoding","103","Bag_Garbage.jpg","37","0","730"
"6","6","encoding","encoding","104","Brush_Cleaning.jpg","37","0","863"
"6","6","encoding","encoding","105","Cassette_Audio.jpg","36","0","821"
"6","6","encoding","encoding","106","Cherry.jpg","36","0","1005"
"6","6","encoding","encoding","107","CoolingFan_Engine.jpg","37","0","901"
"6","6","encoding","encoding","108","Distaff.jpg","37","0","632"
"6","6","encoding","encoding","109","MeatRaw.jpg","36","0","1438"
"6","6","encoding","encoding","110","Drum_Conga.jpg","36","0","1777"
"6","6","encoding","encoding","111","Chair_High.jpg","36","0","837"
"6","6","encoding","encoding","112","Pepper_Chili.jpg","36","0","1222"
"6","6","encoding","encoding","113","FuseBox.jpg","37","0","1333"
"6","6","encoding","encoding","114","Dropper.jpg","36","0","1211"
"6","6","encoding","encoding","115","Hammock.jpg","37","0","929"
"6","6","encoding","encoding","116","KeyHook_Occupied.jpg","36","0","1247"
"6","6","encoding","encoding","117","Playground.jpg","37","0","668"
"6","6","encoding","encoding","118","Table_Saw.jpg","37","0","734"
"6","6","encoding","encoding","119","Dreidel.jpg","36","0","861"
"6","6","encoding","encoding","120","Cannister_GasVintage.jpg","37","0","953"
"6","6","encoding","encoding","121","SoundMixer_Blue.jpg","36","0","823"
"6","6","encoding","encoding","123","Shoe_Sneaker.jpg","37","0","1153"
"6","6","encoding","encoding","124","Igloo.jpg","37","0","761"
"6","6","encoding","encoding","125","DJMixer.jpg","36","0","1076"
"6","6","encoding","encoding","126","BicycleReflector.jpg","37","0","1555"
"6","6","encoding","encoding","127","Cabasa.jpg","37","0","749"
"6","6","encoding","encoding","128","Cookie.jpg","36","0","877"
"6","6","encoding","encoding","129","Bread_Pita.jpg","36","0","986"
"6","6","encoding","encoding","130","Cymbals.jpg","37","0","1316"
"6","6","encoding","encoding","131","Ball_Golf.jpg","36","0","657"
"6","6","encoding","encoding","132","GasBurner.jpg","36","0","1982"
"6","6","encoding","encoding","133","LightBulb_White.jpg","36","0","1232"
"6","6","encoding","encoding","134","Panda.jpg","37","0","1168"
"6","6","encoding","encoding","135","Bird_CanadianGoose.jpg","37","0","673"
"6","6","encoding","encoding","136","ClothCoaster.jpg","36","0","933"
"6","6","encoding","encoding","137","ToothbrushHolder.jpg","37","0","1564"
"6","6","encoding","encoding","138","Hawk.jpg","37","0","507"
"6","6","encoding","encoding","139","Pitcher.jpg","36","0","884"
"6","6","encoding","encoding","140","Cannoli.jpg","36","0","1503"
"6","6","encoding","encoding","141","Toy_PoliceCar.jpg","37","0","1505"
"6","6","encoding","encoding","142","IceCubes.jpg","36","0","1070"
"6","6","encoding","encoding","143","Gun_Revolver.jpg","37","0","1620"
"6","6","encoding","encoding","144","CodeDoorLock.jpg","37","0","672"
"6","6","encoding","encoding","145","Bowl_Glass.jpg","36","0","605"
"6","6","encoding","encoding","146","LawnMower.jpg","37","0","1230"
"6","6","encoding","encoding","147","Magnet_Three.jpg","37","0","1484"
"6","6","encoding","encoding","148","Brush_Light.jpg","36","0","1146"
"6","6","encoding","encoding","149","Tuxedo.jpg","36","0","1343"
"6","6","encoding","encoding","150","PokerChips.jpg","36","0","1099"
"6","6","encoding","encoding","151","Mop.jpg","36","0","1524"
"6","6","encoding","encoding","152","Chair_Folding.jpg","37","0","1631"
"6","6","encoding","encoding","153","GutterAndDrainPipe.jpg","37","0","1235"
"6","6","encoding","encoding","154","IceCreamCone.jpg","36","0","954"
"6","6","encoding","encoding","155","Ship_Battle.jpg","37","0","865"
"6","6","encoding","encoding","156","PenStand.jpg","36","0","1235"
"6","6","encoding","encoding","157","Light_Siren.jpg","37","0","1108"
"6","6","encoding","encoding","158","Dress_Cocktail.jpg","36","0","1620"
"6","6","encoding","encoding","159","PotatoMasher_Zigzag.jpg","36","0","1408"
"6","6","encoding","encoding","160","Hat_Visor.jpg","37","0","1220"
"6","6","encoding","encoding","161","Pasta_Macaroni.jpg","36","0","974"
"6","6","encoding","encoding","162","Autocreeper.jpg","36","0","1808"
"6","6","encoding","encoding","163","Mug_Beer.jpg","36","0","707"
"6","6","encoding","encoding","164","Bottle_Liquor.jpg","36","0","1190"
"6","6","encoding","encoding","165","Sword.jpg","37","0","1434"
"6","6","encoding","encoding","166","Slippers.jpg","36","0","891"
"6","6","encoding","encoding","167","Potato.jpg","36","0","1349"
"6","6","encoding","encoding","168","Nyala.jpg","37","0","1102"
"6","6","encoding","encoding","169","Shoes_Sneakers.jpg","0","0","2000"
"6","6","encoding","encoding","170","Spotlight.jpg","36","0","909"
"6","6","encoding","encoding","171","Desk_School.jpg","37","0","1379"
"6","6","encoding","encoding","172","Canteen.jpg","37","0","1587"
"6","6","encoding","encoding","173","Jar_Empty.jpg","36","0","843"
"6","6","encoding","encoding","174","HedgeShears.jpg","37","0","1008"
"6","6","encoding","encoding","175","Boat_Colourful.jpg","37","0","941"
"6","6","encoding","encoding","176","Bag_Groceries.jpg","36","0","1053"
"6","6","encoding","encoding","177","Boat_Ferry.jpg","37","0","719"
"6","6","retrieval","old_objects","1","GutterAndDrainPipe.jpg","37","0","1319"
"6","6","retrieval","new_objects","2","Stool_Wood.jpg","36","0","1208"
"6","6","retrieval","new_objects","3","Plate_Children.jpg","36","0","1919"
"6","6","retrieval","old_objects","4","Bird_Tern.jpg","37","0","1095"
"6","6","retrieval","old_objects","5","Pitcher.jpg","37","0","1400"
"6","6","retrieval","new_objects","6","Hook_Fish.jpg","37","1","1071"
"6","6","retrieval","new_objects","7","Staircase_Curving.jpg","37","1","920"
"6","6","retrieval","new_objects","8","CoolingFan_Engine2.jpg","37","1","1200"
"6","6","retrieval","new_objects","9","PirateFlag.jpg","36","0","864"
"6","6","retrieval","new_objects","10","JukeboxAntique.jpg","36","0","840"
"6","6","retrieval","old_objects","11","Tape_Scotch.jpg","37","0","1256"
"6","6","retrieval","old_objects","12","Corn_Kernels.jpg","37","0","1143"
"6","6","retrieval","old_objects","13","Coral.jpg","37","0","808"
"6","6","retrieval","new_objects","14","Toilet.jpg","36","0","1183"
"6","6","retrieval","new_objects","15","DarthVader.jpg","36","0","976"
"6","6","retrieval","new_objects","16","BunsenBurner.jpg","36","0","944"
"6","6","retrieval","old_objects","17","Toy_Top.jpg","36","1","1384"
"6","6","retrieval","old_objects","18","Mask_African.jpg","36","1","952"
"6","6","retrieval","new_objects","19","Candy_Chocolate.jpg","36","0","1440"
"6","6","retrieval","old_objects","20","Book_Leather.jpg","36","1","759"
"6","6","retrieval","new_objects","21","Garlic_Whole.jpg","37","1","936"
"6","6","retrieval","old_objects","22","Hoodie.jpg","37","0","576"
"6","6","retrieval","new_objects","23","TinChristmas.jpg","36","0","1143"
"6","6","retrieval","old_objects","24","Chair_Folding.jpg","36","1","1136"
"6","6","retrieval","old_objects","25","DoorBolt.jpg","36","1","936"
"6","6","retrieval","new_objects","26","Earth_Planet.jpg","36","0","1399"
"6","6","retrieval","new_objects","27","Brush_Windshield.jpg","37","1","936"
"6","6","retrieval","old_objects","28","Clip_Binder.jpg","36","1","1296"
"6","6","retrieval","old_objects","29","Telescope.jpg","36","1","807"
"6","6","retrieval","new_objects","30","Honeydew_Green.jpg","37","1","640"
"6","6","retrieval","old_objects","31","Cabasa.jpg","36","1","839"
"6","6","retrieval","old_objects","32","Bird_Pelican.jpg","37","0","927"
"6","6","retrieval","new_objects","33","SeatBuckle.jpg","36","0","1480"
"6","6","retrieval","old_objects","34","Cherry.jpg","37","0","800"
"6","6","retrieval","new_objects","35","Pricegun.jpg","37","1","919"
"6","6","retrieval","new_objects","36","TortillaChip.jpg","37","1","1152"
"6","6","retrieval","new_objects","37","Blackboard.jpg","36","0","863"
"6","6","retrieval","new_objects","38","Toy_FigurineSwing.jpg","36","0","807"
"6","6","retrieval","new_objects","39","Shoe_Highheel.jpg","36","0","1104"
"6","6","retrieval","new_objects","40","Honeydew_yellow.jpg","37","1","567"
"6","6","retrieval","old_objects","41","LawnMower.jpg","37","0","736"
"6","6","retrieval","new_objects","42","IroningBoard.jpg","36","0","1007"
"6","6","retrieval","new_objects","43","Pipette.jpg","36","0","856"
"6","6","retrieval","old_objects","44","CodeDoorLock.jpg","37","0","887"
"6","6","retrieval","new_objects","45","Toy_Dog.jpg","36","0","645"
"6","6","retrieval","old_objects","46","Mop.jpg","36","1","1154"
"6","6","retrieval","old_objects","47","Brush_Cleaning.jpg","36","1","887"
"6","6","retrieval","new_objects","48","Chair_Airplane.jpg","36","0","936"
"6","6","retrieval","new_objects","49","Cable_JumpStart.jpg","36","0","1111"
"6","6","retrieval","old_objects","50","ToothbrushHolder.jpg","36","1","1192"
"6","6","retrieval","old_objects","51","TartStrawberry.jpg","37","0","584"
"6","6","retrieval","old_objects","52","Desk_School.jpg","36","1","648"
"6","6","retrieval","new_objects","53","Boardgame_ChineseCheckers.jpg","36","0","1255"
"6","6","retrieval","new_objects","54","Flower_Rose.jpg","37","1","1112"
"6","6","retrieval","new_objects","55","Toolbox_RedOpen.jpg","36","0","1127"
"6","6","retrieval","new_objects","56","Skirt_Long.jpg","36","0","1136"
"6","6","retrieval","old_objects","57","PuppetTheatre_WhiteGold.jpg","36","1","743"
"6","6","retrieval","new_objects","58","Bread_Loaf.jpg","36","0","928"
"6","6","retrieval","old_objects","59","AlcoholBar.jpg","36","1","832"
"6","6","retrieval","old_objects","60","Car_Sedan.jpg","37","0","848"
"6","6","retrieval","new_objects","62","Toy_Boat.jpg","36","0","830"
"6","6","retrieval","old_objects","63","Sled.jpg","36","1","1000"
"6","6","retrieval","new_objects","64","Teardrop.jpg","37","1","840"
"6","6","retrieval","old_objects","65","Pot_Crock.jpg","37","0","568"
"6","6","retrieval","old_objects","66","PaintRollTray.jpg","36","1","871"
"6","6","retrieval","old_objects","67","Shoe_Sneaker.jpg","37","0","1368"
"6","6","retrieval","new_objects","68","Box_Vials.jpg","37","1","744"
"6","6","retrieval","old_objects","69","Toy_Witch.jpg","36","1","863"
"6","6","retrieval","new_objects","70","CuttingBoard.jpg","36","0","688"
"6","6","retrieval","old_objects","71","Bowl_Glass.jpg","37","0","728"
"6","6","retrieval","new_objects","72","Bird_Budgie.jpg","37","1","784"
"6","6","retrieval","old_objects","73","Dropper.jpg","37","0","1192"
"6","6","retrieval","new_objects","74","Banana.jpg","36","0","943"
"6","6","retrieval","old_objects","75","Phone_Public.jpg","36","1","792"
"6","6","retrieval","old_objects","76","Dreidel.jpg","36","1","736"
"6","6","retrieval","new_objects","77","DayPlanner.jpg","37","1","663"
"6","6","retrieval","old_objects","78","Panda.jpg","37","0","624"
"6","6","retrieval","old_objects","79","Mattress.jpg","37","0","767"
"6","6","retrieval","old_objects","80","GasBurner.jpg","37","0","1592"
"6","6","retrieval","new_objects","81","Soap.jpg","37","1","784"
"6","6","retrieval","new_objects","82","Earring_Hoop.jpg","36","0","752"
"6","6","retrieval","new_objects","83","AirTank.jpg","37","1","1071"
"6","6","retrieval","old_objects","84","Toy_Lion.jpg","36","1","856"
"6","6","retrieval","new_objects","85","Bed_ChildBirch.jpg","36","0","671"
"6","6","retrieval","old_objects","86","Bird_CanadianGoose.jpg","37","0","688"
"6","6","retrieval","old_objects","87","Branches_Campfire.jpg","36","1","671"
"6","6","retrieval","old_objects","88","Light_Siren.jpg","37","0","752"
"6","6","retrieval","new_objects","89","Toy_BlocksMultiShape.jpg","37","1","1008"
"6","6","retrieval","old_objects","90","Case_Leather.jpg","37","0","799"
"6","6","retrieval","new_objects","91","Flute_Tin.jpg","36","0","640"
"6","6","retrieval","new_objects","92","Bicycle_Adult.jpg","36","0","1063"
"6","6","retrieval","new_objects","93","Projector_Film.jpg","36","0","632"
"6","6","retrieval","new_objects","94","HairScrunchie.jpg","36","0","984"
"6","6","retrieval","new_objects","95","Knife_Camping.jpg","36","0","800"
"6","6","retrieval","new_objects","96","Telephone_Dial.jpg","36","0","568"
"6","6","retrieval","old_objects","97","Ship_Battle.jpg","36","1","1383"
"6","6","retrieval","new_objects","98","Lacrosse_Stick.jpg","36","0","968"
"6","6","retrieval","old_objects","99","Plate_Wooden.jpg","36","1","639"
"6","6","retrieval","old_objects","100","Tripod.jpg","37","0","968"
"6","6","retrieval","old_objects","101","Cassette_Video.jpg","36","1","599"
"6","6","retrieval","new_objects","102","Bus_School.jpg","37","1","1103"
"6","6","retrieval","old_objects","103","Trowel.jpg","36","1","775"
"6","6","retrieval","new_objects","104","Cheese_Platter.jpg","37","1","1256"
"6","6","retrieval","old_objects","105","DrainPlug.jpg","36","1","1031"
"6","6","retrieval","new_objects","106","Airplane_Fighter.jpg","36","0","912"
"6","6","retrieval","new_objects","107","Embosser.jpg","36","0","1160"
"6","6","retrieval","old_objects","108","PenStand.jpg","37","0","815"
"6","6","retrieval","old_objects","109","Tuxedo.jpg","37","0","487"
"6","6","retrieval","old_objects","110","Distaff.jpg","36","1","520"
"6","6","retrieval","new_objects","111","Sign_Washroom.jpg","36","0","1455"
"6","6","retrieval","old_objects","112","SmokingPipe.jpg","36","1","736"
"6","6","retrieval","new_objects","113","Phone_Wireless.jpg","36","0","815"
"6","6","retrieval","new_objects","114","MatchBook.jpg","36","0","1000"
