"group","subject","blockcode","trialcode","trialnum","values.stimulus","response","correct","latency"
"3","3","encoding","encoding","1","Guacamole.jpg","36","0","1014"
"3","3","encoding","encoding","2","Barometer_Wood.jpg","37","0","597"
"3","3","encoding","encoding","3","Sandwich_Ham.jpg","36","0","1164"
"3","3","encoding","encoding","4","Hotdog_Weiner.jpg","36","0","514"
"3","3","encoding","encoding","5","Tray_Medical.jpg","36","0","825"
"3","3","encoding","encoding","6","Stool_Metal.jpg","36","0","1039"
"3","3","encoding","encoding","7","Leaf_Green.jpg","37","0","925"
"3","3","encoding","encoding","8","Quartz.jpg","37","0","803"
"3","3","encoding","encoding","9","Suit_Women.jpg","36","0","1178"
"3","3","encoding","encoding","10","PowderProtein.jpg","36","0","1008"
"3","3","encoding","encoding","11","Mitt_Oven.jpg","36","0","550"
"3","3","encoding","encoding","12","Comb.jpg","36","0","1068"
"3","3","encoding","encoding","13","ShoeLace_Flat.jpg","36","0","1355"
"3","3","encoding","encoding","14","Box_Jewellery.jpg","36","0","673"
"3","3","encoding","encoding","15","StringBean.jpg","36","0","1184"
"3","3","encoding","encoding","16","LifeJacket_Orangejpg.jpg","36","0","558"
"3","3","encoding","encoding","17","SledgeHammer.jpg","37","0","956"
"3","3","encoding","encoding","18","Stick_IceHockey.jpg","36","0","1922"
"3","3","encoding","encoding","19","Domino.jpg","36","0","776"
"3","3","encoding","encoding","20","Cantaloupe.jpg","37","0","910"
"3","3","encoding","encoding","21","Ladder.jpg","37","0","1149"
"3","3","encoding","encoding","22","CandleSnuffer.jpg","36","0","922"
"3","3","encoding","encoding","23","Tray_Metal.jpg","36","0","761"
"3","3","encoding","encoding","24","Jacket_Suit.jpg","36","0","1622"
"3","3","encoding","encoding","25","ChiliFlakes.jpg","36","0","1372"
"3","3","encoding","encoding","26","Steeple.jpg","37","0","666"
"3","3","encoding","encoding","27","Clothespin_Red.jpg","37","0","968"
"3","3","encoding","encoding","28","Instrument_African.jpg","36","0","1526"
"3","3","encoding","encoding","29","Strainer_Tea.jpg","36","0","1109"
"3","3","encoding","encoding","30","Colosseum.jpg","37","0","836"
"3","3","encoding","encoding","31","CigarCase.jpg","36","0","1283"
"3","3","encoding","encoding","32","Toy_Lizard.jpg","37","0","1137"
"3","3","encoding","encoding","33","Tube_Paint.jpg","36","0","1015"
"3","3","encoding","encoding","34","Stove_Portable.jpg","36","0","1733"
"3","3","encoding","encoding","35","Generator.jpg","36","0","690"
"3","3","encoding","encoding","36","Olives.jpg","37","0","818"
"3","3","encoding","encoding","37","Toblerone.jpg","36","0","865"
"3","3","encoding","encoding","38","BicycleHandleGrip.jpg","36","0","734"
"3","3","encoding","encoding","39","Camel_Dromedary.jpg","37","0","972"
"3","3","encoding","encoding","40","ComputerKeyboard.jpg","36","0","595"
"3","3","encoding","encoding","41","VacuumHandheld.jpg","36","0","865"
"3","3","encoding","encoding","42","Caterpillar.jpg","37","0","1366"
"3","3","encoding","encoding","43","CandyDispenser.jpg","36","0","748"
"3","3","encoding","encoding","44","Pacifier.jpg","36","0","898"
"3","3","encoding","encoding","45","Glass_Beer.jpg","36","0","993"
"3","3","encoding","encoding","46","TissueBox.jpg","36","0","862"
"3","3","encoding","encoding","47","Fridge.jpg","36","0","1156"
"3","3","encoding","encoding","48","ManholeCover.jpg","37","0","1618"
"3","3","encoding","encoding","49","Pretzel_Knot.jpg","36","0","1040"
"3","3","encoding","encoding","50","PowerDoorPushButton.jpg","36","0","1007"
"3","3","encoding","encoding","51","Scroll.jpg","37","0","1118"
"3","3","encoding","encoding","52","DrillBit.jpg","36","0","1260"
"3","3","encoding","encoding","53","Statue_Cat.jpg","36","0","906"
"3","3","encoding","encoding","54","Crutches.jpg","36","0","728"
"3","3","encoding","encoding","55","Megaphone.jpg","36","0","679"
"3","3","encoding","encoding","56","Toy_Rooster.jpg","36","0","1117"
"3","3","encoding","encoding","57","Mirror_Handheld.jpg","36","0","980"
"3","3","encoding","encoding","58","TelephoneSwitchboard.jpg","36","0","715"
"3","3","encoding","encoding","59","Table_Poker.jpg","36","0","689"
"3","3","encoding","encoding","60","Horn_French.jpg","36","0","952"
"3","3","encoding","encoding","62","PylonTraffic.jpg","36","0","1037"
"3","3","encoding","encoding","63","Cake_Cheese.jpg","36","0","794"
"3","3","encoding","encoding","64","Stool_Foot.jpg","36","0","809"
"3","3","encoding","encoding","65","Paddle_Ball.jpg","36","0","934"
"3","3","encoding","encoding","66","Puffin.jpg","37","0","1021"
"3","3","encoding","encoding","67","Egg_Chocolate.jpg","37","0","1027"
"3","3","encoding","encoding","68","Bucket_WoodenLight.jpg","37","0","1409"
"3","3","encoding","encoding","69","Bowl_Chopsticks.jpg","36","0","831"
"3","3","encoding","encoding","70","PulleyWooden.jpg","36","0","750"
"3","3","encoding","encoding","71","Stick_Honey.jpg","36","0","1236"
"3","3","encoding","encoding","72","Bottle_Oil.jpg","36","0","922"
"3","3","encoding","encoding","73","NetButterfly.jpg","37","0","1368"
"3","3","encoding","encoding","74","Artichoke.jpg","37","0","1870"
"3","3","encoding","encoding","75","PumpBreast.jpg","36","0","1700"
"3","3","encoding","encoding","76","MetalDetector.jpg","36","0","618"
"3","3","encoding","encoding","77","Dragonfly.jpg","37","0","1008"
"3","3","encoding","encoding","78","Chair_Dining.jpg","36","0","742"
"3","3","encoding","encoding","79","Toy_BlocksWoodenPlain.jpg","36","0","677"
"3","3","encoding","encoding","80","Toy_ElephantPlastic.jpg","36","0","698"
"3","3","encoding","encoding","81","PickupTruck.jpg","37","0","657"
"3","3","encoding","encoding","82","Mug_Travel.jpg","36","0","606"
"3","3","encoding","encoding","83","RibbonSpool.jpg","36","0","797"
"3","3","encoding","encoding","84","Buffalo.jpg","37","0","884"
"3","3","encoding","encoding","85","CashRegister_Antique.jpg","36","0","1110"
"3","3","encoding","encoding","86","Pouch_Red.jpg","36","0","816"
"3","3","encoding","encoding","87","Bag_PaperWithFlour.jpg","36","0","1055"
"3","3","encoding","encoding","88","Pillow_Plaid.jpg","36","0","693"
"3","3","encoding","encoding","89","Gum_Pack.jpg","36","0","907"
"3","3","encoding","encoding","90","Hat_Hard.jpg","37","0","1025"
"3","3","encoding","encoding","91","Vase_Decorative.jpg","36","0","807"
"3","3","encoding","encoding","92","Scooter.jpg","36","0","717"
"3","3","encoding","encoding","93","Bag_String.jpg","36","0","891"
"3","3","encoding","encoding","94","Bench_Black.jpg","37","0","1209"
"3","3","encoding","encoding","95","Cooler.jpg","36","0","648"
"3","3","encoding","encoding","96","ShinPads.jpg","37","0","1310"
"3","3","encoding","encoding","97","VinylRecord.jpg","36","0","756"
"3","3","encoding","encoding","98","Boots_KneeHigh.jpg","37","0","1306"
"3","3","encoding","encoding","99","Jug_Wicker.jpg","36","0","1168"
"3","3","encoding","encoding","100","RugRoled.jpg","36","0","1414"
"3","3","encoding","encoding","101","Stovetop.jpg","36","0","946"
"3","3","encoding","encoding","102","PeriodicTable.jpg","36","0","938"
"3","3","encoding","encoding","103","Tractor_Yellow.jpg","37","0","824"
"3","3","encoding","encoding","104","Sign_TrafficArrow.jpg","37","0","934"
"3","3","encoding","encoding","105","Bag_Toiletry.jpg","36","0","644"
"3","3","encoding","encoding","106","Tray_Muffin.jpg","36","0","1371"
"3","3","encoding","encoding","107","Clock_Grandfather.jpg","36","0","665"
"3","3","encoding","encoding","108","Fencing_HelmetSwords.jpg","36","0","1038"
"3","3","encoding","encoding","109","DoorBell.jpg","36","0","1125"
"3","3","encoding","encoding","110","Yarmulke.jpg","36","0","644"
"3","3","encoding","encoding","111","Toy_Chameleon.jpg","36","0","739"
"3","3","encoding","encoding","112","Squash_Butternut.jpg","37","0","1392"
"3","3","encoding","encoding","113","Helmet_Football.jpg","37","0","639"
"3","3","encoding","encoding","114","GPS.jpg","37","0","1262"
"3","3","encoding","encoding","115","NewspaperStack.jpg","37","0","16"
"3","3","encoding","encoding","116","Pot_Cooking.jpg","36","0","1162"
"3","3","encoding","encoding","117","ButterDish.jpg","36","0","704"
"3","3","encoding","encoding","118","Locomotive.jpg","37","0","837"
"3","3","encoding","encoding","119","Pliers_ViceGrip.jpg","36","0","1430"
"3","3","encoding","encoding","120","Chipmunk.jpg","37","0","645"
"3","3","encoding","encoding","121","Jacks.jpg","36","0","819"
"3","3","encoding","encoding","123","Rake_Long.jpg","37","0","1014"
"3","3","encoding","encoding","124","ChocolateBar_HalfUnwrapped.jpg","36","0","956"
"3","3","encoding","encoding","125","Mat_Door.jpg","36","0","667"
"3","3","encoding","encoding","126","Kangaroo_WithJoey.jpg","37","0","1144"
"3","3","encoding","encoding","127","Candy_Toffee.jpg","0","0","2000"
"3","3","encoding","encoding","128","Toy_RobotClassic.jpg","36","0","1645"
"3","3","encoding","encoding","129","Flower_Tulip.jpg","37","0","996"
"3","3","encoding","encoding","130","EspressoMachine.jpg","36","0","642"
"3","3","encoding","encoding","131","FloorTile.jpg","36","0","775"
"3","3","encoding","encoding","132","Rope_Manila.jpg","36","0","758"
"3","3","encoding","encoding","133","Stationary.jpg","36","0","612"
"3","3","encoding","encoding","134","Stamp.jpg","36","0","626"
"3","3","encoding","encoding","135","BumperCar.jpg","37","0","1136"
"3","3","encoding","encoding","136","PlayerFootball.jpg","37","0","678"
"3","3","encoding","encoding","137","Booth_Carnival.jpg","36","0","1510"
"3","3","encoding","encoding","138","CookieCutter_Bell.jpg","36","0","819"
"3","3","encoding","encoding","139","Sandcastle.jpg","37","0","912"
"3","3","encoding","encoding","140","Toy_TrailerAirport.jpg","37","0","790"
"3","3","encoding","encoding","141","Hippopotamus.jpg","37","0","709"
"3","3","encoding","encoding","142","Cake_Wedding.jpg","36","0","1516"
"3","3","encoding","encoding","143","Machine_Bread.jpg","36","0","883"
"3","3","encoding","encoding","144","Candy_Lozenge.jpg","36","0","1521"
"3","3","encoding","encoding","145","Ball_Baseball.jpg","36","0","566"
"3","3","encoding","encoding","146","Ball_Tennis.jpg","37","0","765"
"3","3","encoding","encoding","147","HerbsInBag.jpg","37","0","682"
"3","3","encoding","encoding","148","House_Rural.jpg","37","0","865"
"3","3","encoding","encoding","149","Box_WoodenClosed.jpg","36","0","703"
"3","3","encoding","encoding","150","Hourglass.jpg","36","0","1141"
"3","3","encoding","encoding","151","EyeChart.jpg","36","0","868"
"3","3","encoding","encoding","152","WateringCan_PlasticDarkGreen.jpg","36","0","562"
"3","3","encoding","encoding","153","Cane_Metal.jpg","36","0","992"
"3","3","encoding","encoding","154","Toy_Firetruck.jpg","37","0","839"
"3","3","encoding","encoding","155","Dresser.jpg","36","0","901"
"3","3","encoding","encoding","156","Hubcap.jpg","37","0","1027"
"3","3","encoding","encoding","157","Foam_Accoustic.jpg","36","0","1026"
"3","3","encoding","encoding","158","LintRemover.jpg","36","0","634"
"3","3","encoding","encoding","159","Toy_DonkeyPlastic.jpg","37","0","807"
"3","3","encoding","encoding","160","Fortress.jpg","36","0","1149"
"3","3","encoding","encoding","161","Barbecue_Charcoal.jpg","36","0","716"
"3","3","encoding","encoding","162","Blanket.jpg","36","0","746"
"3","3","encoding","encoding","163","Bottle_Specimen.jpg","36","0","840"
"3","3","encoding","encoding","164","Gloves_Bicycle.jpg","36","0","1398"
"3","3","encoding","encoding","165","Ferret.jpg","36","0","1620"
"3","3","encoding","encoding","166","Boat_Dinghy.jpg","37","0","1234"
"3","3","encoding","encoding","167","Lens_ColourFilter.jpg","36","0","624"
"3","3","encoding","encoding","168","Bowl_Sugar.jpg","36","0","631"
"3","3","encoding","encoding","169","Sink_Kitchen.jpg","36","0","1206"
"3","3","encoding","encoding","170","Bag_Satchel.jpg","36","0","604"
"3","3","encoding","encoding","171","Drink_Cocktail.jpg","36","0","812"
"3","3","encoding","encoding","172","Steamer.jpg","36","0","1546"
"3","3","encoding","encoding","173","Hammer.jpg","36","0","816"
"3","3","encoding","encoding","174","Can_Olives.jpg","36","0","1247"
"3","3","encoding","encoding","175","Candleholder_LampShaped.jpg","36","0","821"
"3","3","encoding","encoding","176","Nuts_Pecan.jpg","36","0","1139"
"3","3","encoding","encoding","177","Bottle_Blue.jpg","36","0","1153"
"3","3","retrieval","new_objects","1","Grill_Gas.jpg","37","1","1114"
"3","3","retrieval","new_objects","2","RiceRaw.jpg","36","0","244"
"3","3","retrieval","new_objects","3","SolderingIron.jpg","37","1","400"
"3","3","retrieval","old_objects","4","Mitt_Oven.jpg","37","0","95"
"3","3","retrieval","new_objects","5","FortuneCookie.jpg","36","0","1"
"3","3","retrieval","old_objects","6","Fencing_HelmetSwords.jpg","36","1","247"
"3","3","retrieval","new_objects","7","Stool_Camping.jpg","36","0","11"
"3","3","retrieval","old_objects","8","Domino.jpg","36","1","33"
"3","3","retrieval","old_objects","9","Hotdog_Weiner.jpg","36","1","22"
"3","3","retrieval","new_objects","10","PotatoMasher_Grate.jpg","37","1","147"
"3","3","retrieval","new_objects","11","SewingPin_Single.jpg","36","0","187"
"3","3","retrieval","new_objects","12","Glove_Rubber.jpg","37","1","130"
"3","3","retrieval","old_objects","13","Instrument_African.jpg","37","0","4"
"3","3","retrieval","new_objects","14","Scalpel.jpg","37","1","112"
"3","3","retrieval","old_objects","15","Candleholder_LampShaped.jpg","37","0","154"
"3","3","retrieval","old_objects","16","Candy_Toffee.jpg","37","0","187"
"3","3","retrieval","new_objects","17","Boxcutter.jpg","37","1","641"
"3","3","retrieval","new_objects","18","DonaldDuck_Toy.jpg","37","1","805"
"3","3","retrieval","new_objects","19","SelfieStick.jpg","37","1","514"
"3","3","retrieval","new_objects","20","Toaster_MetalSleek.jpg","37","1","660"
"3","3","retrieval","old_objects","21","Bucket_WoodenLight.jpg","36","1","583"
"3","3","retrieval","new_objects","22","Toolbox_BlackOpen.jpg","37","1","1542"
"3","3","retrieval","new_objects","23","EyeExamDevice.jpg","37","1","695"
"3","3","retrieval","new_objects","24","Eraser.jpg","37","1","504"
"3","3","retrieval","new_objects","25","Cannister_Gas.jpg","37","1","370"
"3","3","retrieval","new_objects","26","Brush_Shoe.jpg","37","1","385"
"3","3","retrieval","new_objects","27","Computer_ExpansionCard.jpg","37","1","295"
"3","3","retrieval","old_objects","28","Tray_Muffin.jpg","37","0","393"
"3","3","retrieval","new_objects","29","EyeDrops.jpg","37","1","759"
"3","3","retrieval","new_objects","30","BuildingChinese.jpg","37","1","648"
"3","3","retrieval","new_objects","31","Squash_Pumpkin.jpg","37","1","515"
"3","3","retrieval","old_objects","32","Stick_Honey.jpg","37","0","428"
"3","3","retrieval","new_objects","33","Pipe_Drain.jpg","37","1","97"
"3","3","retrieval","new_objects","34","Clip_Chip.jpg","37","1","75"
"3","3","retrieval","new_objects","35","Cracker_Saltine.jpg","37","1","85"
"3","3","retrieval","old_objects","36","VacuumHandheld.jpg","37","0","147"
"3","3","retrieval","old_objects","37","ManholeCover.jpg","36","1","48"
"3","3","retrieval","new_objects","38","Canister_Tea.jpg","37","1","188"
"3","3","retrieval","old_objects","39","Steamer.jpg","37","0","83"
"3","3","retrieval","new_objects","40","Lychee.jpg","37","1","77"
"3","3","retrieval","old_objects","41","Fridge.jpg","37","0","33"
"3","3","retrieval","old_objects","42","Buffalo.jpg","37","0","77"
"3","3","retrieval","new_objects","43","DryingMachine.jpg","37","1","105"
"3","3","retrieval","old_objects","44","Quartz.jpg","37","0","379"
"3","3","retrieval","old_objects","45","ShoeLace_Flat.jpg","37","0","402"
"3","3","retrieval","old_objects","46","Cooler.jpg","36","1","192"
"3","3","retrieval","new_objects","47","Ruler_Digital.jpg","37","1","255"
"3","3","retrieval","new_objects","48","Truck_Dump.jpg","36","0","11"
"3","3","retrieval","old_objects","49","Colosseum.jpg","36","1","33"
"3","3","retrieval","old_objects","50","Tractor_Yellow.jpg","36","1","5"
"3","3","retrieval","new_objects","51","Toy_RabbitPlushie.jpg","36","0","51"
"3","3","retrieval","old_objects","52","Pillow_Plaid.jpg","37","0","63"
"3","3","retrieval","old_objects","53","Horn_French.jpg","37","0","107"
"3","3","retrieval","old_objects","54","ShinPads.jpg","36","1","21"
"3","3","retrieval","new_objects","55","HairClipper.jpg","36","0","104"
"3","3","retrieval","new_objects","56","GasStation.jpg","37","1","76"
"3","3","retrieval","old_objects","57","Dragonfly.jpg","36","1","39"
"3","3","retrieval","new_objects","58","HairClip.jpg","36","0","92"
"3","3","retrieval","new_objects","59","CinderBlock.jpg","36","0","87"
"3","3","retrieval","old_objects","60","Megaphone.jpg","36","1","41"
"3","3","retrieval","old_objects","62","HerbsInBag.jpg","36","1","212"
"3","3","retrieval","old_objects","63","Boat_Dinghy.jpg","36","1","10"
"3","3","retrieval","new_objects","64","Pumpkin.jpg","36","0","280"
"3","3","retrieval","new_objects","65","Coconut.jpg","36","0","283"
"3","3","retrieval","old_objects","66","TissueBox.jpg","36","1","13"
"3","3","retrieval","old_objects","67","Clothespin_Red.jpg","37","0","43"
"3","3","retrieval","new_objects","68","FlipFlop_PairBlue.jpg","36","0","80"
"3","3","retrieval","old_objects","69","Toy_Lizard.jpg","37","0","27"
"3","3","retrieval","new_objects","70","Weights_Dumbells.jpg","36","0","112"
"3","3","retrieval","new_objects","71","LightBulb_Christmas.jpg","36","0","130"
"3","3","retrieval","new_objects","72","Garlic_Clove.jpg","37","1","275"
"3","3","retrieval","old_objects","73","Stove_Portable.jpg","37","0","231"
"3","3","retrieval","old_objects","74","Tube_Paint.jpg","37","0","172"
"3","3","retrieval","old_objects","75","Artichoke.jpg","37","0","131"
"3","3","retrieval","new_objects","76","Mirror_Makeup.jpg","36","0","45"
"3","3","retrieval","new_objects","77","Crossbow.jpg","36","0","73"
"3","3","retrieval","new_objects","78","Cranberry.jpg","37","1","84"
"3","3","retrieval","old_objects","79","ComputerKeyboard.jpg","36","1","79"
"3","3","retrieval","new_objects","80","Earrings_Dangling.jpg","36","0","131"
"3","3","retrieval","old_objects","81","Bowl_Chopsticks.jpg","36","1","60"
"3","3","retrieval","new_objects","82","CarJack.jpg","36","0","0"
"3","3","retrieval","old_objects","83","Rope_Manila.jpg","37","0","55"
"3","3","retrieval","old_objects","84","Statue_Cat.jpg","36","1","59"
"3","3","retrieval","old_objects","85","Kangaroo_WithJoey.jpg","37","0","62"
"3","3","retrieval","old_objects","86","Bag_String.jpg","37","0","155"
"3","3","retrieval","old_objects","87","Bottle_Oil.jpg","36","1","131"
"3","3","retrieval","old_objects","88","Box_Jewellery.jpg","36","1","84"
"3","3","retrieval","new_objects","89","Carabiner_Orange.jpg","37","1","351"
"3","3","retrieval","new_objects","90","SolderingWire.jpg","36","0","175"
"3","3","retrieval","new_objects","91","Tree_ChristmasMini.jpg","36","0","158"
"3","3","retrieval","new_objects","92","Nametag.jpg","36","0","102"
"3","3","retrieval","old_objects","93","Generator.jpg","37","0","144"
"3","3","retrieval","old_objects","94","Glass_Beer.jpg","36","1","160"
"3","3","retrieval","new_objects","95","Balalaika.jpg","36","0","57"
"3","3","retrieval","new_objects","96","DiaperChangingStation.jpg","36","0","100"
"3","3","retrieval","old_objects","97","Hat_Hard.jpg","36","1","159"
"3","3","retrieval","old_objects","98","Pot_Cooking.jpg","36","1","151"
"3","3","retrieval","new_objects","99","Chairs_Stacked.jpg","36","0","135"
"3","3","retrieval","old_objects","100","Yarmulke.jpg","36","1","55"
"3","3","retrieval","old_objects","101","CigarCase.jpg","36","1","51"
"3","3","retrieval","new_objects","102","PocketKnife.jpg","36","0","15"
"3","3","retrieval","old_objects","103","ChocolateBar_HalfUnwrapped.jpg","37","0","77"
"3","3","retrieval","old_objects","104","RugRoled.jpg","37","0","24"
"3","3","retrieval","old_objects","105","Hippopotamus.jpg","36","1","45"
"3","3","retrieval","old_objects","106","EyeChart.jpg","36","1","42"
"3","3","retrieval","old_objects","107","Pacifier.jpg","37","0","47"
"3","3","retrieval","old_objects","108","NewspaperStack.jpg","36","1","60"
"3","3","retrieval","new_objects","109","Toy_Shapesorter.jpg","36","0","111"
"3","3","retrieval","new_objects","110","Faucet.jpg","36","0","81"
"3","3","retrieval","new_objects","111","WaterColorPaintset.jpg","36","0","339"
"3","3","retrieval","new_objects","112","Helmet_Bicycle.jpg","37","1","4"
"3","3","retrieval","old_objects","113","Box_WoodenClosed.jpg","37","0","202"
"3","3","retrieval","new_objects","114","Statue_Jesus.jpg","37","1","0"
"3","3","retrieval","old_objects","115","Mat_Door.jpg","37","0","14"
"3","3","retrieval","old_objects","116","NetButterfly.jpg","37","0","51"
"3","3","retrieval","old_objects","117","ButterDish.jpg","37","0","63"
"3","3","retrieval","new_objects","118","Elephant.jpg","36","0","59"
"3","3","retrieval","old_objects","119","Rake_Long.jpg","36","1","79"
"3","3","retrieval","old_objects","120","WateringCan_PlasticDarkGreen.jpg","36","1","90"
"3","3","retrieval","new_objects","121","ComputerKeyboard_F1.jpg","36","0","21"
"3","3","retrieval","new_objects","123","Ghost.jpg","37","1","136"
"3","3","retrieval","old_objects","124","Bag_Toiletry.jpg","36","1","17"
"3","3","retrieval","new_objects","125","DoubleBass.jpg","36","0","15"
"3","3","retrieval","old_objects","126","PickupTruck.jpg","36","1","29"
"3","3","retrieval","old_objects","127","Bench_Black.jpg","37","0","10"
"3","3","retrieval","old_objects","128","Drink_Cocktail.jpg","36","1","33"
"3","3","retrieval","new_objects","129","Toy_BeadMaze.jpg","36","0","38"
"3","3","retrieval","new_objects","130","Defribrillator.jpg","36","0","58"
"3","3","retrieval","old_objects","131","Guacamole.jpg","36","1","7"
"3","3","retrieval","old_objects","132","Hubcap.jpg","36","1","301"
"3","3","retrieval","new_objects","133","Hotdog_WithBun.jpg","36","0","191"
"3","3","retrieval","new_objects","134","Bat_Cricket.jpg","37","1","117"
"3","3","retrieval","old_objects","135","Camel_Dromedary.jpg","36","1","119"
"3","3","retrieval","old_objects","136","Foam_Accoustic.jpg","37","0","80"
"3","3","retrieval","new_objects","137","JoustingSpear.jpg","36","0","155"
"3","3","retrieval","old_objects","138","Crutches.jpg","36","1","3"
"3","3","retrieval","old_objects","139","PlayerFootball.jpg","36","1","57"
"3","3","retrieval","old_objects","140","Can_Olives.jpg","36","1","53"
"3","3","retrieval","new_objects","141","FileFolder.jpg","36","0","81"
"3","3","retrieval","old_objects","142","Machine_Bread.jpg","36","1","13"
"3","3","retrieval","old_objects","143","Stationary.jpg","36","1","130"
"3","3","retrieval","old_objects","144","Caterpillar.jpg","37","0","331"
"3","3","retrieval","old_objects","145","Barbecue_Charcoal.jpg","36","1","77"
"3","3","retrieval","old_objects","146","Chair_Dining.jpg","37","0","176"
"3","3","retrieval","old_objects","147","EspressoMachine.jpg","37","0","104"
"3","3","retrieval","new_objects","148","PenHolder.jpg","36","0","90"
"3","3","retrieval","new_objects","149","Necklace_Black.jpg","37","1","716"
"3","3","retrieval","old_objects","150","Bottle_Blue.jpg","37","0","366"
"3","3","retrieval","new_objects","151","Pear_Yellow.jpg","37","1","686"
"3","3","retrieval","new_objects","152","Staircase_Straight.jpg","37","1","561"
"3","3","retrieval","new_objects","153","Radio_Modern.jpg","37","1","520"
"3","3","retrieval","new_objects","154","Razor.jpg","37","1","546"
"3","3","retrieval","new_objects","155","Shrimp.jpg","37","1","691"
"3","3","retrieval","new_objects","156","RibbonPin.jpg","37","1","519"
"3","3","retrieval","new_objects","157","TomatoSauce.jpg","37","1","703"
"3","3","retrieval","new_objects","158","Swan.jpg","37","1","529"
"3","3","retrieval","new_objects","159","Egg_Wooden.jpg","37","1","665"
"3","3","retrieval","new_objects","160","Nutcracker.jpg","37","1","480"
"3","3","retrieval","old_objects","161","Table_Poker.jpg","36","1","751"
"3","3","retrieval","new_objects","162","Box_FirstAidOpen.jpg","37","1","599"
"3","3","retrieval","old_objects","163","Jacks.jpg","36","1","1309"
"3","3","retrieval","new_objects","164","Barrel_Upright.jpg","37","1","735"
"3","3","retrieval","old_objects","165","Pliers_ViceGrip.jpg","37","0","376"
"3","3","retrieval","new_objects","166","Chainsaw.jpg","37","1","583"
"3","3","retrieval","new_objects","167","Lock_Key.jpg","37","1","649"
"3","3","retrieval","new_objects","168","Shark_Hammerhead.jpg","37","1","571"
"3","3","retrieval","new_objects","169","Bible.jpg","37","1","778"
"3","3","retrieval","old_objects","170","Toy_Rooster.jpg","37","0","449"
"3","3","retrieval","new_objects","171","GogglesSwim.jpg","37","1","422"
"3","3","retrieval","old_objects","172","Hourglass.jpg","37","0","755"
"3","3","retrieval","new_objects","173","Pen_Ballpoint.jpg","37","1","483"
"3","3","retrieval","new_objects","174","Cage_Bird.jpg","37","1","607"
"3","3","retrieval","old_objects","175","Bag_PaperWithFlour.jpg","36","1","812"
"3","3","retrieval","old_objects","176","PowerDoorPushButton.jpg","36","1","754"
"3","3","retrieval","old_objects","177","Toy_BlocksWoodenPlain.jpg","36","1","498"
"3","3","retrieval","old_objects","178","GPS.jpg","37","0","477"
"3","3","retrieval","old_objects","179","Cake_Cheese.jpg","36","1","664"
"3","3","retrieval","new_objects","180","Jack.jpg","37","1","795"
"3","3","retrieval","old_objects","181","Hammer.jpg","36","1","601"
"3","3","retrieval","new_objects","182","Tiara.jpg","37","1","631"
"3","3","retrieval","old_objects","184","ChiliFlakes.jpg","37","0","51"
"3","3","retrieval","old_objects","185","Stool_Metal.jpg","37","0","126"
"3","3","retrieval","new_objects","186","Bottle_Bleach.jpg","36","0","41"
"3","3","retrieval","old_objects","187","Ball_Baseball.jpg","37","0","69"
"3","3","retrieval","old_objects","188","Dresser.jpg","36","1","105"
"3","3","retrieval","old_objects","189","Blanket.jpg","36","1","83"
"3","3","retrieval","old_objects","190","Pretzel_Knot.jpg","36","1","126"
"3","3","retrieval","old_objects","191","Stick_IceHockey.jpg","37","0","103"
"3","3","retrieval","old_objects","192","Stool_Foot.jpg","36","1","17"
"3","3","retrieval","old_objects","193","Toy_ElephantPlastic.jpg","37","0","70"
"3","3","retrieval","new_objects","194","CarSeat.jpg","36","0","89"
"3","3","retrieval","old_objects","195","Pouch_Red.jpg","36","1","3"
"3","3","retrieval","old_objects","196","Scooter.jpg","37","0","66"
"3","3","retrieval","new_objects","197","LumiereBeautyBeast.jpg","37","1","6"
"3","3","retrieval","old_objects","198","Suit_Women.jpg","37","0","11"
"3","3","retrieval","new_objects","199","HairDryer.jpg","37","1","9"
"3","3","retrieval","new_objects","200","Bucket_Halloween.jpg","37","1","38"
"3","3","retrieval","old_objects","201","CandleSnuffer.jpg","37","0","123"
"3","3","retrieval","old_objects","202","Ferret.jpg","36","1","100"
"3","3","retrieval","old_objects","203","Mirror_Handheld.jpg","36","1","143"
"3","3","retrieval","old_objects","204","Sign_TrafficArrow.jpg","37","0","55"
"3","3","retrieval","old_objects","205","Bowl_Sugar.jpg","37","0","67"
"3","3","retrieval","old_objects","206","Cantaloupe.jpg","36","1","166"
"3","3","retrieval","old_objects","207","SledgeHammer.jpg","36","1","94"
"3","3","retrieval","new_objects","208","Steam_Cleaner.jpg","36","0","137"
"3","3","retrieval","new_objects","209","Shoes_WomenBoots.jpg","37","1","17"
"3","3","retrieval","new_objects","210","Walkman.jpg","37","1","54"
"3","3","retrieval","old_objects","211","PumpBreast.jpg","37","0","131"
"3","3","retrieval","new_objects","212","Starfish.jpg","37","1","20"
"3","3","retrieval","old_objects","213","Ball_Tennis.jpg","36","1","81"
"3","3","retrieval","new_objects","214","Pants_Jeans.jpg","37","1","93"
"3","3","retrieval","new_objects","215","OnionRings.jpg","37","1","119"
"3","3","retrieval","new_objects","216","Bread_Roll.jpg","37","1","152"
"3","3","retrieval","new_objects","217","IceCubes copy.jpg","37","1","56"
"3","3","retrieval","old_objects","218","Tray_Metal.jpg","37","0","28"
"3","3","retrieval","old_objects","219","Toy_RobotClassic.jpg","37","0","50"
"3","3","retrieval","old_objects","220","Stamp.jpg","37","0","47"
"3","3","retrieval","new_objects","221","Gun_Glue.jpg","36","0","51"
"3","3","retrieval","new_objects","222","PaperShredder.jpg","37","1","71"
"3","3","retrieval","new_objects","223","WagonPilgrim.jpg","37","1","75"
"3","3","retrieval","old_objects","224","PowderProtein.jpg","37","0","134"
"3","3","retrieval","old_objects","225","CandyDispenser.jpg","36","1","551"
"3","3","retrieval","old_objects","226","Toy_Chameleon.jpg","36","1","519"
"3","3","retrieval","new_objects","227","TeethMould.jpg","37","1","1024"
"3","3","retrieval","old_objects","228","Helmet_Football.jpg","36","1","798"
"3","3","retrieval","old_objects","229","RibbonSpool.jpg","36","1","565"
"3","3","retrieval","old_objects","230","Egg_Chocolate.jpg","36","1","653"
"3","3","retrieval","new_objects","231","Ashtray_Empty.jpg","37","1","593"
"3","3","retrieval","new_objects","232","Syringe_Needle.jpg","0","0","2000"
"3","3","retrieval","new_objects","233","Lynx.jpg","37","1","1238"
"3","3","retrieval","old_objects","234","Barometer_Wood.jpg","37","0","331"
"3","3","retrieval","old_objects","235","Bag_Satchel.jpg","36","1","876"
"3","3","retrieval","new_objects","236","Dreamcatcher.jpg","37","1","639"
"3","3","retrieval","new_objects","237","Bird_Duck.jpg","37","1","692"
"3","3","retrieval","new_objects","238","MonaLisa.jpg","37","1","471"
"3","3","retrieval","old_objects","239","Clock_Grandfather.jpg","37","0","730"
"3","3","retrieval","old_objects","240","Stovetop.jpg","36","1","626"
"3","3","retrieval","new_objects","241","Bird_Parrot.jpg","36","0","904"
"3","3","retrieval","new_objects","242","WaterHeater.jpg","37","1","597"
"3","3","retrieval","old_objects","243","Toy_TrailerAirport.jpg","36","1","680"
"3","3","retrieval","new_objects","245","Bread_Carrot.jpg","36","0","8"
"3","3","retrieval","old_objects","246","Toy_Firetruck.jpg","36","1","7"
"3","3","retrieval","old_objects","247","DoorBell.jpg","37","0","60"
"3","3","retrieval","old_objects","248","Ladder.jpg","36","1","33"
"3","3","retrieval","old_objects","249","Booth_Carnival.jpg","37","0","133"
"3","3","retrieval","new_objects","250","Decoration_ChristmasWhite.jpg","36","0","39"
"3","3","retrieval","new_objects","251","RollerBlade.jpg","36","0","91"
"3","3","retrieval","new_objects","252","Rock_Mimetite.jpg","37","1","110"
"3","3","retrieval","new_objects","253","SnowGlobe.jpg","37","1","40"
"3","3","retrieval","old_objects","254","Bottle_Specimen.jpg","36","1","29"
"3","3","retrieval","old_objects","255","Jug_Wicker.jpg","37","0","10"
"3","3","retrieval","new_objects","256","Chair_PlasticGreen.jpg","36","0","8"
"3","3","retrieval","new_objects","257","Flamingo_Cartoon.jpg","36","0","102"
"3","3","retrieval","new_objects","258","ChalkLineTool.jpg","36","0","88"
"3","3","retrieval","old_objects","259","LifeJacket_Orangejpg.jpg","37","0","35"
"3","3","retrieval","old_objects","260","Olives.jpg","37","0","135"
"3","3","retrieval","new_objects","261","Bandage_Wrap.jpg","37","1","0"
"3","3","retrieval","old_objects","262","Lens_ColourFilter.jpg","36","1","86"
"3","3","retrieval","new_objects","263","Camera_Security.jpg","37","1","88"
"3","3","retrieval","new_objects","264","Knee.jpg","36","0","11"
"3","3","retrieval","old_objects","265","Puffin.jpg","36","1","81"
"3","3","retrieval","new_objects","266","Exercise_Stretch.jpg","36","0","100"
"3","3","retrieval","new_objects","267","Fuse.jpg","36","0","158"
"3","3","retrieval","old_objects","268","House_Rural.jpg","36","1","135"
"3","3","retrieval","old_objects","269","Vase_Decorative.jpg","37","0","103"
"3","3","retrieval","new_objects","270","DryRack_Clothes.jpg","36","0","81"
"3","3","retrieval","old_objects","271","Jacket_Suit.jpg","37","0","21"
"3","3","retrieval","new_objects","272","CoffeeGrinder.jpg","37","1","90"
"3","3","retrieval","new_objects","273","Walker_Blue.jpg","37","1","45"
"3","3","retrieval","new_objects","274","Speaker_Computer.jpg","37","1","41"
"3","3","retrieval","old_objects","275","Gum_Pack.jpg","37","0","86"
"3","3","retrieval","old_objects","276","TelephoneSwitchboard.jpg","37","0","57"
"3","3","retrieval","old_objects","277","BicycleHandleGrip.jpg","37","0","4"
"3","3","retrieval","old_objects","278","VinylRecord.jpg","36","1","59"
"3","3","retrieval","old_objects","279","LintRemover.jpg","36","1","39"
"3","3","retrieval","old_objects","280","PylonTraffic.jpg","37","0","603"
"3","3","retrieval","new_objects","281","Pajamas.jpg","37","1","577"
"3","3","retrieval","new_objects","282","Knife_Butter.jpg","37","1","576"
"3","3","retrieval","new_objects","283","Tweezers.jpg","37","1","399"
"3","3","retrieval","new_objects","284","CapGraduation.jpg","37","1","493"
"3","3","retrieval","new_objects","285","Sign_Parking.jpg","37","1","599"
"3","3","retrieval","old_objects","286","Squash_Butternut.jpg","37","0","373"
"3","3","retrieval","old_objects","287","Tray_Medical.jpg","37","0","229"
"3","3","retrieval","new_objects","288","Tape_Washi.jpg","37","1","417"
"3","3","retrieval","new_objects","289","Dolly.jpg","37","1","510"
"3","3","retrieval","new_objects","290","Icepick.jpg","37","1","504"
"3","3","retrieval","new_objects","291","TireRims.jpg","36","0","578"
"3","3","retrieval","new_objects","292","Star.jpg","37","1","616"
"3","3","retrieval","old_objects","293","Scroll.jpg","37","0","166"
"3","3","retrieval","new_objects","294","Glass_Cup.jpg","37","1","325"
"3","3","retrieval","new_objects","295","Bottle_Beer.jpg","36","0","348"
"3","3","retrieval","old_objects","296","Toy_DonkeyPlastic.jpg","36","1","590"
"3","3","retrieval","old_objects","297","Cane_Metal.jpg","36","1","645"
"3","3","retrieval","new_objects","298","Bag_Grains.jpg","37","1","730"
"3","3","retrieval","old_objects","299","FloorTile.jpg","36","1","959"
"3","3","retrieval","old_objects","300","Locomotive.jpg","36","1","881"
"3","3","retrieval","old_objects","301","Sandwich_Ham.jpg","36","1","1339"
"3","3","retrieval","old_objects","302","Sink_Kitchen.jpg","36","1","44"
"3","3","retrieval","new_objects","303","Flashlight.jpg","36","0","56"
"3","3","retrieval","new_objects","304","Candle_Blue.jpg","37","1","83"
"3","3","retrieval","new_objects","306","Nuts_PeanutsPeeled.jpg","36","0","130"
"3","3","retrieval","old_objects","307","BumperCar.jpg","37","0","107"
"3","3","retrieval","old_objects","308","Sandcastle.jpg","37","0","68"
"3","3","retrieval","old_objects","309","Flower_Tulip.jpg","37","0","33"
"3","3","retrieval","new_objects","310","PaperTowel_Brown.jpg","37","1","53"
"3","3","retrieval","old_objects","311","Strainer_Tea.jpg","36","1","112"
"3","3","retrieval","old_objects","312","Comb.jpg","36","1","147"
"3","3","retrieval","old_objects","313","Leaf_Green.jpg","36","1","58"
"3","3","retrieval","new_objects","314","GiftBow.jpg","36","0","55"
"3","3","retrieval","old_objects","315","Nuts_Pecan.jpg","36","1","27"
"3","3","retrieval","old_objects","316","Candy_Lozenge.jpg","36","1","72"
"3","3","retrieval","new_objects","317","SaxophoneSoprano.jpg","37","1","35"
"3","3","retrieval","old_objects","318","StringBean.jpg","37","0","0"
"3","3","retrieval","old_objects","319","PeriodicTable.jpg","37","0","71"
"3","3","retrieval","old_objects","320","Cake_Wedding.jpg","36","1","2"
"3","3","retrieval","old_objects","321","CashRegister_Antique.jpg","37","0","128"
"3","3","retrieval","old_objects","322","Toblerone.jpg","37","0","81"
"3","3","retrieval","old_objects","323","CookieCutter_Bell.jpg","37","0","70"
"3","3","retrieval","new_objects","324","Castle_Sand.jpg","37","1","88"
"3","3","retrieval","new_objects","325","Crab.jpg","37","1","42"
"3","3","retrieval","new_objects","326","Jug_GallonWhite.jpg","37","1","136"
"3","3","retrieval","old_objects","327","Boots_KneeHigh.jpg","36","1","32"
"3","3","retrieval","old_objects","328","Fortress.jpg","36","1","5"
"3","3","retrieval","new_objects","329","Knife_Kitchen.jpg","36","0","27"
"3","3","retrieval","old_objects","330","Paddle_Ball.jpg","37","0","169"
"3","3","retrieval","new_objects","331","Helmet_Soldier.jpg","37","1","0"
"3","3","retrieval","old_objects","332","Mug_Travel.jpg","37","0","163"
"3","3","retrieval","new_objects","333","CementFinisher.jpg","37","1","109"
"3","3","retrieval","old_objects","334","MetalDetector.jpg","37","0","47"
"3","3","retrieval","new_objects","335","Mask_VenetianLongNose.jpg","36","0","123"
"3","3","retrieval","new_objects","336","Bird_Toucan.jpg","37","1","21"
"3","3","retrieval","new_objects","337","Jar_Cotton.jpg","36","0","2"
"3","3","retrieval","old_objects","338","Gloves_Bicycle.jpg","37","0","40"
"3","3","retrieval","new_objects","339","Seal_animal.jpg","37","1","21"
"3","3","retrieval","new_objects","340","ElasticBand.jpg","36","0","58"
"3","3","retrieval","new_objects","341","Drum_Cymbal.jpg","36","0","62"
"3","3","retrieval","new_objects","342","Box_WoodenOpen.jpg","36","0","41"
"3","3","retrieval","new_objects","343","ClothesDryingRack.jpg","37","1","141"
"3","3","retrieval","old_objects","344","DrillBit.jpg","37","0","141"
"3","3","retrieval","new_objects","345","Jar_Capers.jpg","37","1","102"
"3","3","retrieval","new_objects","346","Snowpea.jpg","37","1","40"
"3","3","retrieval","old_objects","347","Steeple.jpg","36","1","748"
"3","3","retrieval","new_objects","348","Hat_Party.jpg","36","0","573"
"3","3","retrieval","new_objects","349","Cornucopia.jpg","37","1","515"
"3","3","retrieval","new_objects","350","Bowl_Chinese.jpg","37","1","387"
"3","3","retrieval","old_objects","351","PulleyWooden.jpg","37","0","370"
"3","3","retrieval","new_objects","352","Lettuce_GreenLeaf.jpg","36","0","234"
"3","3","retrieval","new_objects","353","Lips_Real.jpg","37","1","63"
"3","3","retrieval","new_objects","354","CashRegister_Modern.jpg","37","1","58"
"3","3","retrieval","old_objects","355","Chipmunk.jpg","37","0","166"
"3","3","demographics_block","gender","1","Chipmunk.jpg","male","1","9492"
"3","3","demographics_block","age","1","Chipmunk.jpg","37","1","9492"
"3","3","demographics_block","education","1","Chipmunk.jpg","16","1","9492"
"3","3","demographics_block","left_right_handed","2","Chipmunk.jpg","Right","1","3645"
"3","3","demographics_block","raceoption1","2","Chipmunk.jpg","0","1","3645"
"3","3","demographics_block","raceoption2","2","Chipmunk.jpg","","1","3645"
"3","3","demographics_block","raceoption3","2","Chipmunk.jpg","","1","3645"
"3","3","demographics_block","raceoption4","2","Chipmunk.jpg","","1","3645"
"3","3","demographics_block","raceoption5","2","Chipmunk.jpg","","1","3645"
"3","3","demographics_block","raceoption6","2","Chipmunk.jpg","","1","3645"
"3","3","demographics_block","raceoption7","2","Chipmunk.jpg","","1","3645"
"3","3","demographics_block","raceoption8","2","Chipmunk.jpg","","1","3645"
"3","3","demographics_block","raceoption9","2","Chipmunk.jpg","","1","3645"
"3","3","demographics_block","raceother","2","Chipmunk.jpg","","1","3645"
"3","3","demographics_block","raceother","2","Chipmunk.jpg","","1","3645"
"3","3","demographics_block","english_language","2","Chipmunk.jpg","Yes","1","3645"
"3","3","demographics_block","english_languageother","2","Chipmunk.jpg","","1","3645"
"3","3","demographics_block","eyesight","3","Chipmunk.jpg","Yes","1","3619"
"3","3","demographics_block","colorblind","3","Chipmunk.jpg","No","1","3619"
"3","3","worker_id_block","worker_id_textbox","1","Chipmunk.jpg","A2WWYVKGZZXBOB","1","7036"
"6","6","encoding","encoding","1","Locomotive.jpg","37","0","424"
"6","6","encoding","encoding","2","Toblerone.jpg","37","0","558"
"6","6","encoding","encoding","3","Statue_Cat.jpg","37","0","53"
"6","6","encoding","encoding","4","Crutches.jpg","37","0","1282"
"6","6","encoding","encoding","5","Ball_Baseball.jpg","37","0","771"
"6","6","encoding","encoding","6","Dresser.jpg","37","0","665"
"6","6","encoding","encoding","7","Boat_Dinghy.jpg","37","0","593"
"6","6","encoding","encoding","8","Box_WoodenClosed.jpg","36","0","1016"
"6","6","encoding","encoding","9","Clock_Grandfather.jpg","37","0","143"
"6","6","encoding","encoding","10","Pliers_ViceGrip.jpg","36","0","423"
"6","6","encoding","encoding","11","Camel_Dromedary.jpg","36","0","398"
"6","6","encoding","encoding","12","Caterpillar.jpg","37","0","261"
"6","6","encoding","encoding","13","Dragonfly.jpg","37","0","253"
"6","6","encoding","encoding","14","Toy_BlocksWoodenPlain.jpg","37","0","437"
"6","6","encoding","encoding","15","Hammer.jpg","36","0","12"
"6","6","encoding","encoding","16","Toy_DonkeyPlastic.jpg","36","0","530"
"6","6","encoding","encoding","17","Hotdog_Weiner.jpg","37","0","681"
"6","6","encoding","encoding","18","HerbsInBag.jpg","37","0","480"
"6","6","encoding","encoding","19","Stool_Foot.jpg","36","0","55"
"6","6","encoding","encoding","20","CandleSnuffer.jpg","36","0","15"
"6","6","encoding","encoding","21","Kangaroo_WithJoey.jpg","36","0","135"
"6","6","encoding","encoding","22","Bottle_Blue.jpg","36","0","542"
"6","6","encoding","encoding","23","Stick_Honey.jpg","36","0","264"
"6","6","encoding","encoding","24","Pot_Cooking.jpg","36","0","605"
"6","6","encoding","encoding","25","Toy_Rooster.jpg","37","0","356"
"6","6","encoding","encoding","26","House_Rural.jpg","37","0","443"
"6","6","encoding","encoding","27","PlayerFootball.jpg","37","0","561"
"6","6","encoding","encoding","28","Bag_String.jpg","36","0","392"
"6","6","encoding","encoding","29","ShinPads.jpg","37","0","128"
"6","6","encoding","encoding","30","Egg_Chocolate.jpg","36","0","264"
"6","6","encoding","encoding","31","ChocolateBar_HalfUnwrapped.jpg","37","0","31"
"6","6","encoding","encoding","32","FloorTile.jpg","37","0","534"
"6","6","encoding","encoding","33","Jacket_Suit.jpg","37","0","498"
"6","6","encoding","encoding","34","SledgeHammer.jpg","37","0","435"
"6","6","encoding","encoding","35","Candy_Lozenge.jpg","37","0","362"
"6","6","encoding","encoding","36","Bench_Black.jpg","37","0","465"
"6","6","encoding","encoding","37","Nuts_Pecan.jpg","37","0","712"
"6","6","encoding","encoding","38","ButterDish.jpg","37","0","495"
"6","6","encoding","encoding","39","Blanket.jpg","37","0","454"
"6","6","encoding","encoding","40","Chair_Dining.jpg","37","0","125"
"6","6","encoding","encoding","41","Candleholder_LampShaped.jpg","37","0","4"
"6","6","encoding","encoding","42","DrillBit.jpg","0","0","2000"
"6","6","encoding","encoding","43","Sink_Kitchen.jpg","0","0","2000"
"6","6","encoding","encoding","44","Ladder.jpg","0","0","2000"
"6","6","encoding","encoding","45","Suit_Women.jpg","0","0","2000"
"6","6","encoding","encoding","46","Boots_KneeHigh.jpg","0","0","2000"
"6","6","encoding","encoding","47","MetalDetector.jpg","0","0","2000"
"6","6","encoding","encoding","48","Sandwich_Ham.jpg","0","0","2000"
"6","6","encoding","encoding","49","CookieCutter_Bell.jpg","0","0","2000"
"6","6","encoding","encoding","50","Toy_Firetruck.jpg","0","0","2000"
"6","6","encoding","encoding","51","Buffalo.jpg","0","0","2000"
"6","6","encoding","encoding","52","Toy_TrailerAirport.jpg","0","0","2000"
"6","6","encoding","encoding","53","Tray_Medical.jpg","0","0","2000"
"6","6","encoding","encoding","54","StringBean.jpg","0","0","2000"
"6","6","encoding","encoding","55","CigarCase.jpg","0","0","2000"
"6","6","encoding","encoding","56","CandyDispenser.jpg","0","0","2000"
"6","6","encoding","encoding","57","Cooler.jpg","37","0","852"
"6","6","encoding","encoding","58","Vase_Decorative.jpg","37","0","315"
"6","6","encoding","encoding","59","Ferret.jpg","37","0","179"
"6","6","encoding","encoding","60","GPS.jpg","37","0","202"
"6","6","encoding","encoding","62","PickupTruck.jpg","0","0","2000"
"6","6","encoding","encoding","63","Booth_Carnival.jpg","36","0","197"
"6","6","encoding","encoding","64","VacuumHandheld.jpg","36","0","139"
"6","6","encoding","encoding","65","RibbonSpool.jpg","36","0","514"
"6","6","encoding","encoding","66","CashRegister_Antique.jpg","37","0","122"
"6","6","encoding","encoding","67","Gloves_Bicycle.jpg","36","0","561"
"6","6","encoding","encoding","68","Bag_PaperWithFlour.jpg","37","0","521"
"6","6","encoding","encoding","69","Mug_Travel.jpg","37","0","64"
"6","6","encoding","encoding","70","Clothespin_Red.jpg","37","0","328"
"6","6","encoding","encoding","71","PowderProtein.jpg","36","0","1215"
"6","6","encoding","encoding","72","Toy_ElephantPlastic.jpg","37","0","150"
"6","6","encoding","encoding","73","Scooter.jpg","37","0","45"
"6","6","encoding","encoding","74","Domino.jpg","37","0","36"
"6","6","encoding","encoding","75","Tray_Metal.jpg","37","0","156"
"6","6","encoding","encoding","76","WateringCan_PlasticDarkGreen.jpg","36","0","178"
"6","6","encoding","encoding","77","Tray_Muffin.jpg","36","0","409"
"6","6","encoding","encoding","78","Hubcap.jpg","37","0","128"
"6","6","encoding","encoding","79","BumperCar.jpg","36","0","343"
"6","6","encoding","encoding","80","Fencing_HelmetSwords.jpg","37","0","350"
"6","6","encoding","encoding","81","Steamer.jpg","37","0","486"
"6","6","encoding","encoding","82","Stovetop.jpg","37","0","13"
"6","6","encoding","encoding","83","Strainer_Tea.jpg","0","0","2000"
"6","6","encoding","encoding","84","Cantaloupe.jpg","37","0","1676"
"6","6","encoding","encoding","85","Stamp.jpg","37","0","131"
"6","6","encoding","encoding","86","Barbecue_Charcoal.jpg","36","0","697"
"6","6","encoding","encoding","87","Fridge.jpg","36","0","768"
"6","6","encoding","encoding","88","Generator.jpg","37","0","455"
"6","6","encoding","encoding","89","Megaphone.jpg","37","0","526"
"6","6","encoding","encoding","90","Bottle_Specimen.jpg","36","0","5"
"6","6","encoding","encoding","91","Quartz.jpg","36","0","300"
"6","6","encoding","encoding","92","Stool_Metal.jpg","36","0","578"
"6","6","encoding","encoding","93","PumpBreast.jpg","36","0","649"
"6","6","encoding","encoding","94","Jacks.jpg","37","0","32"
"6","6","encoding","encoding","95","Cake_Wedding.jpg","36","0","535"
"6","6","encoding","encoding","96","Horn_French.jpg","36","0","510"
"6","6","encoding","encoding","97","PulleyWooden.jpg","37","0","309"
"6","6","encoding","encoding","98","Can_Olives.jpg","37","0","507"
"6","6","encoding","encoding","99","Cane_Metal.jpg","37","0","803"
"6","6","encoding","encoding","100","ComputerKeyboard.jpg","36","0","553"
"6","6","encoding","encoding","101","Bucket_WoodenLight.jpg","37","0","560"
"6","6","encoding","encoding","102","Stick_IceHockey.jpg","36","0","72"
"6","6","encoding","encoding","103","Sign_TrafficArrow.jpg","36","0","448"
"6","6","encoding","encoding","104","LifeJacket_Orangejpg.jpg","37","0","487"
"6","6","encoding","encoding","105","Glass_Beer.jpg","37","0","941"
"6","6","encoding","encoding","106","Mitt_Oven.jpg","36","0","149"
"6","6","encoding","encoding","107","Candy_Toffee.jpg","37","0","29"
"6","6","encoding","encoding","108","Hat_Hard.jpg","37","0","324"
"6","6","encoding","encoding","109","RugRoled.jpg","37","0","971"
"6","6","encoding","encoding","110","EspressoMachine.jpg","36","0","227"
"6","6","encoding","encoding","111","PylonTraffic.jpg","37","0","122"
"6","6","encoding","encoding","112","Mat_Door.jpg","37","0","33"
"6","6","encoding","encoding","113","NetButterfly.jpg","37","0","616"
"6","6","encoding","encoding","114","Steeple.jpg","37","0","1631"
"6","6","encoding","encoding","115","Bag_Toiletry.jpg","37","0","838"
"6","6","encoding","encoding","116","Table_Poker.jpg","36","0","349"
"6","6","encoding","encoding","117","Bowl_Chopsticks.jpg","37","0","1956"
"6","6","encoding","encoding","118","Pretzel_Knot.jpg","37","0","1243"
"6","6","encoding","encoding","119","Machine_Bread.jpg","37","0","83"
"6","6","encoding","encoding","120","TelephoneSwitchboard.jpg","0","0","2000"
"6","6","encoding","encoding","121","Ball_Tennis.jpg","0","0","2000"
"6","6","encoding","encoding","123","Stationary.jpg","37","0","519"
"6","6","encoding","encoding","124","Colosseum.jpg","36","0","333"
"6","6","encoding","encoding","125","LintRemover.jpg","37","0","68"
"6","6","encoding","encoding","126","Drink_Cocktail.jpg","37","0","794"
"6","6","encoding","encoding","127","Toy_Chameleon.jpg","36","0","241"
"6","6","encoding","encoding","128","Paddle_Ball.jpg","37","0","1768"
"6","6","encoding","encoding","129","PowerDoorPushButton.jpg","37","0","847"
"6","6","encoding","encoding","130","Bowl_Sugar.jpg","36","0","134"
"6","6","encoding","encoding","131","Foam_Accoustic.jpg","37","0","398"
"6","6","encoding","encoding","132","Toy_Lizard.jpg","37","0","1524"
"6","6","encoding","encoding","133","Pacifier.jpg","37","0","907"
"6","6","encoding","encoding","134","Squash_Butternut.jpg","36","0","66"
"6","6","encoding","encoding","135","Scroll.jpg","37","0","1097"
"6","6","encoding","encoding","136","Gum_Pack.jpg","36","0","336"
"6","6","encoding","encoding","137","Barometer_Wood.jpg","37","0","1495"
"6","6","encoding","encoding","138","Rope_Manila.jpg","37","0","542"
"6","6","encoding","encoding","139","Comb.jpg","37","0","1541"
"6","6","encoding","encoding","140","DoorBell.jpg","37","0","524"
"6","6","encoding","encoding","141","Cake_Cheese.jpg","37","0","1476"
"6","6","encoding","encoding","142","ShoeLace_Flat.jpg","37","0","587"
"6","6","encoding","encoding","143","Tractor_Yellow.jpg","37","0","1554"
"6","6","encoding","encoding","144","Leaf_Green.jpg","37","0","521"
"6","6","encoding","encoding","145","VinylRecord.jpg","37","0","1584"
"6","6","encoding","encoding","146","Chipmunk.jpg","37","0","839"
"6","6","encoding","encoding","147","Jug_Wicker.jpg","36","0","78"
"6","6","encoding","encoding","148","BicycleHandleGrip.jpg","36","0","917"
"6","6","encoding","encoding","149","Sandcastle.jpg","37","0","45"
"6","6","encoding","encoding","150","Lens_ColourFilter.jpg","36","0","116"
"6","6","encoding","encoding","151","Olives.jpg","36","0","203"
"6","6","encoding","encoding","152","Guacamole.jpg","36","0","1218"
"6","6","encoding","encoding","153","Fortress.jpg","37","0","89"
"6","6","encoding","encoding","154","Bag_Satchel.jpg","37","0","417"
"6","6","encoding","encoding","155","PeriodicTable.jpg","37","0","407"
"6","6","encoding","encoding","156","Box_Jewellery.jpg","37","0","206"
"6","6","encoding","encoding","157","Yarmulke.jpg","37","0","246"
"6","6","encoding","encoding","158","Pillow_Plaid.jpg","36","0","940"
"6","6","encoding","encoding","159","Pouch_Red.jpg","36","0","100"
"6","6","encoding","encoding","160","Flower_Tulip.jpg","37","0","443"
"6","6","encoding","encoding","161","Artichoke.jpg","36","0","610"
"6","6","encoding","encoding","162","Bottle_Oil.jpg","37","0","201"
"6","6","encoding","encoding","163","Mirror_Handheld.jpg","37","0","769"
"6","6","encoding","encoding","164","ManholeCover.jpg","37","0","488"
"6","6","encoding","encoding","165","Toy_RobotClassic.jpg","36","0","352"
"6","6","encoding","encoding","166","NewspaperStack.jpg","37","0","135"
"6","6","encoding","encoding","167","Tube_Paint.jpg","37","0","495"
"6","6","encoding","encoding","168","Instrument_African.jpg","37","0","869"
"6","6","encoding","encoding","169","Puffin.jpg","36","0","44"
"6","6","encoding","encoding","170","Hourglass.jpg","37","0","931"
"6","6","encoding","encoding","171","ChiliFlakes.jpg","37","0","1354"
"6","6","encoding","encoding","172","TissueBox.jpg","36","0","81"
"6","6","encoding","encoding","173","Stove_Portable.jpg","37","0","487"
"6","6","encoding","encoding","174","Hippopotamus.jpg","37","0","1006"
"6","6","encoding","encoding","175","EyeChart.jpg","36","0","181"
"6","6","encoding","encoding","176","Rake_Long.jpg","37","0","157"
"6","6","encoding","encoding","177","Helmet_Football.jpg","37","0","708"
"6","6","retrieval","new_objects","1","WaterHeater.jpg","37","1","981"
"6","6","retrieval","old_objects","2","Instrument_African.jpg","37","0","740"
"6","6","retrieval","new_objects","3","Shrimp.jpg","36","0","461"
"6","6","retrieval","old_objects","4","Hubcap.jpg","37","0","401"
"6","6","retrieval","new_objects","5","BuildingChinese.jpg","36","0","296"
"6","6","retrieval","new_objects","6","Helmet_Bicycle.jpg","37","1","339"
"6","6","retrieval","new_objects","7","DonaldDuck_Toy.jpg","36","0","363"
"6","6","retrieval","new_objects","8","Sign_Parking.jpg","37","1","388"
"6","6","retrieval","old_objects","9","Sign_TrafficArrow.jpg","36","1","395"
"6","6","retrieval","new_objects","10","Flamingo_Cartoon.jpg","37","1","418"
"6","6","retrieval","new_objects","11","Balalaika.jpg","36","0","408"
"6","6","retrieval","old_objects","12","Scooter.jpg","37","0","527"
"6","6","retrieval","new_objects","13","Tree_ChristmasMini.jpg","37","1","224"
"6","6","retrieval","new_objects","14","Pumpkin.jpg","36","0","349"
"6","6","retrieval","new_objects","15","FortuneCookie.jpg","37","1","390"
"6","6","retrieval","old_objects","16","LifeJacket_Orangejpg.jpg","36","1","509"
"6","6","retrieval","old_objects","17","Candleholder_LampShaped.jpg","37","0","335"
"6","6","retrieval","old_objects","18","Mirror_Handheld.jpg","36","1","472"
"6","6","retrieval","new_objects","19","Lynx.jpg","37","1","300"
"6","6","retrieval","new_objects","20","Icepick.jpg","36","0","374"
"6","6","retrieval","old_objects","21","RibbonSpool.jpg","37","0","319"
"6","6","retrieval","new_objects","22","SaxophoneSoprano.jpg","36","0","313"
"6","6","retrieval","new_objects","23","Drum_Cymbal.jpg","37","1","323"
"6","6","retrieval","old_objects","24","Clothespin_Red.jpg","36","1","348"
"6","6","retrieval","old_objects","25","Horn_French.jpg","37","0","357"
"6","6","retrieval","new_objects","26","Dolly.jpg","36","0","365"
"6","6","retrieval","old_objects","27","Scroll.jpg","37","0","309"
"6","6","retrieval","old_objects","28","Steeple.jpg","36","1","400"
"6","6","retrieval","old_objects","29","Foam_Accoustic.jpg","36","1","38"
"6","6","retrieval","new_objects","30","Nametag.jpg","37","1","443"
"6","6","retrieval","new_objects","31","Lips_Real.jpg","37","1","32"
"6","6","retrieval","old_objects","32","Pacifier.jpg","37","0","133"
"6","6","retrieval","old_objects","33","ComputerKeyboard.jpg","37","0","311"
"6","6","retrieval","new_objects","34","DryRack_Clothes.jpg","36","0","513"
"6","6","retrieval","new_objects","35","Toy_RabbitPlushie.jpg","37","1","403"
"6","6","retrieval","new_objects","36","Ruler_Digital.jpg","36","0","490"
"6","6","retrieval","new_objects","37","Chairs_Stacked.jpg","37","1","460"
"6","6","retrieval","new_objects","38","CapGraduation.jpg","37","1","176"
"6","6","retrieval","old_objects","39","Ball_Tennis.jpg","36","1","432"
"6","6","retrieval","old_objects","40","Bowl_Sugar.jpg","37","0","453"
"6","6","retrieval","new_objects","41","Toaster_MetalSleek.jpg","36","0","314"
"6","6","retrieval","old_objects","42","Guacamole.jpg","37","0","692"
"6","6","retrieval","new_objects","43","Bucket_Halloween.jpg","36","0","287"
"6","6","retrieval","old_objects","44","Toblerone.jpg","37","0","570"
"6","6","retrieval","old_objects","45","Toy_Chameleon.jpg","36","1","346"
"6","6","retrieval","old_objects","46","Boots_KneeHigh.jpg","37","0","323"
"6","6","retrieval","old_objects","47","PickupTruck.jpg","36","1","269"
"6","6","retrieval","old_objects","48","Vase_Decorative.jpg","37","0","377"
"6","6","retrieval","new_objects","49","Box_FirstAidOpen.jpg","37","1","96"
"6","6","retrieval","old_objects","50","NetButterfly.jpg","36","1","196"
"6","6","retrieval","new_objects","51","Stool_Camping.jpg","37","1","258"
"6","6","retrieval","new_objects","52","LumiereBeautyBeast.jpg","36","0","142"
"6","6","retrieval","old_objects","53","Cane_Metal.jpg","37","0","287"
"6","6","retrieval","old_objects","54","Pretzel_Knot.jpg","36","1","266"
"6","6","retrieval","new_objects","55","Boxcutter.jpg","37","1","310"
"6","6","retrieval","new_objects","56","DoubleBass.jpg","36","0","288"
"6","6","retrieval","old_objects","57","Toy_ElephantPlastic.jpg","37","0","220"
"6","6","retrieval","new_objects","58","CinderBlock.jpg","36","0","218"
"6","6","retrieval","old_objects","59","Fencing_HelmetSwords.jpg","37","0","360"
"6","6","retrieval","new_objects","60","Coconut.jpg","37","1","16"
"6","6","retrieval","new_objects","62","EyeDrops.jpg","37","1","923"
"6","6","retrieval","new_objects","63","Jug_GallonWhite.jpg","37","1","269"
"6","6","retrieval","old_objects","64","Mat_Door.jpg","37","0","57"
"6","6","retrieval","old_objects","65","Barometer_Wood.jpg","36","1","125"
"6","6","retrieval","old_objects","66","FloorTile.jpg","37","0","287"
"6","6","retrieval","new_objects","67","Egg_Wooden.jpg","36","0","347"
"6","6","retrieval","new_objects","68","ClothesDryingRack.jpg","37","1","435"
"6","6","retrieval","old_objects","69","Mitt_Oven.jpg","36","1","344"
"6","6","retrieval","new_objects","70","Computer_ExpansionCard.jpg","37","1","354"
"6","6","retrieval","old_objects","71","Colosseum.jpg","36","1","330"
"6","6","retrieval","old_objects","72","Pouch_Red.jpg","37","0","340"
"6","6","retrieval","new_objects","73","Jar_Cotton.jpg","36","0","348"
"6","6","retrieval","new_objects","74","Lettuce_GreenLeaf.jpg","37","1","261"
"6","6","retrieval","new_objects","75","FlipFlop_PairBlue.jpg","36","0","369"
"6","6","retrieval","old_objects","76","Ferret.jpg","37","0","345"
"6","6","retrieval","new_objects","77","WagonPilgrim.jpg","36","0","306"
"6","6","retrieval","new_objects","78","Bird_Duck.jpg","37","1","172"
"6","6","retrieval","old_objects","79","Table_Poker.jpg","36","1","412"
"6","6","retrieval","new_objects","80","Swan.jpg","37","1","130"
"6","6","retrieval","new_objects","81","GasStation.jpg","36","0","324"
"6","6","retrieval","old_objects","82","CashRegister_Antique.jpg","37","0","174"
"6","6","retrieval","new_objects","83","Faucet.jpg","36","0","253"
"6","6","retrieval","old_objects","84","Dresser.jpg","37","0","90"
"6","6","retrieval","old_objects","85","GPS.jpg","36","1","13"
"6","6","retrieval","old_objects","86","House_Rural.jpg","36","1","83"
"6","6","retrieval","new_objects","87","Nutcracker.jpg","37","1","311"
"6","6","retrieval","old_objects","88","Hammer.jpg","37","0","241"
"6","6","retrieval","old_objects","89","Candy_Lozenge.jpg","37","0","126"
"6","6","retrieval","new_objects","90","WaterColorPaintset.jpg","36","0","111"
"6","6","retrieval","old_objects","91","Stovetop.jpg","36","1","21"
"6","6","retrieval","old_objects","92","StringBean.jpg","36","1","23"
"6","6","retrieval","new_objects","93","Clip_Chip.jpg","36","0","268"
"6","6","retrieval","old_objects","94","Helmet_Football.jpg","36","1","152"
"6","6","retrieval","old_objects","95","EyeChart.jpg","36","1","73"
"6","6","retrieval","new_objects","96","Staircase_Straight.jpg","36","0","12"
"6","6","retrieval","old_objects","97","Dragonfly.jpg","36","1","162"
"6","6","retrieval","old_objects","98","Clock_Grandfather.jpg","37","0","227"
"6","6","retrieval","new_objects","99","Snowpea.jpg","36","0","144"
"6","6","retrieval","old_objects","100","Leaf_Green.jpg","36","1","49"
"6","6","retrieval","old_objects","101","Stationary.jpg","37","0","22"
"6","6","retrieval","old_objects","102","Toy_Firetruck.jpg","37","0","156"
"6","6","retrieval","old_objects","103","Squash_Butternut.jpg","37","0","252"
"6","6","retrieval","new_objects","104","Pipe_Drain.jpg","37","1","232"
"6","6","retrieval","new_objects","105","CementFinisher.jpg","36","0","311"
"6","6","retrieval","new_objects","106","Bottle_Beer.jpg","36","0","64"
"6","6","retrieval","new_objects","107","Cranberry.jpg","36","0","277"
"6","6","retrieval","new_objects","108","Crossbow.jpg","37","1","80"
"6","6","retrieval","old_objects","109","TelephoneSwitchboard.jpg","37","0","51"
"6","6","retrieval","old_objects","110","Megaphone.jpg","36","1","136"
"6","6","retrieval","new_objects","111","Carabiner_Orange.jpg","36","0","361"
"6","6","retrieval","new_objects","112","HairClip.jpg","36","0","114"
"6","6","retrieval","old_objects","113","Tube_Paint.jpg","36","1","388"
"6","6","retrieval","new_objects","114","Exercise_Stretch.jpg","37","1","42"
"6","6","retrieval","old_objects","115","Rake_Long.jpg","36","1","47"
"6","6","retrieval","new_objects","116","PenHolder.jpg","37","1","260"
"6","6","retrieval","new_objects","117","PaperShredder.jpg","36","0","368"
"6","6","retrieval","new_objects","118","Glass_Cup.jpg","36","0","88"
"6","6","retrieval","new_objects","119","MonaLisa.jpg","36","0","27"
"6","6","retrieval","old_objects","120","Locomotive.jpg","36","1","0"
"6","6","retrieval","old_objects","121","CandleSnuffer.jpg","37","0","263"
"6","6","retrieval","old_objects","123","BicycleHandleGrip.jpg","0","0","2000"
"6","6","retrieval","old_objects","124","Rope_Manila.jpg","37","0","113"
"6","6","retrieval","old_objects","125","Flower_Tulip.jpg","37","0","147"
"6","6","retrieval","old_objects","126","Bowl_Chopsticks.jpg","37","0","148"
"6","6","retrieval","new_objects","127","Radio_Modern.jpg","37","1","37"
"6","6","retrieval","old_objects","128","Mug_Travel.jpg","37","0","170"
"6","6","retrieval","old_objects","129","VinylRecord.jpg","37","0","26"
"6","6","retrieval","new_objects","130","Camera_Security.jpg","37","1","48"
"6","6","retrieval","new_objects","131","Bird_Parrot.jpg","36","0","420"
"6","6","retrieval","old_objects","132","ChiliFlakes.jpg","37","0","282"
"6","6","retrieval","new_objects","133","Walker_Blue.jpg","36","0","262"
"6","6","retrieval","new_objects","134","ChalkLineTool.jpg","37","1","402"
"6","6","retrieval","new_objects","135","Helmet_Soldier.jpg","37","1","249"
"6","6","retrieval","new_objects","136","TeethMould.jpg","37","1","133"
"6","6","retrieval","old_objects","137","Bag_Toiletry.jpg","36","1","487"
"6","6","retrieval","old_objects","138","Sandwich_Ham.jpg","37","0","234"
"6","6","retrieval","new_objects","139","Cage_Bird.jpg","37","1","24"
"6","6","retrieval","new_objects","140","Bowl_Chinese.jpg","37","1","61"
"6","6","retrieval","new_objects","141","PaperTowel_Brown.jpg","36","0","449"
"6","6","retrieval","new_objects","142","Truck_Dump.jpg","37","1","134"
"6","6","retrieval","old_objects","143","EspressoMachine.jpg","37","0","422"
"6","6","retrieval","old_objects","144","Tray_Muffin.jpg","36","1","317"
"6","6","retrieval","old_objects","145","Crutches.jpg","37","0","455"
"6","6","retrieval","new_objects","146","EyeExamDevice.jpg","36","0","203"
"6","6","retrieval","old_objects","147","Hippopotamus.jpg","37","0","122"
"6","6","retrieval","new_objects","148","Syringe_Needle.jpg","36","0","59"
"6","6","retrieval","old_objects","149","TissueBox.jpg","37","0","255"
"6","6","retrieval","old_objects","150","Stove_Portable.jpg","37","0","380"
"6","6","retrieval","new_objects","151","Necklace_Black.jpg","36","0","19"
"6","6","retrieval","old_objects","152","BumperCar.jpg","37","0","170"
"6","6","retrieval","old_objects","153","PulleyWooden.jpg","36","1","26"
"6","6","retrieval","old_objects","154","Fridge.jpg","36","1","95"
"6","6","retrieval","old_objects","155","ShoeLace_Flat.jpg","37","0","418"
"6","6","retrieval","old_objects","156","Jug_Wicker.jpg","36","1","360"
"6","6","retrieval","new_objects","157","Ashtray_Empty.jpg","37","1","512"
"6","6","retrieval","old_objects","158","Bag_Satchel.jpg","36","1","258"
"6","6","retrieval","old_objects","159","Sandcastle.jpg","37","0","446"
"6","6","retrieval","old_objects","160","Box_WoodenClosed.jpg","37","0","291"
"6","6","retrieval","old_objects","161","Bucket_WoodenLight.jpg","37","0","239"
"6","6","retrieval","old_objects","162","MetalDetector.jpg","37","0","12"
"6","6","retrieval","new_objects","163","Bag_Grains.jpg","36","0","354"
"6","6","retrieval","new_objects","164","ComputerKeyboard_F1.jpg","37","1","235"
"6","6","retrieval","new_objects","165","TireRims.jpg","36","0","344"
"6","6","retrieval","old_objects","166","CandyDispenser.jpg","37","0","209"
"6","6","retrieval","new_objects","167","Jack.jpg","36","0","191"
"6","6","retrieval","old_objects","168","HerbsInBag.jpg","36","1","62"
"6","6","retrieval","old_objects","169","Bottle_Oil.jpg","37","0","434"
"6","6","retrieval","new_objects","170","DiaperChangingStation.jpg","36","0","312"
"6","6","retrieval","old_objects","171","Cake_Cheese.jpg","37","0","306"
"6","6","retrieval","old_objects","172","Domino.jpg","36","1","236"
"6","6","retrieval","old_objects","173","Ladder.jpg","37","0","378"
"6","6","retrieval","old_objects","174","Gum_Pack.jpg","36","1","207"
"6","6","retrieval","new_objects","175","Eraser.jpg","37","1","111"
"6","6","retrieval","old_objects","176","Drink_Cocktail.jpg","37","0","18"
"6","6","retrieval","new_objects","177","Bat_Cricket.jpg","36","0","135"
"6","6","retrieval","new_objects","178","Bandage_Wrap.jpg","36","0","25"
"6","6","retrieval","old_objects","179","Statue_Cat.jpg","36","1","334"
"6","6","retrieval","new_objects","180","Toy_Shapesorter.jpg","37","1","152"
"6","6","retrieval","old_objects","181","Blanket.jpg","37","0","377"
"6","6","retrieval","new_objects","182","Canister_Tea.jpg","36","0","208"
"6","6","retrieval","new_objects","184","TomatoSauce.jpg","36","0","287"
"6","6","retrieval","old_objects","185","Chair_Dining.jpg","37","0","250"
"6","6","retrieval","old_objects","186","Cantaloupe.jpg","36","1","471"
"6","6","retrieval","new_objects","187","Chair_PlasticGreen.jpg","37","1","778"
"6","6","retrieval","new_objects","188","JoustingSpear.jpg","37","1","18"
"6","6","retrieval","old_objects","189","Stick_IceHockey.jpg","37","0","55"
"6","6","retrieval","old_objects","190","CookieCutter_Bell.jpg","36","1","492"
"6","6","retrieval","old_objects","191","RugRoled.jpg","37","0","527"
"6","6","retrieval","new_objects","192","Razor.jpg","36","0","433"
"6","6","retrieval","new_objects","193","SelfieStick.jpg","37","1","406"
"6","6","retrieval","old_objects","194","VacuumHandheld.jpg","37","0","13"
"6","6","retrieval","new_objects","195","Tweezers.jpg","36","0","419"
"6","6","retrieval","new_objects","196","Tiara.jpg","37","1","9"
"6","6","retrieval","old_objects","197","Tractor_Yellow.jpg","37","0","127"
"6","6","retrieval","new_objects","198","Decoration_ChristmasWhite.jpg","37","1","448"
"6","6","retrieval","new_objects","199","Scalpel.jpg","36","0","261"
"6","6","retrieval","new_objects","200","Cannister_Gas.jpg","37","1","177"
"6","6","retrieval","new_objects","201","Cornucopia.jpg","37","1","273"
"6","6","retrieval","new_objects","202","Bottle_Bleach.jpg","36","0","156"
"6","6","retrieval","old_objects","203","Jacks.jpg","36","1","13"
"6","6","retrieval","new_objects","204","PotatoMasher_Grate.jpg","37","1","99"
"6","6","retrieval","old_objects","205","Bag_PaperWithFlour.jpg","37","0","86"
"6","6","retrieval","new_objects","206","Steam_Cleaner.jpg","37","1","217"
"6","6","retrieval","new_objects","207","Pen_Ballpoint.jpg","36","0","7"
"6","6","retrieval","old_objects","208","Suit_Women.jpg","36","1","45"
"6","6","retrieval","old_objects","209","ShinPads.jpg","36","1","194"
"6","6","retrieval","old_objects","210","Ball_Baseball.jpg","36","1","33"
"6","6","retrieval","old_objects","211","Toy_BlocksWoodenPlain.jpg","37","0","327"
"6","6","retrieval","old_objects","212","Tray_Metal.jpg","37","0","224"
"6","6","retrieval","old_objects","213","ButterDish.jpg","37","0","366"
"6","6","retrieval","new_objects","214","SewingPin_Single.jpg","37","1","214"
"6","6","retrieval","new_objects","215","Nuts_PeanutsPeeled.jpg","36","0","68"
"6","6","retrieval","new_objects","216","Toolbox_BlackOpen.jpg","37","1","296"
"6","6","retrieval","new_objects","217","Bird_Toucan.jpg","37","1","115"
"6","6","retrieval","old_objects","218","Nuts_Pecan.jpg","37","0","149"
"6","6","retrieval","old_objects","219","Booth_Carnival.jpg","36","1","326"
"6","6","retrieval","new_objects","220","LightBulb_Christmas.jpg","36","0","95"
"6","6","retrieval","old_objects","221","Bottle_Blue.jpg","36","1","194"
"6","6","retrieval","old_objects","222","Boat_Dinghy.jpg","37","0","112"
"6","6","retrieval","new_objects","223","Knife_Kitchen.jpg","37","1","435"
"6","6","retrieval","old_objects","224","Chipmunk.jpg","36","1","136"
"6","6","retrieval","new_objects","225","Knife_Butter.jpg","37","1","42"
"6","6","retrieval","old_objects","226","Fortress.jpg","37","0","350"
"6","6","retrieval","old_objects","227","Paddle_Ball.jpg","37","0","423"
"6","6","retrieval","old_objects","228","Egg_Chocolate.jpg","36","1","221"
"6","6","retrieval","new_objects","229","Pear_Yellow.jpg","37","1","378"
"6","6","retrieval","new_objects","230","Speaker_Computer.jpg","36","0","242"
"6","6","retrieval","new_objects","231","OnionRings.jpg","36","0","446"
"6","6","retrieval","new_objects","232","Bread_Roll.jpg","36","0","179"
"6","6","retrieval","new_objects","233","Pajamas.jpg","37","1","2"
"6","6","retrieval","new_objects","234","Rock_Mimetite.jpg","37","1","250"
"6","6","retrieval","old_objects","235","Yarmulke.jpg","37","0","294"
"6","6","retrieval","old_objects","236","PeriodicTable.jpg","37","0","193"
"6","6","retrieval","new_objects","237","CashRegister_Modern.jpg","37","1","64"
"6","6","retrieval","old_objects","238","Can_Olives.jpg","37","0","180"
"6","6","retrieval","old_objects","239","Stool_Metal.jpg","37","0","243"
"6","6","retrieval","old_objects","240","PumpBreast.jpg","37","0","127"
"6","6","retrieval","new_objects","241","Crab.jpg","37","1","209"
"6","6","retrieval","old_objects","242","Toy_DonkeyPlastic.jpg","37","0","47"
"6","6","retrieval","old_objects","243","Jacket_Suit.jpg","37","0","20"
"6","6","retrieval","old_objects","245","Camel_Dromedary.jpg","37","0","348"
"6","6","retrieval","new_objects","246","Ghost.jpg","37","1","197"
"6","6","retrieval","new_objects","247","CarSeat.jpg","37","1","179"
"6","6","retrieval","new_objects","248","Shoes_WomenBoots.jpg","36","0","290"
"6","6","retrieval","old_objects","249","Sink_Kitchen.jpg","37","0","526"
"6","6","retrieval","new_objects","250","IceCubes copy.jpg","36","0","287"
"6","6","retrieval","old_objects","251","Puffin.jpg","36","1","123"
"6","6","retrieval","new_objects","252","Elephant.jpg","36","0","140"
"6","6","retrieval","old_objects","253","Artichoke.jpg","37","0","350"
"6","6","retrieval","old_objects","254","ChocolateBar_HalfUnwrapped.jpg","37","0","213"
"6","6","retrieval","new_objects","255","Weights_Dumbells.jpg","37","1","36"
"6","6","retrieval","old_objects","256","DrillBit.jpg","37","0","58"
"6","6","retrieval","new_objects","257","Knee.jpg","36","0","270"
"6","6","retrieval","new_objects","258","Grill_Gas.jpg","37","1","266"
"6","6","retrieval","old_objects","259","PowderProtein.jpg","36","1","326"
"6","6","retrieval","old_objects","260","WateringCan_PlasticDarkGreen.jpg","37","0","143"
"6","6","retrieval","new_objects","261","Lock_Key.jpg","37","1","272"
"6","6","retrieval","new_objects","262","Seal_animal.jpg","37","1","459"
"6","6","retrieval","old_objects","263","Hat_Hard.jpg","36","1","64"
"6","6","retrieval","new_objects","264","SolderingWire.jpg","37","1","228"
"6","6","retrieval","new_objects","265","Gun_Glue.jpg","36","0","209"
"6","6","retrieval","old_objects","266","Hotdog_Weiner.jpg","36","1","111"
"6","6","retrieval","new_objects","267","HairDryer.jpg","36","0","17"
"6","6","retrieval","old_objects","268","PowerDoorPushButton.jpg","36","1","311"
"6","6","retrieval","new_objects","269","Mask_VenetianLongNose.jpg","37","1","305"
"6","6","retrieval","new_objects","270","SnowGlobe.jpg","36","0","171"
"6","6","retrieval","new_objects","271","Castle_Sand.jpg","37","1","170"
"6","6","retrieval","old_objects","272","Machine_Bread.jpg","36","1","91"
"6","6","retrieval","new_objects","273","GiftBow.jpg","36","0","205"
"6","6","retrieval","old_objects","274","CigarCase.jpg","36","1","412"
"6","6","retrieval","old_objects","275","Glass_Beer.jpg","37","0","50"
"6","6","retrieval","new_objects","276","Candle_Blue.jpg","37","1","359"
"6","6","retrieval","new_objects","277","Star.jpg","36","0","383"
"6","6","retrieval","old_objects","278","Bench_Black.jpg","36","1","102"
"6","6","retrieval","old_objects","279","Barbecue_Charcoal.jpg","37","0","409"
"6","6","retrieval","new_objects","280","Chainsaw.jpg","36","0","319"
"6","6","retrieval","old_objects","281","Toy_Lizard.jpg","37","0","393"
"6","6","retrieval","old_objects","282","LintRemover.jpg","36","1","208"
"6","6","retrieval","old_objects","283","Tray_Medical.jpg","36","1","399"
"6","6","retrieval","new_objects","284","Defribrillator.jpg","37","1","5"
"6","6","retrieval","new_objects","285","GogglesSwim.jpg","37","1","219"
"6","6","retrieval","old_objects","286","Lens_ColourFilter.jpg","37","0","25"
"6","6","retrieval","old_objects","287","Stool_Foot.jpg","36","1","415"
"6","6","retrieval","new_objects","288","Hotdog_WithBun.jpg","37","1","5"
"6","6","retrieval","old_objects","289","Cooler.jpg","36","1","396"
"6","6","retrieval","old_objects","290","PlayerFootball.jpg","37","0","290"
"6","6","retrieval","new_objects","291","Starfish.jpg","36","0","333"
"6","6","retrieval","old_objects","292","Strainer_Tea.jpg","37","0","407"
"6","6","retrieval","old_objects","293","Candy_Toffee.jpg","36","1","334"
"6","6","retrieval","new_objects","294","ElasticBand.jpg","37","1","311"
"6","6","retrieval","old_objects","295","Comb.jpg","36","1","17"
"6","6","retrieval","old_objects","296","SledgeHammer.jpg","37","0","263"
"6","6","retrieval","new_objects","297","Lychee.jpg","37","1","179"
"6","6","retrieval","old_objects","298","Gloves_Bicycle.jpg","36","1","259"
"6","6","retrieval","new_objects","299","PocketKnife.jpg","37","1","142"
"6","6","retrieval","new_objects","300","CoffeeGrinder.jpg","36","0","159"
"6","6","retrieval","new_objects","301","RibbonPin.jpg","37","1","207"
"6","6","retrieval","new_objects","302","Cracker_Saltine.jpg","37","1","317"
"6","6","retrieval","old_objects","303","PylonTraffic.jpg","37","0","344"
"6","6","retrieval","new_objects","304","RollerBlade.jpg","37","1","288"
"6","6","retrieval","old_objects","306","Steamer.jpg","0","0","2000"
"6","6","retrieval","new_objects","307","FileFolder.jpg","37","1","685"
"6","6","retrieval","old_objects","308","Pliers_ViceGrip.jpg","37","0","424"
"6","6","retrieval","new_objects","309","Shark_Hammerhead.jpg","0","0","2000"
"6","6","retrieval","new_objects","310","Flashlight.jpg","37","1","196"
"6","6","retrieval","old_objects","311","Stick_Honey.jpg","37","0","211"
"6","6","retrieval","new_objects","312","Mirror_Makeup.jpg","37","1","753"
"6","6","retrieval","new_objects","313","Toy_BeadMaze.jpg","37","1","1354"
"6","6","retrieval","old_objects","314","Olives.jpg","37","0","859"
"6","6","retrieval","old_objects","315","Caterpillar.jpg","37","0","863"
"6","6","retrieval","old_objects","316","NewspaperStack.jpg","37","0","803"
"6","6","retrieval","new_objects","317","Walkman.jpg","37","1","569"
"6","6","retrieval","new_objects","318","Box_WoodenOpen.jpg","37","1","553"
"6","6","retrieval","new_objects","319","RiceRaw.jpg","37","1","202"
"6","6","retrieval","old_objects","320","Generator.jpg","37","0","617"
"6","6","retrieval","new_objects","321","Glove_Rubber.jpg","37","1","439"
"6","6","retrieval","new_objects","322","Bible.jpg","37","1","44"
"6","6","retrieval","old_objects","323","Cake_Wedding.jpg","37","0","336"
"6","6","retrieval","new_objects","324","Earrings_Dangling.jpg","37","1","234"
"6","6","retrieval","new_objects","325","Dreamcatcher.jpg","36","0","8"
"6","6","retrieval","old_objects","326","Box_Jewellery.jpg","36","1","286"
"6","6","retrieval","old_objects","327","Pillow_Plaid.jpg","36","1","234"
"6","6","retrieval","new_objects","328","Bread_Carrot.jpg","37","1","7"
"6","6","retrieval","new_objects","329","Garlic_Clove.jpg","37","1","333"
"6","6","retrieval","new_objects","330","Fuse.jpg","37","1","294"
"6","6","retrieval","old_objects","331","Hourglass.jpg","36","1","1"
"6","6","retrieval","old_objects","332","Toy_Rooster.jpg","37","0","24"
"6","6","retrieval","old_objects","333","ManholeCover.jpg","36","1","238"
"6","6","retrieval","old_objects","334","Buffalo.jpg","36","1","299"
"6","6","retrieval","new_objects","335","Statue_Jesus.jpg","37","1","246"
"6","6","retrieval","old_objects","336","DoorBell.jpg","37","0","243"
"6","6","retrieval","old_objects","337","Quartz.jpg","37","0","224"
"6","6","retrieval","new_objects","338","Jar_Capers.jpg","37","1","349"
"6","6","retrieval","old_objects","339","Stamp.jpg","37","0","262"
"6","6","retrieval","new_objects","340","DryingMachine.jpg","36","0","66"
"6","6","retrieval","old_objects","341","Bottle_Specimen.jpg","36","1","294"
"6","6","retrieval","old_objects","342","Toy_TrailerAirport.jpg","36","1","257"
"6","6","retrieval","old_objects","343","Toy_RobotClassic.jpg","37","0","45"
"6","6","retrieval","new_objects","344","Tape_Washi.jpg","37","1","338"
"6","6","retrieval","new_objects","345","SolderingIron.jpg","37","1","219"
"6","6","retrieval","new_objects","346","CarJack.jpg","37","1","329"
"6","6","retrieval","new_objects","347","Squash_Pumpkin.jpg","37","1","226"
"6","6","retrieval","old_objects","348","Bag_String.jpg","37","0","272"
"6","6","retrieval","new_objects","349","Hat_Party.jpg","37","1","59"
"6","6","retrieval","new_objects","350","Barrel_Upright.jpg","37","1","271"
"6","6","retrieval","old_objects","351","Pot_Cooking.jpg","36","1","219"
"6","6","retrieval","new_objects","352","HairClipper.jpg","37","1","137"
"6","6","retrieval","new_objects","353","Brush_Shoe.jpg","37","1","298"
"6","6","retrieval","old_objects","354","Kangaroo_WithJoey.jpg","37","0","101"
"6","6","retrieval","new_objects","355","Pants_Jeans.jpg","36","0","88"
"6","6","demographics_block","gender","1","Pants_Jeans.jpg","male","1","19379"
"6","6","demographics_block","age","1","Pants_Jeans.jpg","35","1","19379"
"6","6","demographics_block","education","1","Pants_Jeans.jpg","15","1","19379"
"6","6","demographics_block","left_right_handed","2","Pants_Jeans.jpg","Right","1","12185"
"6","6","demographics_block","raceoption1","2","Pants_Jeans.jpg","","1","12185"
"6","6","demographics_block","raceoption2","2","Pants_Jeans.jpg","","1","12185"
"6","6","demographics_block","raceoption3","2","Pants_Jeans.jpg","","1","12185"
"6","6","demographics_block","raceoption4","2","Pants_Jeans.jpg","","1","12185"
"6","6","demographics_block","raceoption5","2","Pants_Jeans.jpg","","1","12185"
"6","6","demographics_block","raceoption6","2","Pants_Jeans.jpg","5","1","12185"
"6","6","demographics_block","raceoption7","2","Pants_Jeans.jpg","","1","12185"
"6","6","demographics_block","raceoption8","2","Pants_Jeans.jpg","","1","12185"
"6","6","demographics_block","raceoption9","2","Pants_Jeans.jpg","","1","12185"
"6","6","demographics_block","raceother","2","Pants_Jeans.jpg","","1","12185"
"6","6","demographics_block","raceother","2","Pants_Jeans.jpg","","1","12185"
"6","6","demographics_block","english_language","2","Pants_Jeans.jpg","Yes","1","12185"
"6","6","demographics_block","english_languageother","2","Pants_Jeans.jpg","","1","12185"
"6","6","demographics_block","eyesight","3","Pants_Jeans.jpg","Yes","1","12956"
"6","6","demographics_block","colorblind","3","Pants_Jeans.jpg","No","1","12956"
"6","6","worker_id_block","worker_id_textbox","1","Pants_Jeans.jpg","","1","73726"
"8","8","encoding","encoding","1","Mug_Travel.jpg","36","0","1270"
"8","8","encoding","encoding","2","Dresser.jpg","36","0","1024"
"8","8","encoding","encoding","3","Hotdog_Weiner.jpg","37","0","1389"
"8","8","encoding","encoding","4","Egg_Chocolate.jpg","36","0","1234"
"8","8","encoding","encoding","5","Toy_Chameleon.jpg","37","0","1206"
"8","8","encoding","encoding","6","Stick_Honey.jpg","36","0","1320"
"8","8","encoding","encoding","7","Cane_Metal.jpg","37","0","1321"
"8","8","encoding","encoding","8","Mirror_Handheld.jpg","36","0","1234"
"8","8","encoding","encoding","9","Tube_Paint.jpg","36","0","1318"
"8","8","encoding","encoding","10","Fortress.jpg","37","0","1242"
"8","8","encoding","encoding","11","Bag_Toiletry.jpg","36","0","1024"
"8","8","encoding","encoding","12","Artichoke.jpg","37","0","1205"
"8","8","encoding","encoding","13","NetButterfly.jpg","37","0","1392"
"8","8","encoding","encoding","14","Pliers_ViceGrip.jpg","37","0","1019"
"8","8","encoding","encoding","15","Toy_RobotClassic.jpg","36","0","986"
"8","8","encoding","encoding","16","Clock_Grandfather.jpg","36","0","1021"
"8","8","encoding","encoding","17","Mitt_Oven.jpg","36","0","1131"
"8","8","encoding","encoding","18","Rope_Manila.jpg","37","0","1156"
"8","8","encoding","encoding","19","Stove_Portable.jpg","36","0","1004"
"8","8","encoding","encoding","20","Jug_Wicker.jpg","36","0","1121"
"8","8","encoding","encoding","21","Jacks.jpg","36","0","1072"
"8","8","encoding","encoding","22","Camel_Dromedary.jpg","37","0","940"
"8","8","encoding","encoding","23","Toy_BlocksWoodenPlain.jpg","36","0","1289"
"8","8","encoding","encoding","24","Stick_IceHockey.jpg","36","0","923"
"8","8","encoding","encoding","25","Colosseum.jpg","37","0","1382"
"8","8","encoding","encoding","26","SledgeHammer.jpg","37","0","968"
"8","8","encoding","encoding","27","Leaf_Green.jpg","37","0","1120"
"8","8","encoding","encoding","28","Hubcap.jpg","37","0","1073"
"8","8","encoding","encoding","29","FloorTile.jpg","36","0","1020"
"8","8","encoding","encoding","30","House_Rural.jpg","37","0","1132"
"8","8","encoding","encoding","31","Box_Jewellery.jpg","36","0","1090"
"8","8","encoding","encoding","32","Candy_Lozenge.jpg","36","0","823"
"8","8","encoding","encoding","33","Can_Olives.jpg","36","0","940"
"8","8","encoding","encoding","34","Jacket_Suit.jpg","36","0","1925"
"8","8","encoding","encoding","35","LifeJacket_Orangejpg.jpg","37","0","1358"
"8","8","encoding","encoding","36","StringBean.jpg","36","0","972"
"8","8","encoding","encoding","37","Squash_Butternut.jpg","37","0","872"
"8","8","encoding","encoding","38","WateringCan_PlasticDarkGreen.jpg","37","0","768"
"8","8","encoding","encoding","39","Cake_Cheese.jpg","36","0","1754"
"8","8","encoding","encoding","40","Suit_Women.jpg","36","0","1318"
"8","8","encoding","encoding","41","Booth_Carnival.jpg","36","0","937"
"8","8","encoding","encoding","42","Quartz.jpg","37","0","1106"
"8","8","encoding","encoding","43","CandleSnuffer.jpg","36","0","1575"
"8","8","encoding","encoding","44","Toy_Lizard.jpg","37","0","1739"
"8","8","encoding","encoding","45","Box_WoodenClosed.jpg","36","0","887"
"8","8","encoding","encoding","46","Machine_Bread.jpg","36","0","973"
"8","8","encoding","encoding","47","PeriodicTable.jpg","37","0","1275"
"8","8","encoding","encoding","48","Caterpillar.jpg","37","0","1359"
"8","8","encoding","encoding","49","Ladder.jpg","37","0","1321"
"8","8","encoding","encoding","50","Blanket.jpg","36","0","1252"
"8","8","encoding","encoding","51","Sign_TrafficArrow.jpg","37","0","1452"
"8","8","encoding","encoding","52","DrillBit.jpg","36","0","1271"
"8","8","encoding","encoding","53","Hippopotamus.jpg","37","0","906"
"8","8","encoding","encoding","54","Bottle_Oil.jpg","37","0","1115"
"8","8","encoding","encoding","55","Lens_ColourFilter.jpg","36","0","1119"
"8","8","encoding","encoding","56","Drink_Cocktail.jpg","36","0","1206"
"8","8","encoding","encoding","57","LintRemover.jpg","37","0","1240"
"8","8","encoding","encoding","58","Foam_Accoustic.jpg","36","0","1120"
"8","8","encoding","encoding","59","Boat_Dinghy.jpg","36","0","1112"
"8","8","encoding","encoding","60","Rake_Long.jpg","37","0","873"
"8","8","encoding","encoding","62","Tray_Medical.jpg","36","0","1024"
"8","8","encoding","encoding","63","ComputerKeyboard.jpg","36","0","837"
"8","8","encoding","encoding","64","Chair_Dining.jpg","37","0","1154"
"8","8","encoding","encoding","65","PowerDoorPushButton.jpg","36","0","970"
"8","8","encoding","encoding","66","Barometer_Wood.jpg","36","0","1172"
"8","8","encoding","encoding","67","Candleholder_LampShaped.jpg","37","0","1020"
"8","8","encoding","encoding","68","Glass_Beer.jpg","36","0","1106"
"8","8","encoding","encoding","69","Tractor_Yellow.jpg","37","0","1120"
"8","8","encoding","encoding","70","Toblerone.jpg","36","0","1202"
"8","8","encoding","encoding","71","GPS.jpg","36","0","1058"
"8","8","encoding","encoding","72","Sink_Kitchen.jpg","37","0","1057"
"8","8","encoding","encoding","73","Barbecue_Charcoal.jpg","37","0","1089"
"8","8","encoding","encoding","74","TelephoneSwitchboard.jpg","36","0","1188"
"8","8","encoding","encoding","75","Ball_Baseball.jpg","37","0","1472"
"8","8","encoding","encoding","76","CigarCase.jpg","36","0","1260"
"8","8","encoding","encoding","77","BicycleHandleGrip.jpg","36","0","1135"
"8","8","encoding","encoding","78","CandyDispenser.jpg","37","0","1242"
"8","8","encoding","encoding","79","HerbsInBag.jpg","37","0","1108"
"8","8","encoding","encoding","80","DoorBell.jpg","36","0","1405"
"8","8","encoding","encoding","81","Kangaroo_WithJoey.jpg","37","0","1353"
"8","8","encoding","encoding","82","Toy_Firetruck.jpg","36","0","1553"
"8","8","encoding","encoding","83","ShinPads.jpg","37","0","1410"
"8","8","encoding","encoding","84","Pacifier.jpg","36","0","787"
"8","8","encoding","encoding","85","Bench_Black.jpg","36","0","1218"
"8","8","encoding","encoding","86","EyeChart.jpg","37","0","1185"
"8","8","encoding","encoding","87","Toy_ElephantPlastic.jpg","36","0","1144"
"8","8","encoding","encoding","88","NewspaperStack.jpg","36","0","1254"
"8","8","encoding","encoding","89","Tray_Metal.jpg","36","0","896"
"8","8","encoding","encoding","90","Stationary.jpg","36","0","1386"
"8","8","encoding","encoding","91","ButterDish.jpg","36","0","1470"
"8","8","encoding","encoding","92","RugRoled.jpg","36","0","1198"
"8","8","encoding","encoding","93","Crutches.jpg","36","0","1141"
"8","8","encoding","encoding","94","Bottle_Blue.jpg","37","0","1186"
"8","8","encoding","encoding","95","PylonTraffic.jpg","37","0","1206"
"8","8","encoding","encoding","96","Bag_String.jpg","36","0","1001"
"8","8","encoding","encoding","97","Fridge.jpg","36","0","1504"
"8","8","encoding","encoding","98","Steamer.jpg","36","0","1020"
"8","8","encoding","encoding","99","Paddle_Ball.jpg","37","0","1388"
"8","8","encoding","encoding","100","Stamp.jpg","36","0","1157"
"8","8","encoding","encoding","101","PlayerFootball.jpg","37","0","1538"
"8","8","encoding","encoding","102","EspressoMachine.jpg","36","0","1807"
"8","8","encoding","encoding","103","Mat_Door.jpg","36","0","1226"
"8","8","encoding","encoding","104","Comb.jpg","36","0","941"
"8","8","encoding","encoding","105","Cantaloupe.jpg","37","0","1270"
"8","8","encoding","encoding","106","Buffalo.jpg","37","0","768"
"8","8","encoding","encoding","107","Gum_Pack.jpg","36","0","1021"
"8","8","encoding","encoding","108","CashRegister_Antique.jpg","36","0","906"
"8","8","encoding","encoding","109","Boots_KneeHigh.jpg","36","0","1070"
"8","8","encoding","encoding","110","Ball_Tennis.jpg","37","0","1306"
"8","8","encoding","encoding","111","VinylRecord.jpg","36","0","1533"
"8","8","encoding","encoding","112","Locomotive.jpg","36","0","1198"
"8","8","encoding","encoding","113","Horn_French.jpg","36","0","1085"
"8","8","encoding","encoding","114","ShoeLace_Flat.jpg","36","0","1270"
"8","8","encoding","encoding","115","Scroll.jpg","36","0","954"
"8","8","encoding","encoding","116","Hourglass.jpg","36","0","1304"
"8","8","encoding","encoding","117","Toy_DonkeyPlastic.jpg","37","0","889"
"8","8","encoding","encoding","118","TissueBox.jpg","36","0","1170"
"8","8","encoding","encoding","119","Hammer.jpg","36","0","1374"
"8","8","encoding","encoding","120","Megaphone.jpg","36","0","1073"
"8","8","encoding","encoding","121","Toy_TrailerAirport.jpg","36","0","989"
"8","8","encoding","encoding","123","Olives.jpg","37","0","986"
"8","8","encoding","encoding","124","Candy_Toffee.jpg","36","0","1056"
"8","8","encoding","encoding","125","VacuumHandheld.jpg","36","0","1288"
"8","8","encoding","encoding","126","Bucket_WoodenLight.jpg","37","0","1189"
"8","8","encoding","encoding","127","Helmet_Football.jpg","37","0","1123"
"8","8","encoding","encoding","128","Pretzel_Knot.jpg","36","0","1037"
"8","8","encoding","encoding","129","Pouch_Red.jpg","36","0","1054"
"8","8","encoding","encoding","130","Sandwich_Ham.jpg","36","0","1008"
"8","8","encoding","encoding","131","ChocolateBar_HalfUnwrapped.jpg","36","0","874"
"8","8","encoding","encoding","132","Generator.jpg","37","0","1142"
"8","8","encoding","encoding","133","PickupTruck.jpg","37","0","814"
"8","8","encoding","encoding","134","Stool_Metal.jpg","37","0","1438"
"8","8","encoding","encoding","135","Vase_Decorative.jpg","36","0","1068"
"8","8","encoding","encoding","136","Flower_Tulip.jpg","37","0","836"
"8","8","encoding","encoding","137","Ferret.jpg","37","0","975"
"8","8","encoding","encoding","138","Instrument_African.jpg","36","0","1389"
"8","8","encoding","encoding","139","Bowl_Sugar.jpg","36","0","1019"
"8","8","encoding","encoding","140","ChiliFlakes.jpg","36","0","1190"
"8","8","encoding","encoding","141","Toy_Rooster.jpg","37","0","1420"
"8","8","encoding","encoding","142","Cooler.jpg","0","0","2000"
"8","8","encoding","encoding","143","Bag_PaperWithFlour.jpg","36","0","1354"
"8","8","encoding","encoding","144","Bottle_Specimen.jpg","37","0","1009"
"8","8","encoding","encoding","145","MetalDetector.jpg","37","0","1108"
"8","8","encoding","encoding","146","Bowl_Chopsticks.jpg","36","0","1173"
"8","8","encoding","encoding","147","Hat_Hard.jpg","37","0","1208"
"8","8","encoding","encoding","148","Tray_Muffin.jpg","36","0","1020"
"8","8","encoding","encoding","149","Stool_Foot.jpg","36","0","986"
"8","8","encoding","encoding","150","Pillow_Plaid.jpg","37","0","1318"
"8","8","encoding","encoding","151","Scooter.jpg","36","0","1207"
"8","8","encoding","encoding","152","Statue_Cat.jpg","36","0","790"
"8","8","encoding","encoding","153","CookieCutter_Bell.jpg","37","0","1341"
"8","8","encoding","encoding","154","Domino.jpg","36","0","1339"
"8","8","encoding","encoding","155","RibbonSpool.jpg","37","0","1169"
"8","8","encoding","encoding","156","PulleyWooden.jpg","36","0","1132"
"8","8","encoding","encoding","157","Steeple.jpg","37","0","1136"
"8","8","encoding","encoding","158","Cake_Wedding.jpg","36","0","1308"
"8","8","encoding","encoding","159","Dragonfly.jpg","37","0","1289"
"8","8","encoding","encoding","160","Fencing_HelmetSwords.jpg","36","0","1536"
"8","8","encoding","encoding","161","Puffin.jpg","37","0","1222"
"8","8","encoding","encoding","162","PumpBreast.jpg","36","0","1073"
"8","8","encoding","encoding","163","BumperCar.jpg","37","0","1686"
"8","8","encoding","encoding","164","Table_Poker.jpg","36","0","1139"
"8","8","encoding","encoding","165","Gloves_Bicycle.jpg","37","0","1124"
"8","8","encoding","encoding","166","PowderProtein.jpg","36","0","1236"
"8","8","encoding","encoding","167","Strainer_Tea.jpg","37","0","1272"
"8","8","encoding","encoding","168","Stovetop.jpg","36","0","1186"
"8","8","encoding","encoding","169","Nuts_Pecan.jpg","36","0","1221"
"8","8","encoding","encoding","170","Sandcastle.jpg","37","0","1265"
"8","8","encoding","encoding","171","Pot_Cooking.jpg","36","0","1168"
"8","8","encoding","encoding","172","Guacamole.jpg","36","0","1209"
"8","8","encoding","encoding","173","Yarmulke.jpg","36","0","684"
"8","8","encoding","encoding","174","Clothespin_Red.jpg","37","0","1125"
"8","8","encoding","encoding","175","Chipmunk.jpg","37","0","971"
"8","8","encoding","encoding","176","Bag_Satchel.jpg","36","0","857"
"8","8","encoding","encoding","177","ManholeCover.jpg","37","0","1186"
"8","8","retrieval","new_objects","1","HairDryer.jpg","36","0","1393"
"8","8","retrieval","old_objects","2","LintRemover.jpg","36","1","1123"
"8","8","retrieval","new_objects","3","Helmet_Bicycle.jpg","37","1","1120"
"8","8","retrieval","new_objects","4","DonaldDuck_Toy.jpg","37","1","1609"
"8","8","retrieval","old_objects","5","Statue_Cat.jpg","36","1","1057"
"8","8","retrieval","new_objects","6","FileFolder.jpg","37","1","1752"
"8","8","retrieval","old_objects","7","Domino.jpg","36","1","1349"
"8","8","retrieval","old_objects","8","Dragonfly.jpg","36","1","1190"
"8","8","retrieval","old_objects","9","Stick_Honey.jpg","36","1","1089"
"8","8","retrieval","old_objects","10","Candy_Lozenge.jpg","36","1","823"
"8","8","retrieval","new_objects","11","Carabiner_Orange.jpg","37","1","1023"
"8","8","retrieval","old_objects","12","CigarCase.jpg","36","1","973"
"8","8","retrieval","old_objects","13","Hat_Hard.jpg","36","1","1520"
"8","8","retrieval","old_objects","14","GPS.jpg","36","1","1107"
"8","8","retrieval","old_objects","15","Artichoke.jpg","36","1","1186"
"8","8","retrieval","old_objects","16","Steamer.jpg","36","1","1183"
"8","8","retrieval","new_objects","17","Mask_VenetianLongNose.jpg","37","1","973"
"8","8","retrieval","new_objects","18","WaterColorPaintset.jpg","37","1","1125"
"8","8","retrieval","new_objects","19","Computer_ExpansionCard.jpg","37","1","985"
"8","8","retrieval","old_objects","20","Ball_Tennis.jpg","36","1","1003"
"8","8","retrieval","old_objects","21","Pot_Cooking.jpg","36","1","818"
"8","8","retrieval","new_objects","22","Radio_Modern.jpg","37","1","1102"
"8","8","retrieval","old_objects","23","Sink_Kitchen.jpg","36","1","1120"
"8","8","retrieval","old_objects","24","Steeple.jpg","36","1","925"
"8","8","retrieval","old_objects","25","Bottle_Blue.jpg","36","1","950"
"8","8","retrieval","new_objects","26","Toolbox_BlackOpen.jpg","37","1","1155"
"8","8","retrieval","old_objects","27","Horn_French.jpg","36","1","1269"
"8","8","retrieval","new_objects","28","Ruler_Digital.jpg","37","1","1073"
"8","8","retrieval","old_objects","29","Caterpillar.jpg","36","1","955"
"8","8","retrieval","new_objects","30","RiceRaw.jpg","37","1","1032"
"8","8","retrieval","old_objects","31","Paddle_Ball.jpg","36","1","1004"
"8","8","retrieval","new_objects","32","Bible.jpg","36","0","1786"
"8","8","retrieval","new_objects","33","IceCubes copy.jpg","37","1","1053"
"8","8","retrieval","old_objects","34","Strainer_Tea.jpg","36","1","935"
"8","8","retrieval","old_objects","35","Scroll.jpg","36","1","1552"
"8","8","retrieval","old_objects","36","Bag_PaperWithFlour.jpg","37","0","985"
"8","8","retrieval","new_objects","37","Statue_Jesus.jpg","37","1","857"
"8","8","retrieval","new_objects","38","Pipe_Drain.jpg","37","1","923"
"8","8","retrieval","old_objects","39","Puffin.jpg","36","1","1453"
"8","8","retrieval","new_objects","40","Defribrillator.jpg","0","0","2000"
"8","8","retrieval","old_objects","41","Hippopotamus.jpg","37","0","970"
"8","8","retrieval","old_objects","42","PowerDoorPushButton.jpg","36","1","892"
"8","8","retrieval","new_objects","43","Shoes_WomenBoots.jpg","37","1","1098"
"8","8","retrieval","old_objects","44","TelephoneSwitchboard.jpg","36","1","1370"
"8","8","retrieval","old_objects","45","Bag_String.jpg","36","1","900"
"8","8","retrieval","new_objects","46","ClothesDryingRack.jpg","37","1","1038"
"8","8","retrieval","old_objects","47","Foam_Accoustic.jpg","36","1","1107"
"8","8","retrieval","new_objects","48","Garlic_Clove.jpg","37","1","1072"
"8","8","retrieval","old_objects","49","Vase_Decorative.jpg","36","1","1115"
"8","8","retrieval","old_objects","50","Gum_Pack.jpg","36","1","818"
"8","8","retrieval","old_objects","51","Ladder.jpg","36","1","1085"
"8","8","retrieval","old_objects","52","LifeJacket_Orangejpg.jpg","37","0","1039"
"8","8","retrieval","new_objects","53","FlipFlop_PairBlue.jpg","37","1","902"
"8","8","retrieval","old_objects","54","Lens_ColourFilter.jpg","36","1","938"
"8","8","retrieval","new_objects","55","DryingMachine.jpg","36","0","1284"
"8","8","retrieval","new_objects","56","Hotdog_WithBun.jpg","37","1","1424"
"8","8","retrieval","new_objects","57","Cornucopia.jpg","37","1","1257"
"8","8","retrieval","old_objects","58","ChocolateBar_HalfUnwrapped.jpg","36","1","885"
"8","8","retrieval","new_objects","59","Tiara.jpg","37","1","1035"
"8","8","retrieval","old_objects","60","Mat_Door.jpg","36","1","986"
"8","8","retrieval","new_objects","62","Cracker_Saltine.jpg","36","0","1083"
"8","8","retrieval","old_objects","63","FloorTile.jpg","36","1","823"
"8","8","retrieval","old_objects","64","Fencing_HelmetSwords.jpg","37","0","1421"
"8","8","retrieval","new_objects","65","Dolly.jpg","37","1","1206"
"8","8","retrieval","old_objects","66","Hammer.jpg","36","1","853"
"8","8","retrieval","old_objects","67","TissueBox.jpg","36","1","1353"
"8","8","retrieval","new_objects","68","Box_FirstAidOpen.jpg","36","0","1309"
"8","8","retrieval","old_objects","69","Nuts_Pecan.jpg","36","1","1069"
"8","8","retrieval","old_objects","70","Cake_Cheese.jpg","37","0","1107"
"8","8","retrieval","new_objects","71","Walkman.jpg","37","1","1404"
"8","8","retrieval","new_objects","72","TeethMould.jpg","36","0","1207"
"8","8","retrieval","old_objects","73","Cane_Metal.jpg","0","0","2000"
"8","8","retrieval","old_objects","74","Toy_DonkeyPlastic.jpg","36","1","1625"
"8","8","retrieval","old_objects","75","Table_Poker.jpg","36","1","971"
"8","8","retrieval","old_objects","76","Boots_KneeHigh.jpg","37","0","919"
"8","8","retrieval","new_objects","77","Toy_RabbitPlushie.jpg","37","1","1118"
"8","8","retrieval","new_objects","78","Mirror_Makeup.jpg","37","1","1103"
"8","8","retrieval","new_objects","79","Dreamcatcher.jpg","37","1","1073"
"8","8","retrieval","old_objects","80","Toy_Firetruck.jpg","36","1","971"
"8","8","retrieval","old_objects","81","Mirror_Handheld.jpg","36","1","1233"
"8","8","retrieval","old_objects","82","EspressoMachine.jpg","36","1","1287"
"8","8","retrieval","old_objects","83","Clothespin_Red.jpg","36","1","706"
"8","8","retrieval","old_objects","84","Bottle_Oil.jpg","36","1","688"
"8","8","retrieval","new_objects","85","LightBulb_Christmas.jpg","37","1","1003"
"8","8","retrieval","new_objects","86","Camera_Security.jpg","37","1","772"
"8","8","retrieval","new_objects","87","Jack.jpg","37","1","902"
"8","8","retrieval","new_objects","88","Eraser.jpg","37","1","902"
"8","8","retrieval","new_objects","89","Gun_Glue.jpg","37","1","898"
"8","8","retrieval","old_objects","90","Glass_Beer.jpg","37","0","1285"
"8","8","retrieval","old_objects","91","Candy_Toffee.jpg","36","1","1056"
"8","8","retrieval","new_objects","92","RollerBlade.jpg","37","1","1169"
"8","8","retrieval","old_objects","93","Tractor_Yellow.jpg","37","0","1074"
"8","8","retrieval","new_objects","94","Earrings_Dangling.jpg","37","1","1309"
"8","8","retrieval","old_objects","95","Cantaloupe.jpg","36","1","1042"
"8","8","retrieval","old_objects","96","Toblerone.jpg","36","1","1170"
"8","8","retrieval","new_objects","97","Pear_Yellow.jpg","37","1","1587"
"8","8","retrieval","new_objects","98","CinderBlock.jpg","37","1","987"
"8","8","retrieval","new_objects","99","Knee.jpg","37","1","1198"
"8","8","retrieval","old_objects","100","Pouch_Red.jpg","36","1","1298"
"8","8","retrieval","old_objects","101","Pliers_ViceGrip.jpg","36","1","653"
"8","8","retrieval","new_objects","102","Shark_Hammerhead.jpg","37","1","999"
"8","8","retrieval","new_objects","103","Bird_Toucan.jpg","37","1","975"
"8","8","retrieval","old_objects","104","PlayerFootball.jpg","37","0","1120"
"8","8","retrieval","old_objects","105","ComputerKeyboard.jpg","36","1","1171"
"8","8","retrieval","old_objects","106","Bench_Black.jpg","36","1","869"
