"group","subject","blockcode","trialcode","trialnum","values.stimulus","response","correct","latency"
"5","5","encoding","encoding","1","Slide.jpg","37","0","930"
"5","5","encoding","encoding","2","Dog_CockerSpaniel.jpg","36","0","1113"
"5","5","encoding","encoding","3","Bomb.jpg","37","0","1136"
"5","5","encoding","encoding","4","Shoes_Snowboarding.jpg","36","0","1159"
"5","5","encoding","encoding","5","Toaster_Antique.jpg","36","0","1103"
"5","5","encoding","encoding","6","ComputerMouse.jpg","36","0","582"
"5","5","encoding","encoding","7","DrinkingFountain.jpg","37","0","1213"
"5","5","encoding","encoding","8","MovieSlate.jpg","36","0","1140"
"5","5","encoding","encoding","9","Radish.jpg","37","0","1068"
"5","5","encoding","encoding","10","Shoes_Mould.jpg","36","0","1203"
"5","5","encoding","encoding","11","Telephone_DialAntique.jpg","36","0","554"
"5","5","encoding","encoding","12","Noisemaker_Streamers.jpg","36","0","673"
"5","5","encoding","encoding","13","Tetrahedron.jpg","36","0","744"
"5","5","encoding","encoding","14","PillBottle_Prescription.jpg","36","0","720"
"5","5","encoding","encoding","15","Fan_Straw.jpg","37","0","1079"
"5","5","encoding","encoding","16","Clamp_Screw.jpg","37","0","1118"
"5","5","encoding","encoding","17","Chicken_Raw.jpg","36","0","981"
"5","5","encoding","encoding","18","Ruler_Wooden.jpg","36","0","1069"
"5","5","encoding","encoding","19","Flute_Wooden.jpg","36","0","1412"
"5","5","encoding","encoding","20","Bag_Computer.jpg","36","0","635"
"5","5","encoding","encoding","21","Platter_Vegetables.jpg","36","0","786"
"5","5","encoding","encoding","22","Spoons_MeasuringDetached.jpg","36","0","1002"
"5","5","encoding","encoding","23","Broccoli.jpg","36","0","849"
"5","5","encoding","encoding","24","DoorKnob.jpg","36","0","696"
"5","5","encoding","encoding","25","Corn.jpg","37","0","1071"
"5","5","encoding","encoding","26","Broom_Short.jpg","36","0","1014"
"5","5","encoding","encoding","27","Lei.jpg","37","0","1262"
"5","5","encoding","encoding","28","Archery_Arrows.jpg","37","0","1189"
"5","5","encoding","encoding","29","Loofa.jpg","36","0","844"
"5","5","encoding","encoding","30","Table_AntiqueWooden.jpg","36","0","867"
"5","5","encoding","encoding","31","Helmet_Construction.jpg","37","0","1099"
"5","5","encoding","encoding","32","Puzzle_Animal.jpg","36","0","930"
"5","5","encoding","encoding","33","TowelRack_Metal.jpg","36","0","1065"
"5","5","encoding","encoding","34","Grill_Electric.jpg","36","0","912"
"5","5","encoding","encoding","35","RecorderInstrument.jpg","36","0","792"
"5","5","encoding","encoding","36","Milkshake_StrawberryStraw.jpg","36","0","623"
"5","5","encoding","encoding","37","Bag_Gym.jpg","36","0","1014"
"5","5","encoding","encoding","38","Instrument_Guiro.jpg","37","0","1229"
"5","5","encoding","encoding","39","Toy_BearBrownPlushie.jpg","36","0","884"
"5","5","encoding","encoding","40","BicycleChain.jpg","37","0","972"
"5","5","encoding","encoding","41","Cinnamonroll.jpg","36","0","835"
"5","5","encoding","encoding","42","Cord_Ethernet.jpg","36","0","826"
"5","5","encoding","encoding","43","Toy_BlocksLetter.jpg","36","0","1089"
"5","5","encoding","encoding","44","Tickets_Blank.jpg","36","0","808"
"5","5","encoding","encoding","45","Toolbox_Old.jpg","37","0","1344"
"5","5","encoding","encoding","46","Doll_Rag.jpg","36","0","775"
"5","5","encoding","encoding","47","BookShelf.jpg","36","0","654"
"5","5","encoding","encoding","48","Toy_Lighthouse.jpg","36","0","1030"
"5","5","encoding","encoding","49","Almond.jpg","37","0","1597"
"5","5","encoding","encoding","50","Gecko.jpg","37","0","884"
"5","5","encoding","encoding","51","Toy_RockingHorseBlack.jpg","36","0","1467"
"5","5","encoding","encoding","52","Cannon.jpg","37","0","770"
"5","5","encoding","encoding","53","Ball_Bowling.jpg","36","0","921"
"5","5","encoding","encoding","54","Level.jpg","37","0","992"
"5","5","encoding","encoding","55","Cabinet_Office.jpg","37","0","1416"
"5","5","encoding","encoding","56","ShoppingCart.jpg","36","0","1551"
"5","5","encoding","encoding","57","Piano_Upright.jpg","36","0","998"
"5","5","encoding","encoding","58","Bowl_Fruits.jpg","36","0","717"
"5","5","encoding","encoding","59","Clip_Paper.jpg","36","0","805"
"5","5","encoding","encoding","60","Airplane_Commercial.jpg","37","0","780"
"5","5","encoding","encoding","62","Lock_Door.jpg","36","0","1076"
"5","5","encoding","encoding","63","Toy_DollHomeMade.jpg","36","0","907"
"5","5","encoding","encoding","64","Door_Green.jpg","37","0","914"
"5","5","encoding","encoding","65","Glass_bottle.jpg","36","0","1178"
"5","5","encoding","encoding","66","Watch.jpg","36","0","1121"
"5","5","encoding","encoding","67","Statue_ManHorse.jpg","36","0","696"
"5","5","encoding","encoding","68","Can_Peas.jpg","36","0","1247"
"5","5","encoding","encoding","69","Envelope_Letter.jpg","36","0","1046"
"5","5","encoding","encoding","70","Machine_Arm.jpg","36","0","1198"
"5","5","encoding","encoding","71","Thermostat.jpg","36","0","1093"
"5","5","encoding","encoding","72","Card_Deck.jpg","36","0","876"
"5","5","encoding","encoding","73","Owl.jpg","37","0","691"
"5","5","encoding","encoding","74","Lantern_Chinese.jpg","36","0","922"
"5","5","encoding","encoding","75","ChariotGold.jpg","37","0","1202"
"5","5","encoding","encoding","76","Shovel_Garden.jpg","37","0","953"
"5","5","encoding","encoding","77","Shoe_WomenHeals.jpg","36","0","1376"
"5","5","encoding","encoding","78","Cheesegrater_Handheld.jpg","36","0","1047"
"5","5","encoding","encoding","79","Carousel.jpg","36","0","766"
"5","5","encoding","encoding","80","Bottle_Spray.jpg","36","0","982"
"5","5","encoding","encoding","81","Nail.jpg","37","0","1005"
"5","5","encoding","encoding","82","SaltShaker.jpg","36","0","868"
"5","5","encoding","encoding","83","Dart.jpg","36","0","1340"
"5","5","encoding","encoding","84","Chicken_FriedWing.jpg","36","0","819"
"5","5","encoding","encoding","85","Sign_Caution.jpg","36","0","839"
"5","5","encoding","encoding","86","Stapler_Gun.jpg","36","0","1009"
"5","5","encoding","encoding","87","Clock_Wall.jpg","36","0","681"
"5","5","encoding","encoding","88","Notepad.jpg","36","0","768"
"5","5","encoding","encoding","89","Crayon_Green.jpg","36","0","871"
"5","5","encoding","encoding","90","Monitor.jpg","36","0","654"
"5","5","encoding","encoding","91","Awning.jpg","37","0","757"
"5","5","encoding","encoding","92","Umbrella_Classic.jpg","36","0","1517"
"5","5","encoding","encoding","93","Bag_Doctor.jpg","36","0","1220"
"5","5","encoding","encoding","94","Switch_LightWhite.jpg","36","0","987"
"5","5","encoding","encoding","95","Bottle_Wine.jpg","36","0","770"
"5","5","encoding","encoding","96","Desk_Office.jpg","36","0","650"
"5","5","encoding","encoding","97","Otoscope.jpg","36","0","1025"
"5","5","encoding","encoding","98","Fish_Swordfish.jpg","37","0","728"
"5","5","encoding","encoding","99","Gametable_AirHockey.jpg","36","0","1007"
"5","5","encoding","encoding","100","MonkeyPuppet.jpg","36","0","934"
"5","5","encoding","encoding","101","Lantern_Tea.jpg","37","0","1102"
"5","5","encoding","encoding","102","SkiPoles.jpg","37","0","805"
"5","5","encoding","encoding","103","FlipFlop_SingleRed.jpg","36","0","1212"
"5","5","encoding","encoding","104","Table_Side.jpg","36","0","1091"
"5","5","encoding","encoding","105","WalkieTalkie_Yellow.jpg","37","0","1258"
"5","5","encoding","encoding","106","Toy_Ladybug.jpg","36","0","866"
"5","5","encoding","encoding","107","BowlingPin.jpg","36","0","1177"
"5","5","encoding","encoding","108","Pancakes.jpg","36","0","704"
"5","5","encoding","encoding","109","Steamroller.jpg","37","0","807"
"5","5","encoding","encoding","110","LifeJacket_BlueYellow.jpg","37","0","879"
"5","5","encoding","encoding","111","Bells_Christmas.jpg","36","0","1174"
"5","5","encoding","encoding","112","PeasSplit.jpg","36","0","1149"
"5","5","encoding","encoding","113","Toolbox_Red.jpg","37","0","900"
"5","5","encoding","encoding","114","PictureFrame.jpg","36","0","891"
"5","5","encoding","encoding","115","Shirt_SportsJersey.jpg","36","0","1219"
"5","5","encoding","encoding","116","Horn_Hunting.jpg","36","0","1162"
"5","5","encoding","encoding","117","Golf_Club.jpg","37","0","961"
"5","5","encoding","encoding","118","DrawingCompass.jpg","36","0","1512"
"5","5","encoding","encoding","119","Drum_Bongos.jpg","36","0","1024"
"5","5","encoding","encoding","120","Honeycomb.jpg","37","0","999"
"5","5","encoding","encoding","121","Briefcase_Open.jpg","36","0","910"
"5","5","encoding","encoding","123","Leaf_Yellow.jpg","37","0","861"
"5","5","encoding","encoding","124","Toy_GasPump.jpg","37","0","836"
"5","5","encoding","encoding","125","Deodorant.jpg","36","0","1275"
"5","5","encoding","encoding","126","Lilypad.jpg","37","0","994"
"5","5","encoding","encoding","127","Oven.jpg","36","0","730"
"5","5","encoding","encoding","128","Lens_Camera.jpg","36","0","785"
"5","5","encoding","encoding","129","IceCream_Popsicle.jpg","36","0","824"
"5","5","encoding","encoding","130","ShakerShekere.jpg","36","0","1231"
"5","5","encoding","encoding","131","Dress_Party.jpg","36","0","806"
"5","5","encoding","encoding","132","ScrewDriver.jpg","37","0","622"
"5","5","encoding","encoding","133","Exercise_HandTrainer.jpg","36","0","981"
"5","5","encoding","encoding","134","DrinkShaker.jpg","36","0","988"
"5","5","encoding","encoding","135","TelescopeSpacecraft.jpg","37","0","1076"
"5","5","encoding","encoding","136","Weathervane.jpg","37","0","826"
"5","5","encoding","encoding","137","Sign_HumpBridgeAhead.jpg","37","0","754"
"5","5","encoding","encoding","138","Flower_Basket.jpg","37","0","777"
"5","5","encoding","encoding","139","Mailbox_Community.jpg","37","0","768"
"5","5","encoding","encoding","140","Drink_Green.jpg","36","0","1032"
"5","5","encoding","encoding","141","Tambourine.jpg","36","0","1294"
"5","5","encoding","encoding","142","Brush_Toilet.jpg","36","0","902"
"5","5","encoding","encoding","143","Lectern.jpg","36","0","1213"
"5","5","encoding","encoding","144","Diode.jpg","37","0","1124"
"5","5","encoding","encoding","145","Snake_Cobra.jpg","37","0","795"
"5","5","encoding","encoding","146","Clock_Digital.jpg","36","0","835"
"5","5","encoding","encoding","147","Brush_Shaving.jpg","36","0","954"
"5","5","encoding","encoding","148","NailPolish.jpg","36","0","801"
"5","5","encoding","encoding","149","Escalator.jpg","36","0","920"
"5","5","encoding","encoding","150","KiddiePool.jpg","37","0","784"
"5","5","encoding","encoding","151","Stick_Bridge.jpg","37","0","1015"
"5","5","encoding","encoding","152","Lock_Bike.jpg","37","0","1246"
"5","5","encoding","encoding","153","Lollipop_Rainbow.jpg","37","0","1302"
"5","5","encoding","encoding","154","CoinRolls.jpg","36","0","1101"
"5","5","encoding","encoding","155","Camera_ProfessionalFilm.jpg","36","0","1300"
"5","5","encoding","encoding","156","PassionFruit.jpg","36","0","1083"
"5","5","encoding","encoding","157","Ruler_Metal.jpg","36","0","882"
"5","5","encoding","encoding","158","Shield_Antique.jpg","36","0","810"
"5","5","encoding","encoding","159","Scorpion.jpg","37","0","945"
"5","5","encoding","encoding","160","PizzaCutter.jpg","36","0","744"
"5","5","encoding","encoding","161","Toad.jpg","37","0","655"
"5","5","encoding","encoding","162","SkullDeer.jpg","36","0","1127"
"5","5","encoding","encoding","163","LampPost_WhiteOrnate.jpg","37","0","894"
"5","5","encoding","encoding","164","Ball_Football.jpg","37","0","581"
"5","5","encoding","encoding","165","Crib_Standard.jpg","36","0","764"
"5","5","encoding","encoding","166","Statue_Buddha.jpg","36","0","1075"
"5","5","encoding","encoding","167","Shorts_Plaid.jpg","36","0","811"
"5","5","encoding","encoding","168","Screw.jpg","37","0","738"
"5","5","encoding","encoding","169","Toy_Octopus.jpg","36","0","1145"
"5","5","encoding","encoding","170","SatelliteDish.jpg","37","0","1024"
"5","5","encoding","encoding","171","SculptureMetalFish.jpg","36","0","1239"
"5","5","encoding","encoding","172","Sieve_TopView.jpg","36","0","975"
"5","5","encoding","encoding","173","Light_PostIsolated.jpg","37","0","982"
"5","5","encoding","encoding","174","PatioHeater.jpg","37","0","877"
"5","5","encoding","encoding","175","Rock_Agate.jpg","36","0","1476"
"5","5","encoding","encoding","176","WaterWell.jpg","37","0","892"
"5","5","encoding","encoding","177","Bandage_Adhesive.jpg","36","0","1443"
"5","5","retrieval","new_objects","1","GranolaBar.jpg","37","1","748"
"5","5","retrieval","old_objects","2","Bomb.jpg","36","1","805"
"5","5","retrieval","new_objects","3","Clock_Radio.jpg","36","0","1691"
"5","5","retrieval","old_objects","4","SkullDeer.jpg","36","1","1038"
"5","5","retrieval","old_objects","5","Switch_LightWhite.jpg","36","1","1276"
"5","5","retrieval","new_objects","6","ScannerShoplifting.jpg","37","1","720"
"5","5","retrieval","new_objects","7","Swing_Porch.jpg","37","1","714"
"5","5","retrieval","new_objects","8","Goose_Canadian.jpg","37","1","611"
"5","5","retrieval","old_objects","9","Slide.jpg","37","0","1058"
"5","5","retrieval","new_objects","10","WaterFountain.jpg","37","1","751"
"5","5","retrieval","new_objects","11","CertificateFramed.jpg","37","1","727"
"5","5","retrieval","old_objects","12","Lock_Door.jpg","36","1","753"
"5","5","retrieval","new_objects","13","Candle_ChristmasDecor.jpg","37","1","858"
"5","5","retrieval","old_objects","14","Otoscope.jpg","37","0","1534"
"5","5","retrieval","old_objects","15","Shoe_WomenHeals.jpg","36","1","728"
"5","5","retrieval","new_objects","16","Battery_Car.jpg","37","1","769"
"5","5","retrieval","old_objects","17","Airplane_Commercial.jpg","36","1","1001"
"5","5","retrieval","new_objects","18","TowerEiffel.jpg","37","1","935"
"5","5","retrieval","old_objects","19","Dart.jpg","36","1","793"
"5","5","retrieval","new_objects","20","LeatherPuncherTool.jpg","37","1","864"
"5","5","retrieval","old_objects","21","Dog_CockerSpaniel.jpg","37","0","676"
"5","5","retrieval","old_objects","22","Drum_Bongos.jpg","36","1","1616"
"5","5","retrieval","new_objects","23","Flower_Orchid.jpg","37","1","806"
"5","5","retrieval","old_objects","24","Card_Deck.jpg","36","1","940"
"5","5","retrieval","old_objects","25","Flute_Wooden.jpg","36","1","1070"
"5","5","retrieval","new_objects","26","Camel_Bactrian.jpg","37","1","586"
"5","5","retrieval","old_objects","27","Fish_Swordfish.jpg","36","1","857"
"5","5","retrieval","old_objects","28","Cheesegrater_Handheld.jpg","36","1","573"
"5","5","retrieval","old_objects","29","Lantern_Tea.jpg","36","1","589"
"5","5","retrieval","old_objects","30","Mailbox_Community.jpg","36","1","589"
"5","5","retrieval","old_objects","31","Toad.jpg","36","1","620"
"5","5","retrieval","new_objects","32","BicycleOdometer.jpg","37","1","618"
"5","5","retrieval","old_objects","33","Tetrahedron.jpg","37","0","536"
"5","5","retrieval","old_objects","34","Broom_Short.jpg","36","1","1001"
"5","5","retrieval","old_objects","35","LifeJacket_BlueYellow.jpg","36","1","776"
"5","5","retrieval","new_objects","36","Keychain_Leather.jpg","37","1","895"
"5","5","retrieval","old_objects","37","PatioHeater.jpg","36","1","771"
"5","5","retrieval","new_objects","38","MoneyBill50.jpg","37","1","683"
"5","5","retrieval","new_objects","39","Hat_Feather.jpg","37","1","742"
"5","5","retrieval","old_objects","40","Sieve_TopView.jpg","36","1","672"
"5","5","retrieval","new_objects","41","Dynamite.jpg","37","1","939"
"5","5","retrieval","old_objects","42","Crib_Standard.jpg","36","1","1133"
"5","5","retrieval","new_objects","43","Stone_AncientWriting.jpg","37","1","1446"
"5","5","retrieval","old_objects","44","Sign_Caution.jpg","36","1","1171"
"5","5","retrieval","new_objects","45","Wire_Soldering.jpg","37","1","955"
"5","5","retrieval","old_objects","46","Puzzle_Animal.jpg","36","1","811"
"5","5","retrieval","old_objects","47","Toolbox_Red.jpg","36","1","706"
"5","5","retrieval","new_objects","48","Pear_Green.jpg","37","1","877"
"5","5","retrieval","old_objects","49","Light_PostIsolated.jpg","36","1","705"
"5","5","retrieval","old_objects","50","TowelRack_Metal.jpg","36","1","587"
"5","5","retrieval","old_objects","51","WaterWell.jpg","36","1","619"
"5","5","retrieval","old_objects","52","Stapler_Gun.jpg","36","1","601"
"5","5","retrieval","old_objects","53","RecorderInstrument.jpg","36","1","887"
"5","5","retrieval","new_objects","54","Ship_Cruise.jpg","37","1","651"
"5","5","retrieval","new_objects","55","PhoneJack.jpg","37","1","679"
"5","5","retrieval","new_objects","56","Hat_Baseball.jpg","37","1","689"
"5","5","retrieval","new_objects","57","CraneMachine.jpg","37","1","830"
"5","5","retrieval","old_objects","58","Lollipop_Rainbow.jpg","36","1","867"
"5","5","retrieval","old_objects","59","Golf_Club.jpg","36","1","647"
"5","5","retrieval","old_objects","60","Deodorant.jpg","36","1","660"
"5","5","retrieval","new_objects","62","Switch_LightBlack.jpg","37","1","1231"
"5","5","retrieval","new_objects","63","InflatableSleepingBag.jpg","37","1","772"
"5","5","retrieval","old_objects","64","ShoppingCart.jpg","37","0","812"
"5","5","retrieval","new_objects","65","Thermos_Decorated.jpg","37","1","850"
"5","5","retrieval","new_objects","66","TreeHouse.jpg","37","1","775"
"5","5","retrieval","old_objects","67","Ruler_Metal.jpg","36","1","639"
"5","5","retrieval","new_objects","68","Thermometer_Room.jpg","37","1","716"
"5","5","retrieval","new_objects","69","DentistOverheadLight.jpg","37","1","774"
"5","5","retrieval","new_objects","70","Snorkle.jpg","37","1","974"
"5","5","retrieval","old_objects","71","Telephone_DialAntique.jpg","36","1","1038"
"5","5","retrieval","old_objects","72","Spoons_MeasuringDetached.jpg","36","1","715"
"5","5","retrieval","new_objects","73","PostageStamps.jpg","37","1","581"
"5","5","retrieval","new_objects","74","Lighter_Yellow.jpg","37","1","612"
"5","5","retrieval","old_objects","75","Shorts_Plaid.jpg","36","1","674"
"5","5","retrieval","new_objects","76","Pliers_SlipJoint.jpg","37","1","718"
"5","5","retrieval","old_objects","77","Nail.jpg","36","1","776"
"5","5","retrieval","old_objects","78","PillBottle_Prescription.jpg","36","1","640"
"5","5","retrieval","old_objects","79","Toy_GasPump.jpg","36","1","813"
"5","5","retrieval","new_objects","80","FireHydrant.jpg","37","1","739"
"5","5","retrieval","new_objects","81","Windmill_Building.jpg","37","1","1165"
"5","5","retrieval","new_objects","82","StickyTack.jpg","37","1","820"
"5","5","retrieval","old_objects","83","Gecko.jpg","36","1","554"
"5","5","retrieval","new_objects","84","Chimpanzee.jpg","37","1","651"
"5","5","retrieval","new_objects","85","Peach.jpg","37","1","680"
"5","5","retrieval","old_objects","86","Bottle_Spray.jpg","36","1","819"
"5","5","retrieval","new_objects","87","Lunchbox.jpg","37","1","841"
"5","5","retrieval","old_objects","88","Clip_Paper.jpg","36","1","686"
"5","5","retrieval","new_objects","89","ThreeHolePunch.jpg","37","1","681"
"5","5","retrieval","new_objects","90","Candy_GummyBear.jpg","37","1","613"
"5","5","retrieval","new_objects","91","Truck_Pickup.jpg","37","1","707"
"5","5","retrieval","new_objects","92","Backpack_Suitcase.jpg","37","1","669"
"5","5","retrieval","new_objects","93","Can_Gas.jpg","37","1","809"
"5","5","retrieval","new_objects","94","Fork_Regular.jpg","37","1","672"
"5","5","retrieval","old_objects","95","Cabinet_Office.jpg","36","1","860"
"5","5","retrieval","old_objects","96","Doll_Rag.jpg","36","1","688"
"5","5","retrieval","old_objects","97","SculptureMetalFish.jpg","36","1","603"
"5","5","retrieval","new_objects","98","Kiwi.jpg","37","1","826"
"5","5","retrieval","new_objects","99","Clothespin_Beige.jpg","37","1","768"
"5","5","retrieval","new_objects","100","Clave.jpg","37","1","648"
"5","5","retrieval","old_objects","101","SatelliteDish.jpg","36","1","740"
"5","5","retrieval","new_objects","102","Sign_Airport.jpg","37","1","814"
"5","5","retrieval","new_objects","103","Jar_Honey.jpg","37","1","1156"
"5","5","retrieval","new_objects","104","Case_WoodenOrnate.jpg","37","1","1053"
"5","5","retrieval","old_objects","105","BookShelf.jpg","36","1","745"
"5","5","retrieval","new_objects","106","Tag_Identifier.jpg","37","1","786"
"5","5","retrieval","old_objects","107","Ruler_Wooden.jpg","36","1","1257"
"5","5","retrieval","new_objects","108","Statue_Horse.jpg","37","1","830"
"5","5","retrieval","new_objects","109","Cane_Wooden.jpg","37","1","739"
"5","5","retrieval","old_objects","110","Snake_Cobra.jpg","36","1","684"
"5","5","retrieval","new_objects","111","Socks_Winter.jpg","37","1","663"
"5","5","retrieval","old_objects","112","Bag_Doctor.jpg","37","0","787"
"5","5","retrieval","old_objects","113","Watch.jpg","37","0","1498"
"5","5","retrieval","new_objects","114","Clock_Interior.jpg","37","1","725"
"5","5","retrieval","old_objects","115","Leaf_Yellow.jpg","36","1","815"
"5","5","retrieval","old_objects","116","FlipFlop_SingleRed.jpg","36","1","869"
"5","5","retrieval","old_objects","117","PeasSplit.jpg","36","1","697"
"5","5","retrieval","new_objects","118","Bench_Concrete.jpg","37","1","755"
"5","5","retrieval","new_objects","119","Stamper.jpg","37","1","1020"
"5","5","retrieval","new_objects","120","Jetski.jpg","37","1","714"
"5","5","retrieval","old_objects","121","Camera_ProfessionalFilm.jpg","36","1","788"
"5","5","retrieval","new_objects","123","Bucket_Champagne.jpg","37","1","1115"
"5","5","retrieval","new_objects","124","Mailbox_Antique.jpg","37","1","885"
"5","5","retrieval","new_objects","125","Hook_Ceiling.jpg","37","1","696"
"5","5","retrieval","old_objects","126","Level.jpg","37","0","755"
"5","5","retrieval","new_objects","127","Table_Conference.jpg","37","1","716"
"5","5","retrieval","old_objects","128","Bag_Gym.jpg","36","1","822"
"5","5","retrieval","new_objects","129","Spatula.jpg","37","1","619"
"5","5","retrieval","new_objects","130","Waffle.jpg","37","1","793"
"5","5","retrieval","old_objects","131","BicycleChain.jpg","36","1","753"
"5","5","retrieval","new_objects","132","Stapler_Regular.jpg","37","1","713"
"5","5","retrieval","old_objects","133","Shoes_Mould.jpg","36","1","1075"
"5","5","retrieval","new_objects","134","Blueberry.jpg","37","1","751"
"5","5","retrieval","new_objects","135","Nightstand.jpg","37","1","712"
"5","5","retrieval","old_objects","136","Brush_Toilet.jpg","36","1","722"
"5","5","retrieval","old_objects","137","Corn.jpg","36","1","652"
"5","5","retrieval","new_objects","138","NailFiles.jpg","37","1","697"
"5","5","retrieval","new_objects","139","PanCooking.jpg","37","1","628"
"5","5","retrieval","old_objects","140","Chicken_FriedWing.jpg","36","1","673"
"5","5","retrieval","old_objects","141","Toy_BlocksLetter.jpg","37","0","606"
"5","5","retrieval","old_objects","142","Bowl_Fruits.jpg","36","1","668"
"5","5","retrieval","old_objects","143","ChariotGold.jpg","36","1","984"
"5","5","retrieval","new_objects","144","TestTube_Single.jpg","37","1","695"
"5","5","retrieval","old_objects","145","Shoes_Snowboarding.jpg","36","1","707"
"5","5","retrieval","old_objects","146","Bottle_Wine.jpg","36","1","1389"
"5","5","retrieval","old_objects","147","Grill_Electric.jpg","36","1","684"
"5","5","retrieval","new_objects","148","Bib.jpg","37","1","680"
"5","5","retrieval","old_objects","149","KiddiePool.jpg","36","1","659"
"5","5","retrieval","old_objects","150","PassionFruit.jpg","36","1","640"
"5","5","retrieval","old_objects","151","Platter_Vegetables.jpg","36","1","637"
"5","5","retrieval","new_objects","152","HardDrive.jpg","37","1","682"
"5","5","retrieval","new_objects","153","ShoeLace_Round.jpg","37","1","597"
"5","5","retrieval","old_objects","154","Screw.jpg","36","1","692"
"5","5","retrieval","old_objects","155","Monitor.jpg","36","1","703"
"5","5","retrieval","old_objects","156","Sign_HumpBridgeAhead.jpg","36","1","650"
"5","5","retrieval","old_objects","157","Horn_Hunting.jpg","36","1","726"
"5","5","retrieval","new_objects","158","KitchenCloth.jpg","37","1","736"
"5","5","retrieval","new_objects","159","Nuts_Peanuts.jpg","37","1","714"
"5","5","retrieval","old_objects","160","Table_Side.jpg","36","1","1636"
"5","5","retrieval","new_objects","161","Boot_Rain.jpg","37","1","617"
"5","5","retrieval","old_objects","162","Door_Green.jpg","36","1","647"
"5","5","retrieval","old_objects","163","Machine_Arm.jpg","36","1","835"
"5","5","retrieval","new_objects","164","WaterGun.jpg","37","1","728"
"5","5","retrieval","old_objects","165","DrinkShaker.jpg","36","1","850"
"5","5","retrieval","new_objects","166","Box_FirstAid.jpg","37","1","1127"
"5","5","retrieval","new_objects","167","Tree_Fir.jpg","37","1","912"
"5","5","retrieval","new_objects","168","Pot_TurkishCoffee.jpg","37","1","1058"
"5","5","retrieval","new_objects","169","AirCompressor.jpg","37","1","655"
"5","5","retrieval","old_objects","170","SaltShaker.jpg","36","1","732"
"5","5","retrieval","new_objects","171","Chair_Car.jpg","37","1","645"
"5","5","retrieval","new_objects","172","Flask_Metal.jpg","37","1","625"
"5","5","retrieval","old_objects","173","DrawingCompass.jpg","36","1","719"
"5","5","retrieval","old_objects","174","Envelope_Letter.jpg","36","1","1017"
"5","5","retrieval","new_objects","175","Clam.jpg","37","1","695"
"5","5","retrieval","old_objects","176","Ball_Football.jpg","36","1","738"
"5","5","retrieval","new_objects","177","Stick_Drum.jpg","37","1","716"
"5","5","retrieval","new_objects","178","Wardrobe.jpg","37","1","742"
"5","5","retrieval","old_objects","179","Cannon.jpg","36","1","799"
"5","5","retrieval","new_objects","180","PaintCan.jpg","37","1","694"
"5","5","retrieval","old_objects","181","BowlingPin.jpg","36","1","721"
"5","5","retrieval","old_objects","182","Toy_RockingHorseBlack.jpg","36","1","843"
"5","5","retrieval","new_objects","184","Guitar_Acoustic.jpg","37","1","821"
"5","5","retrieval","old_objects","185","Ball_Bowling.jpg","36","1","1034"
"5","5","retrieval","old_objects","186","Archery_Arrows.jpg","36","1","824"
"5","5","retrieval","new_objects","187","Turtle.jpg","37","1","766"
"5","5","retrieval","old_objects","188","Piano_Upright.jpg","36","1","710"
"5","5","retrieval","new_objects","189","Hookah.jpg","37","1","1152"
"5","5","retrieval","old_objects","190","Noisemaker_Streamers.jpg","37","0","617"
"5","5","retrieval","old_objects","191","Crayon_Green.jpg","36","1","1975"
"5","5","retrieval","old_objects","192","PizzaCutter.jpg","36","1","639"
"5","5","retrieval","old_objects","193","Chicken_Raw.jpg","36","1","700"
"5","5","retrieval","old_objects","194","MovieSlate.jpg","36","1","1078"
"5","5","retrieval","old_objects","195","Thermostat.jpg","36","1","1058"
"5","5","retrieval","old_objects","196","Honeycomb.jpg","36","1","671"
"5","5","retrieval","new_objects","197","Jar_Money.jpg","37","1","747"
"5","5","retrieval","old_objects","198","Steamroller.jpg","36","1","755"
"5","5","retrieval","new_objects","199","KeyHook_Empty.jpg","37","1","652"
"5","5","retrieval","new_objects","200","Bird_Eagle.jpg","37","1","793"
"5","5","retrieval","new_objects","201","SandBagThrowGame.jpg","37","1","640"
"5","5","retrieval","old_objects","202","Oven.jpg","36","1","749"
"5","5","retrieval","old_objects","203","Toy_Ladybug.jpg","36","1","1014"
"5","5","retrieval","new_objects","204","Drum_Tall.jpg","37","1","772"
"5","5","retrieval","old_objects","205","Lens_Camera.jpg","36","1","972"
"5","5","retrieval","new_objects","206","Bowl_Pasta.jpg","37","1","940"
"5","5","retrieval","old_objects","207","LampPost_WhiteOrnate.jpg","36","1","797"
"5","5","retrieval","old_objects","208","Clock_Digital.jpg","36","1","1380"
"5","5","retrieval","old_objects","209","Bag_Computer.jpg","36","1","1107"
"5","5","retrieval","new_objects","210","OrigamiPaper.jpg","37","1","574"
"5","5","retrieval","old_objects","211","Statue_Buddha.jpg","36","1","638"
"5","5","retrieval","old_objects","212","Desk_Office.jpg","36","1","1131"
"5","5","retrieval","old_objects","213","Dress_Party.jpg","36","1","693"
"5","5","retrieval","new_objects","214","Oneholepunch.jpg","37","1","864"
"5","5","retrieval","old_objects","215","Loofa.jpg","36","1","772"
"5","5","retrieval","new_objects","216","Cup_sippy.jpg","37","1","716"
"5","5","retrieval","new_objects","217","Bench_Wooden.jpg","37","1","758"
"5","5","retrieval","old_objects","218","Awning.jpg","36","1","686"
"5","5","retrieval","new_objects","219","Heater_Outdoor.jpg","36","0","746"
"5","5","retrieval","new_objects","220","Garbage_Can.jpg","37","1","722"
"5","5","retrieval","old_objects","221","Carousel.jpg","36","1","892"
"5","5","retrieval","old_objects","222","Almond.jpg","36","1","1023"
"5","5","retrieval","old_objects","223","MonkeyPuppet.jpg","36","1","733"
"5","5","retrieval","new_objects","224","Colander.jpg","37","1","759"
"5","5","retrieval","old_objects","225","Table_AntiqueWooden.jpg","36","1","751"
"5","5","retrieval","new_objects","226","Briefcase_Silver.jpg","37","1","776"
"5","5","retrieval","old_objects","227","Radish.jpg","37","0","1184"
"5","5","retrieval","new_objects","228","Pepperoni.jpg","37","1","807"
"5","5","retrieval","old_objects","229","Bells_Christmas.jpg","36","1","749"
"5","5","retrieval","new_objects","230","Pillow_Heart.jpg","37","1","774"
"5","5","retrieval","new_objects","231","CookieCutter_Tree.jpg","37","1","734"
"5","5","retrieval","new_objects","232","Knife_Hunting.jpg","37","1","807"
"5","5","retrieval","new_objects","233","Toy_TableSet.jpg","37","1","574"
"5","5","retrieval","old_objects","234","Owl.jpg","36","1","622"
"5","5","retrieval","new_objects","235","Seal_Toy.jpg","37","1","716"
"5","5","retrieval","old_objects","236","Can_Peas.jpg","37","0","1318"
"5","5","retrieval","new_objects","237","Phone_Flip.jpg","37","1","632"
"5","5","retrieval","new_objects","238","Toy_Tractor_1.jpg","37","1","629"
"5","5","retrieval","old_objects","239","Instrument_Guiro.jpg","36","1","1171"
"5","5","retrieval","old_objects","240","Flower_Basket.jpg","36","1","683"
"5","5","retrieval","new_objects","241","Glove_Baseball.jpg","37","1","646"
"5","5","retrieval","new_objects","242","Toy_MrPotatoHeadjpg.jpg","37","1","803"
"5","5","retrieval","new_objects","243","Mask_VenetianCat.jpg","37","1","617"
"5","5","retrieval","new_objects","245","House_Wooden.jpg","37","1","1114"
"5","5","retrieval","new_objects","246","Staples.jpg","37","1","852"
"5","5","retrieval","old_objects","247","Shield_Antique.jpg","36","1","696"
"5","5","retrieval","new_objects","248","PortaPotty.jpg","37","1","643"
"5","5","retrieval","old_objects","249","ComputerMouse.jpg","36","1","784"
"5","5","retrieval","old_objects","250","Pancakes.jpg","36","1","951"
"5","5","retrieval","new_objects","251","Drill.jpg","37","1","904"
"5","5","retrieval","new_objects","252","Necklace_Pearl.jpg","37","1","619"
"5","5","retrieval","new_objects","253","Hat_Beret.jpg","37","1","649"
"5","5","retrieval","old_objects","254","ScrewDriver.jpg","36","1","885"
"5","5","retrieval","new_objects","255","Basket_Firewood.jpg","37","1","713"
"5","5","retrieval","new_objects","256","LicensePlate.jpg","37","1","739"
"5","5","retrieval","new_objects","257","FireAlarm.jpg","37","1","1132"
"5","5","retrieval","old_objects","258","Escalator.jpg","36","1","725"
"5","5","retrieval","new_objects","259","Mask_Buddhist.jpg","37","1","1471"
"5","5","retrieval","new_objects","260","BicycleWheelRusty.jpg","37","1","619"
"5","5","retrieval","new_objects","261","Bell_Hand.jpg","37","1","761"
"5","5","retrieval","old_objects","262","Tambourine.jpg","36","1","866"
"5","5","retrieval","old_objects","263","CoinRolls.jpg","36","1","789"
"5","5","retrieval","old_objects","264","Shirt_SportsJersey.jpg","36","1","829"
"5","5","retrieval","new_objects","265","Boombox.jpg","37","1","610"
"5","5","retrieval","new_objects","266","Fan_Blades.jpg","37","1","576"
"5","5","retrieval","old_objects","267","Clock_Wall.jpg","36","1","672"
"5","5","retrieval","old_objects","268","Tickets_Blank.jpg","36","1","812"
"5","5","retrieval","new_objects","269","Toy_DollOffice.jpg","37","1","801"
"5","5","retrieval","old_objects","270","Lilypad.jpg","36","1","633"
"5","5","retrieval","new_objects","271","Altar.jpg","37","1","646"
"5","5","retrieval","old_objects","272","Bandage_Adhesive.jpg","36","1","643"
"5","5","retrieval","old_objects","273","Toy_BearBrownPlushie.jpg","36","1","832"
"5","5","retrieval","new_objects","274","DogHouse.jpg","37","1","693"
"5","5","retrieval","old_objects","275","Scorpion.jpg","36","1","720"
"5","5","retrieval","old_objects","276","Umbrella_Classic.jpg","36","1","954"
"5","5","retrieval","old_objects","277","SkiPoles.jpg","36","1","1067"
"5","5","retrieval","new_objects","278","LightHouse.jpg","37","1","1255"
"5","5","retrieval","old_objects","279","Toaster_Antique.jpg","36","1","1132"
"5","5","retrieval","new_objects","280","Sign_OneWay.jpg","37","1","693"
"5","5","retrieval","old_objects","281","Helmet_Construction.jpg","37","0","560"
"5","5","retrieval","new_objects","282","Syrup_Maple.jpg","37","1","817"
"5","5","retrieval","old_objects","283","Shovel_Garden.jpg","36","1","1207"
"5","5","retrieval","old_objects","284","Lock_Bike.jpg","36","1","717"
"5","5","retrieval","old_objects","285","Exercise_HandTrainer.jpg","36","1","647"
"5","5","retrieval","old_objects","286","Drink_Green.jpg","36","1","644"
"5","5","retrieval","old_objects","287","Toolbox_Old.jpg","36","1","801"
"5","5","retrieval","old_objects","288","Milkshake_StrawberryStraw.jpg","36","1","904"
"5","5","retrieval","new_objects","289","Mirror_Dental.jpg","37","1","667"
"5","5","retrieval","new_objects","290","Sashimi.jpg","37","1","678"
"5","5","retrieval","old_objects","291","Broccoli.jpg","36","1","706"
"5","5","retrieval","old_objects","292","PictureFrame.jpg","36","1","653"
"5","5","retrieval","new_objects","293","Cup_Latte.jpg","37","1","697"
"5","5","retrieval","new_objects","294","Light_Traffic.jpg","37","1","644"
"5","5","retrieval","new_objects","295","RamAnimal.jpg","37","1","594"
"5","5","retrieval","new_objects","296","Toy_DonkeyFur.jpg","37","1","528"
"5","5","retrieval","old_objects","297","Lectern.jpg","36","1","882"
"5","5","retrieval","old_objects","298","Rock_Agate.jpg","36","1","677"
"5","5","retrieval","old_objects","299","ShakerShekere.jpg","36","1","913"
"5","5","retrieval","old_objects","300","Lantern_Chinese.jpg","36","1","723"
"5","5","retrieval","new_objects","301","Fruit_Cactus.jpg","37","1","765"
"5","5","retrieval","new_objects","302","SpaceShuttle.jpg","37","1","677"
"5","5","retrieval","new_objects","303","Toy_WinnieThePooh.jpg","37","1","753"
"5","5","retrieval","old_objects","304","Notepad.jpg","36","1","713"
"5","5","retrieval","old_objects","306","Toy_Lighthouse.jpg","36","1","762"
"5","5","retrieval","new_objects","307","Shoe_Pink.jpg","37","1","1250"
"5","5","retrieval","new_objects","308","CanOpener.jpg","37","1","759"
"5","5","retrieval","old_objects","309","Lei.jpg","36","1","704"
"5","5","retrieval","old_objects","310","NailPolish.jpg","36","1","730"
"5","5","retrieval","old_objects","311","Fan_Straw.jpg","36","1","660"
"5","5","retrieval","old_objects","312","WalkieTalkie_Yellow.jpg","36","1","704"
"5","5","retrieval","new_objects","313","Qtip_Multiple.jpg","37","1","1083"
"5","5","retrieval","new_objects","314","Wontons.jpg","37","1","806"
"5","5","retrieval","new_objects","315","Spatula_1.jpg","37","1","797"
"5","5","retrieval","new_objects","316","Cologne.jpg","37","1","659"
"5","5","retrieval","new_objects","317","HumanSkeleton.jpg","37","1","608"
"5","5","retrieval","new_objects","318","PencilCase.jpg","37","1","494"
"5","5","retrieval","old_objects","319","Stick_Bridge.jpg","36","1","690"
"5","5","retrieval","old_objects","320","Gametable_AirHockey.jpg","36","1","1309"
"5","5","retrieval","new_objects","321","ChalkboardEraser.jpg","37","1","608"
"5","5","retrieval","new_objects","322","Birdhouse.jpg","37","1","734"
"5","5","retrieval","old_objects","323","Weathervane.jpg","36","1","679"
"5","5","retrieval","old_objects","324","Toy_DollHomeMade.jpg","36","1","755"
"5","5","retrieval","old_objects","325","Cord_Ethernet.jpg","36","1","699"
"5","5","retrieval","old_objects","326","DrinkingFountain.jpg","36","1","1238"
"5","5","retrieval","new_objects","327","GatedEntrance.jpg","37","1","603"
"5","5","retrieval","new_objects","328","Ship_Model.jpg","37","1","682"
"5","5","retrieval","new_objects","329","FloppyDisk.jpg","37","1","597"
"5","5","retrieval","old_objects","330","Toy_Octopus.jpg","36","1","708"
"5","5","retrieval","old_objects","331","Diode.jpg","36","1","798"
"5","5","retrieval","new_objects","332","Boardgame_Chess.jpg","37","1","741"
"5","5","retrieval","new_objects","333","BikiniTop.jpg","37","1","574"
"5","5","retrieval","new_objects","334","Paratrooper.jpg","37","1","638"
"5","5","retrieval","old_objects","335","TelescopeSpacecraft.jpg","36","1","747"
"5","5","retrieval","old_objects","336","DoorKnob.jpg","36","1","1044"
"5","5","retrieval","new_objects","337","OnionRed.jpg","37","1","769"
"5","5","retrieval","new_objects","338","AmberWithMosquito.jpg","37","1","697"
"5","5","retrieval","new_objects","339","Tape_Dispenser.jpg","37","1","867"
"5","5","retrieval","new_objects","340","Brush_Makeup.jpg","37","1","567"
"5","5","retrieval","new_objects","341","Makeup_Foundation.jpg","37","1","951"
"5","5","retrieval","old_objects","342","Glass_bottle.jpg","37","0","712"
"5","5","retrieval","old_objects","343","Briefcase_Open.jpg","36","1","738"
"5","5","retrieval","old_objects","344","Statue_ManHorse.jpg","36","1","1084"
"5","5","retrieval","new_objects","345","Airplane_Small.jpg","37","1","743"
"5","5","retrieval","new_objects","346","Door_Blue.jpg","37","1","1248"
"5","5","retrieval","old_objects","347","Cinnamonroll.jpg","36","1","756"
"5","5","retrieval","new_objects","348","Puzzle_Piece.jpg","37","1","621"
"5","5","retrieval","new_objects","349","PillBottle_Closed.jpg","37","1","794"
"5","5","retrieval","new_objects","350","Torpedo.jpg","37","1","753"
"5","5","retrieval","old_objects","351","IceCream_Popsicle.jpg","36","1","778"
"5","5","retrieval","new_objects","352","Notebook.jpg","37","1","673"
"5","5","retrieval","old_objects","353","Clamp_Screw.jpg","36","1","781"
"5","5","retrieval","old_objects","354","Brush_Shaving.jpg","36","1","1140"
"5","5","retrieval","new_objects","355","Cat.jpg","37","1","589"
"5","5","demographics_block","gender","1","Cat.jpg","MALE","1","20946"
"5","5","demographics_block","age","1","Cat.jpg","30","1","20946"
"5","5","demographics_block","education","1","Cat.jpg","16","1","20946"
"5","5","demographics_block","left_right_handed","2","Cat.jpg","Right","1","7333"
"5","5","demographics_block","raceoption1","2","Cat.jpg","0","1","7333"
"5","5","demographics_block","raceoption2","2","Cat.jpg","","1","7333"
"5","5","demographics_block","raceoption3","2","Cat.jpg","","1","7333"
"5","5","demographics_block","raceoption4","2","Cat.jpg","","1","7333"
"5","5","demographics_block","raceoption5","2","Cat.jpg","","1","7333"
"5","5","demographics_block","raceoption6","2","Cat.jpg","","1","7333"
"5","5","demographics_block","raceoption7","2","Cat.jpg","","1","7333"
"5","5","demographics_block","raceoption8","2","Cat.jpg","","1","7333"
"5","5","demographics_block","raceoption9","2","Cat.jpg","","1","7333"
"5","5","demographics_block","raceother","2","Cat.jpg","","1","7333"
"5","5","demographics_block","raceother","2","Cat.jpg","","1","7333"
"5","5","demographics_block","english_language","2","Cat.jpg","Yes","1","7333"
"5","5","demographics_block","english_languageother","2","Cat.jpg","","1","7333"
"5","5","demographics_block","eyesight","3","Cat.jpg","Yes","1","6575"
"5","5","demographics_block","colorblind","3","Cat.jpg","No","1","6575"
"5","5","worker_id_block","worker_id_textbox","1","Cat.jpg","A9692Y27LBXT9","1","3783"
"4","4","encoding","encoding","1","PizzaCutter.jpg","0","0","2001"
"4","4","encoding","encoding","2","Drink_Green.jpg","36","0","810"
"4","4","encoding","encoding","3","Horn_Hunting.jpg","37","0","747"
"4","4","encoding","encoding","4","Puzzle_Animal.jpg","37","0","1554"
"4","4","encoding","encoding","5","Crib_Standard.jpg","0","0","2001"
"4","4","encoding","encoding","6","Helmet_Construction.jpg","0","0","2001"
"4","4","encoding","encoding","7","Dog_CockerSpaniel.jpg","37","0","1863"
"4","4","encoding","encoding","8","Cheesegrater_Handheld.jpg","36","0","919"
"4","4","encoding","encoding","9","Monitor.jpg","36","0","678"
"4","4","encoding","encoding","10","Leaf_Yellow.jpg","37","0","1541"
"4","4","encoding","encoding","11","Sieve_TopView.jpg","36","0","976"
"4","4","encoding","encoding","12","Ball_Football.jpg","37","0","723"
"4","4","encoding","encoding","13","Crayon_Green.jpg","36","0","637"
"4","4","encoding","encoding","14","Almond.jpg","0","0","2001"
"4","4","encoding","encoding","15","Toy_BlocksLetter.jpg","36","0","1157"
"4","4","encoding","encoding","16","Fish_Swordfish.jpg","0","0","2001"
"4","4","encoding","encoding","17","Noisemaker_Streamers.jpg","36","0","1927"
"4","4","encoding","encoding","18","DoorKnob.jpg","0","0","2001"
"4","4","encoding","encoding","19","Cord_Ethernet.jpg","37","0","1319"
"4","4","encoding","encoding","20","Light_PostIsolated.jpg","36","0","1012"
"4","4","encoding","encoding","21","Watch.jpg","36","0","1057"
"4","4","encoding","encoding","22","Brush_Shaving.jpg","0","0","2001"
"4","4","encoding","encoding","23","Shoes_Mould.jpg","37","0","181"
"4","4","encoding","encoding","24","Milkshake_StrawberryStraw.jpg","37","0","752"
"4","4","encoding","encoding","25","PillBottle_Prescription.jpg","36","0","1575"
"4","4","encoding","encoding","26","Platter_Vegetables.jpg","36","0","653"
"4","4","encoding","encoding","27","Lantern_Tea.jpg","36","0","1036"
"4","4","encoding","encoding","28","Archery_Arrows.jpg","36","0","1848"
"4","4","encoding","encoding","29","Lens_Camera.jpg","36","0","744"
"4","4","encoding","encoding","30","Table_Side.jpg","36","0","889"
"4","4","encoding","encoding","31","Otoscope.jpg","37","0","693"
"4","4","encoding","encoding","32","PictureFrame.jpg","37","0","721"
"4","4","encoding","encoding","33","Ruler_Wooden.jpg","36","0","1026"
"4","4","encoding","encoding","34","Dart.jpg","36","0","1098"
"4","4","encoding","encoding","35","WalkieTalkie_Yellow.jpg","36","0","1243"
"4","4","encoding","encoding","36","Toaster_Antique.jpg","37","0","1450"
"4","4","encoding","encoding","37","Lectern.jpg","36","0","834"
"4","4","encoding","encoding","38","Gametable_AirHockey.jpg","37","0","1074"
"4","4","encoding","encoding","39","Broccoli.jpg","36","0","920"
"4","4","encoding","encoding","40","Tambourine.jpg","36","0","1289"
"4","4","encoding","encoding","41","Doll_Rag.jpg","36","0","1192"
"4","4","encoding","encoding","42","FlipFlop_SingleRed.jpg","36","0","946"
"4","4","encoding","encoding","43","Sign_Caution.jpg","37","0","1318"
"4","4","encoding","encoding","44","Bag_Doctor.jpg","36","0","1017"
"4","4","encoding","encoding","45","Door_Green.jpg","37","0","1693"
"4","4","encoding","encoding","46","Spoons_MeasuringDetached.jpg","36","0","1457"
"4","4","encoding","encoding","47","Umbrella_Classic.jpg","37","0","925"
"4","4","encoding","encoding","48","Clock_Wall.jpg","36","0","1088"
"4","4","encoding","encoding","49","Level.jpg","37","0","1320"
"4","4","encoding","encoding","50","Sign_HumpBridgeAhead.jpg","37","0","1218"
"4","4","encoding","encoding","51","Bottle_Wine.jpg","36","0","1186"
"4","4","encoding","encoding","52","Scorpion.jpg","37","0","1363"
"4","4","encoding","encoding","53","Ball_Bowling.jpg","37","0","1578"
"4","4","encoding","encoding","54","Ruler_Metal.jpg","36","0","1435"
"4","4","encoding","encoding","55","Stick_Bridge.jpg","37","0","1604"
"4","4","encoding","encoding","56","Fan_Straw.jpg","36","0","1728"
"4","4","encoding","encoding","57","Cannon.jpg","37","0","692"
"4","4","encoding","encoding","58","Lollipop_Rainbow.jpg","36","0","388"
"4","4","encoding","encoding","59","Gecko.jpg","37","0","291"
"4","4","encoding","encoding","60","Loofa.jpg","36","0","1143"
"4","4","encoding","encoding","62","Machine_Arm.jpg","37","0","861"
"4","4","encoding","encoding","63","Shirt_SportsJersey.jpg","36","0","1166"
"4","4","encoding","encoding","64","Flute_Wooden.jpg","36","0","806"
"4","4","encoding","encoding","65","Bag_Gym.jpg","36","0","399"
"4","4","encoding","encoding","66","SculptureMetalFish.jpg","36","0","148"
"4","4","encoding","encoding","67","Card_Deck.jpg","0","0","2001"
"4","4","encoding","encoding","68","Bag_Computer.jpg","0","0","2001"
"4","4","encoding","encoding","69","BicycleChain.jpg","37","0","15"
"4","4","encoding","encoding","70","Brush_Toilet.jpg","36","0","1065"
"4","4","encoding","encoding","71","Steamroller.jpg","37","0","205"
"4","4","encoding","encoding","72","SkiPoles.jpg","37","0","314"
"4","4","encoding","encoding","73","Exercise_HandTrainer.jpg","36","0","1246"
"4","4","encoding","encoding","74","Oven.jpg","36","0","1212"
"4","4","encoding","encoding","75","Table_AntiqueWooden.jpg","36","0","777"
"4","4","encoding","encoding","76","KiddiePool.jpg","36","0","1063"
"4","4","encoding","encoding","77","Snake_Cobra.jpg","37","0","802"
"4","4","encoding","encoding","78","BookShelf.jpg","36","0","1070"
"4","4","encoding","encoding","79","ScrewDriver.jpg","36","0","876"
"4","4","encoding","encoding","80","Toolbox_Red.jpg","36","0","990"
"4","4","encoding","encoding","81","Statue_Buddha.jpg","36","0","1317"
"4","4","encoding","encoding","82","Mailbox_Community.jpg","36","0","1336"
"4","4","encoding","encoding","83","Shorts_Plaid.jpg","37","0","722"
"4","4","encoding","encoding","84","Honeycomb.jpg","36","0","747"
"4","4","encoding","encoding","85","Shoes_Snowboarding.jpg","37","0","1316"
"4","4","encoding","encoding","86","Lock_Door.jpg","37","0","1088"
"4","4","encoding","encoding","87","Telephone_DialAntique.jpg","36","0","689"
"4","4","encoding","encoding","88","TowelRack_Metal.jpg","0","0","2001"
"4","4","encoding","encoding","89","Glass_bottle.jpg","36","0","441"
"4","4","encoding","encoding","90","ChariotGold.jpg","36","0","435"
"4","4","encoding","encoding","91","LifeJacket_BlueYellow.jpg","36","0","176"
"4","4","encoding","encoding","92","Shoe_WomenHeals.jpg","36","0","747"
"4","4","encoding","encoding","93","Lock_Bike.jpg","37","0","1464"
"4","4","encoding","encoding","94","Notepad.jpg","36","0","707"
"4","4","encoding","encoding","95","BowlingPin.jpg","37","0","1179"
"4","4","encoding","encoding","96","SkullDeer.jpg","37","0","747"
"4","4","encoding","encoding","97","Toy_Lighthouse.jpg","37","0","1536"
"4","4","encoding","encoding","98","Clock_Digital.jpg","36","0","819"
"4","4","encoding","encoding","99","Toy_BearBrownPlushie.jpg","36","0","636"
"4","4","encoding","encoding","100","PatioHeater.jpg","36","0","817"
"4","4","encoding","encoding","101","Switch_LightWhite.jpg","36","0","583"
"4","4","encoding","encoding","102","Toy_DollHomeMade.jpg","36","0","419"
"4","4","encoding","encoding","103","Owl.jpg","0","0","2001"
"4","4","encoding","encoding","104","Carousel.jpg","0","0","2001"
"4","4","encoding","encoding","105","TelescopeSpacecraft.jpg","0","0","2001"
"4","4","encoding","encoding","106","Screw.jpg","0","0","2001"
"4","4","encoding","encoding","107","Grill_Electric.jpg","36","0","572"
"4","4","encoding","encoding","108","ShoppingCart.jpg","36","0","841"
"4","4","encoding","encoding","109","Pancakes.jpg","36","0","1042"
"4","4","encoding","encoding","110","Envelope_Letter.jpg","37","0","980"
"4","4","encoding","encoding","111","Bomb.jpg","37","0","721"
"4","4","encoding","encoding","112","DrawingCompass.jpg","36","0","869"
"4","4","encoding","encoding","113","PeasSplit.jpg","36","0","666"
"4","4","encoding","encoding","114","DrinkShaker.jpg","36","0","832"
"4","4","encoding","encoding","115","Cabinet_Office.jpg","36","0","747"
"4","4","encoding","encoding","116","Toy_Octopus.jpg","36","0","754"
"4","4","encoding","encoding","117","Clip_Paper.jpg","36","0","1280"
"4","4","encoding","encoding","118","Toy_RockingHorseBlack.jpg","37","0","1836"
"4","4","encoding","encoding","119","ShakerShekere.jpg","37","0","870"
"4","4","encoding","encoding","120","LampPost_WhiteOrnate.jpg","36","0","1395"
"4","4","encoding","encoding","121","Piano_Upright.jpg","36","0","714"
"4","4","encoding","encoding","123","Airplane_Commercial.jpg","37","0","1674"
"4","4","encoding","encoding","124","Bottle_Spray.jpg","36","0","1108"
"4","4","encoding","encoding","125","SaltShaker.jpg","36","0","813"
"4","4","encoding","encoding","126","Broom_Short.jpg","36","0","682"
"4","4","encoding","encoding","127","Cinnamonroll.jpg","36","0","681"
"4","4","encoding","encoding","128","Thermostat.jpg","36","0","791"
"4","4","encoding","encoding","129","Statue_ManHorse.jpg","37","0","685"
"4","4","encoding","encoding","130","Lantern_Chinese.jpg","37","0","909"
"4","4","encoding","encoding","131","NailPolish.jpg","36","0","769"
"4","4","encoding","encoding","132","Rock_Agate.jpg","37","0","499"
"4","4","encoding","encoding","133","Flower_Basket.jpg","36","0","496"
"4","4","encoding","encoding","134","CoinRolls.jpg","36","0","645"
"4","4","encoding","encoding","135","Instrument_Guiro.jpg","37","0","844"
"4","4","encoding","encoding","136","Deodorant.jpg","36","0","1091"
"4","4","encoding","encoding","137","Shovel_Garden.jpg","36","0","393"
"4","4","encoding","encoding","138","Weathervane.jpg","36","0","1409"
"4","4","encoding","encoding","139","Tickets_Blank.jpg","37","0","108"
"4","4","encoding","encoding","140","Slide.jpg","36","0","1088"
"4","4","encoding","encoding","141","MovieSlate.jpg","36","0","714"
"4","4","encoding","encoding","142","IceCream_Popsicle.jpg","37","0","1023"
"4","4","encoding","encoding","143","DrinkingFountain.jpg","36","0","1929"
"4","4","encoding","encoding","144","Stapler_Gun.jpg","37","0","1852"
"4","4","encoding","encoding","145","Toolbox_Old.jpg","36","0","1026"
"4","4","encoding","encoding","146","Chicken_Raw.jpg","36","0","1491"
"4","4","encoding","encoding","147","Desk_Office.jpg","36","0","686"
"4","4","encoding","encoding","148","Awning.jpg","36","0","1297"
"4","4","encoding","encoding","149","Chicken_FriedWing.jpg","36","0","783"
"4","4","encoding","encoding","150","Dress_Party.jpg","36","0","1715"
"4","4","encoding","encoding","151","SatelliteDish.jpg","0","0","2001"
"4","4","encoding","encoding","152","Shield_Antique.jpg","0","0","2001"
"4","4","encoding","encoding","153","Bells_Christmas.jpg","0","0","2001"
"4","4","encoding","encoding","154","Lei.jpg","0","0","2001"
"4","4","encoding","encoding","155","Tetrahedron.jpg","0","0","2001"
"4","4","encoding","encoding","156","Diode.jpg","36","0","1587"
"4","4","encoding","encoding","157","Clamp_Screw.jpg","0","0","2001"
"4","4","encoding","encoding","158","Camera_ProfessionalFilm.jpg","37","0","1718"
"4","4","encoding","encoding","159","Nail.jpg","37","0","1010"
"4","4","encoding","encoding","160","WaterWell.jpg","37","0","1229"
"4","4","encoding","encoding","161","Golf_Club.jpg","37","0","941"
"4","4","encoding","encoding","162","Bowl_Fruits.jpg","36","0","1005"
"4","4","encoding","encoding","163","Toy_Ladybug.jpg","36","0","908"
"4","4","encoding","encoding","164","Escalator.jpg","37","0","1454"
"4","4","encoding","encoding","165","Bandage_Adhesive.jpg","0","0","2001"
"4","4","encoding","encoding","166","Toy_GasPump.jpg","37","0","780"
"4","4","encoding","encoding","167","Can_Peas.jpg","36","0","701"
"4","4","encoding","encoding","168","ComputerMouse.jpg","36","0","640"
"4","4","encoding","encoding","169","RecorderInstrument.jpg","37","0","910"
"4","4","encoding","encoding","170","MonkeyPuppet.jpg","36","0","1008"
"4","4","encoding","encoding","171","Toad.jpg","37","0","1019"
"4","4","encoding","encoding","172","Radish.jpg","36","0","857"
"4","4","encoding","encoding","173","Corn.jpg","36","0","640"
"4","4","encoding","encoding","174","Drum_Bongos.jpg","36","0","795"
"4","4","encoding","encoding","175","Briefcase_Open.jpg","36","0","791"
"4","4","encoding","encoding","176","Lilypad.jpg","37","0","943"
"4","4","encoding","encoding","177","PassionFruit.jpg","37","0","691"
"4","4","retrieval","new_objects","1","House_Wooden.jpg","36","0","397"
"4","4","retrieval","old_objects","2","Broom_Short.jpg","36","1","569"
"4","4","retrieval","old_objects","3","Toaster_Antique.jpg","36","1","235"
"4","4","retrieval","old_objects","4","Drink_Green.jpg","37","0","501"
"4","4","retrieval","old_objects","5","Lollipop_Rainbow.jpg","37","0","969"
"4","4","retrieval","new_objects","6","LightHouse.jpg","37","1","1014"
"4","4","retrieval","new_objects","7","Battery_Car.jpg","36","0","1101"
"4","4","retrieval","new_objects","8","Jar_Honey.jpg","37","1","435"
"4","4","retrieval","old_objects","9","Clock_Wall.jpg","37","0","89"
"4","4","retrieval","new_objects","10","Phone_Flip.jpg","36","0","368"
"4","4","retrieval","new_objects","11","Case_WoodenOrnate.jpg","37","1","664"
"4","4","retrieval","new_objects","12","Truck_Pickup.jpg","36","0","353"
"4","4","retrieval","old_objects","13","PassionFruit.jpg","36","1","480"
"4","4","retrieval","new_objects","14","Wardrobe.jpg","37","1","83"
"4","4","retrieval","new_objects","15","OnionRed.jpg","37","1","521"
"4","4","retrieval","new_objects","16","Hookah.jpg","37","1","514"
"4","4","retrieval","new_objects","17","AmberWithMosquito.jpg","37","1","658"
"4","4","retrieval","new_objects","18","SandBagThrowGame.jpg","36","0","342"
"4","4","retrieval","new_objects","19","Altar.jpg","37","1","353"
"4","4","retrieval","new_objects","20","Drill.jpg","36","0","845"
"4","4","retrieval","new_objects","21","Hat_Baseball.jpg","37","1","339"
"4","4","retrieval","new_objects","22","BicycleOdometer.jpg","37","1","361"
"4","4","retrieval","new_objects","23","Cane_Wooden.jpg","36","0","425"
"4","4","retrieval","new_objects","24","Pot_TurkishCoffee.jpg","36","0","98"
"4","4","retrieval","old_objects","25","Scorpion.jpg","36","1","319"
"4","4","retrieval","old_objects","26","DoorKnob.jpg","37","0","107"
"4","4","retrieval","old_objects","27","Diode.jpg","37","0","336"
"4","4","retrieval","new_objects","28","HardDrive.jpg","36","0","378"
"4","4","retrieval","new_objects","29","Camel_Bactrian.jpg","37","1","460"
"4","4","retrieval","new_objects","30","Makeup_Foundation.jpg","36","0","310"
"4","4","retrieval","new_objects","31","Seal_Toy.jpg","37","1","227"
"4","4","retrieval","old_objects","32","Radish.jpg","37","0","25"
"4","4","retrieval","old_objects","33","Shoes_Snowboarding.jpg","36","1","823"
"4","4","retrieval","old_objects","34","Bag_Doctor.jpg","37","0","493"
"4","4","retrieval","new_objects","35","Toy_DollOffice.jpg","36","0","67"
"4","4","retrieval","old_objects","36","Fan_Straw.jpg","36","1","369"
"4","4","retrieval","new_objects","37","Box_FirstAid.jpg","37","1","393"
"4","4","retrieval","new_objects","38","Cup_Latte.jpg","36","0","192"
"4","4","retrieval","old_objects","39","Owl.jpg","37","0","444"
"4","4","retrieval","new_objects","40","Briefcase_Silver.jpg","36","0","407"
"4","4","retrieval","old_objects","41","Gametable_AirHockey.jpg","37","0","21"
"4","4","retrieval","new_objects","42","Basket_Firewood.jpg","37","1","399"
"4","4","retrieval","old_objects","43","SatelliteDish.jpg","36","1","481"
"4","4","retrieval","new_objects","44","Toy_WinnieThePooh.jpg","37","1","183"
"4","4","retrieval","old_objects","45","Piano_Upright.jpg","36","1","22"
"4","4","retrieval","old_objects","46","Honeycomb.jpg","37","0","563"
"4","4","retrieval","new_objects","47","Stamper.jpg","36","0","64"
"4","4","retrieval","old_objects","48","Sign_HumpBridgeAhead.jpg","36","1","681"
"4","4","retrieval","old_objects","49","Lantern_Chinese.jpg","37","0","580"
"4","4","retrieval","new_objects","50","PortaPotty.jpg","36","0","313"
"4","4","retrieval","new_objects","51","Nuts_Peanuts.jpg","37","1","336"
"4","4","retrieval","old_objects","52","PeasSplit.jpg","36","1","368"
"4","4","retrieval","old_objects","53","Card_Deck.jpg","36","1","594"
"4","4","retrieval","old_objects","54","MovieSlate.jpg","37","0","24"
"4","4","retrieval","old_objects","55","WalkieTalkie_Yellow.jpg","37","0","111"
"4","4","retrieval","old_objects","56","Camera_ProfessionalFilm.jpg","36","1","195"
"4","4","retrieval","new_objects","57","Bench_Wooden.jpg","37","1","300"
"4","4","retrieval","old_objects","58","Lens_Camera.jpg","36","1","777"
"4","4","retrieval","old_objects","59","Cord_Ethernet.jpg","36","1","508"
"4","4","retrieval","old_objects","60","Toy_Lighthouse.jpg","37","0","820"
"4","4","retrieval","old_objects","62","Milkshake_StrawberryStraw.jpg","36","1","433"
"4","4","retrieval","old_objects","63","Table_AntiqueWooden.jpg","37","0","633"
"4","4","retrieval","new_objects","64","CertificateFramed.jpg","36","0","124"
"4","4","retrieval","new_objects","65","Spatula.jpg","37","1","605"
"4","4","retrieval","new_objects","66","LicensePlate.jpg","36","0","731"
"4","4","retrieval","old_objects","67","Snake_Cobra.jpg","37","0","843"
"4","4","retrieval","old_objects","68","Steamroller.jpg","36","1","179"
"4","4","retrieval","new_objects","69","Flask_Metal.jpg","37","1","580"
"4","4","retrieval","new_objects","70","Turtle.jpg","36","0","33"
"4","4","retrieval","new_objects","71","OrigamiPaper.jpg","37","1","252"
"4","4","retrieval","old_objects","72","Toy_BlocksLetter.jpg","37","0","622"
"4","4","retrieval","old_objects","73","Ruler_Wooden.jpg","36","1","639"
"4","4","retrieval","new_objects","74","Mask_VenetianCat.jpg","36","0","340"
"4","4","retrieval","new_objects","75","PencilCase.jpg","37","1","629"
"4","4","retrieval","new_objects","76","Backpack_Suitcase.jpg","36","0","266"
"4","4","retrieval","old_objects","77","Sign_Caution.jpg","36","1","13"
"4","4","retrieval","old_objects","78","Fish_Swordfish.jpg","37","0","66"
"4","4","retrieval","old_objects","79","Brush_Shaving.jpg","36","1","123"
"4","4","retrieval","old_objects","80","Bomb.jpg","36","1","89"
"4","4","retrieval","old_objects","81","SaltShaker.jpg","37","0","503"
"4","4","retrieval","new_objects","82","Fork_Regular.jpg","37","1","86"
"4","4","retrieval","old_objects","83","Light_PostIsolated.jpg","36","1","433"
"4","4","retrieval","old_objects","84","Lock_Bike.jpg","36","1","833"
"4","4","retrieval","new_objects","85","Windmill_Building.jpg","37","1","181"
"4","4","retrieval","new_objects","86","Stick_Drum.jpg","36","0","748"
"4","4","retrieval","new_objects","87","Spatula_1.jpg","37","1","786"
"4","4","retrieval","new_objects","88","Tag_Identifier.jpg","36","0","726"
"4","4","retrieval","new_objects","89","ScannerShoplifting.jpg","37","1","54"
"4","4","retrieval","new_objects","90","Torpedo.jpg","37","1","1109"
"4","4","retrieval","old_objects","91","MonkeyPuppet.jpg","37","0","101"
"4","4","retrieval","old_objects","92","Shield_Antique.jpg","36","1","716"
"4","4","retrieval","new_objects","93","Jetski.jpg","37","1","311"
"4","4","retrieval","old_objects","94","PizzaCutter.jpg","36","1","541"
"4","4","retrieval","new_objects","95","Pepperoni.jpg","37","1","644"
"4","4","retrieval","new_objects","96","Candy_GummyBear.jpg","37","1","509"
"4","4","retrieval","old_objects","97","Shoe_WomenHeals.jpg","36","1","483"
"4","4","retrieval","old_objects","98","Thermostat.jpg","36","1","504"
"4","4","retrieval","old_objects","99","SkullDeer.jpg","36","1","453"
"4","4","retrieval","new_objects","100","TowerEiffel.jpg","36","0","496"
"4","4","retrieval","old_objects","101","Umbrella_Classic.jpg","36","1","541"
"4","4","retrieval","old_objects","102","Bells_Christmas.jpg","37","0","568"
"4","4","retrieval","new_objects","103","Staples.jpg","37","1","589"
"4","4","retrieval","old_objects","104","Weathervane.jpg","36","1","649"
"4","4","retrieval","old_objects","105","Escalator.jpg","37","0","559"
"4","4","retrieval","old_objects","106","Statue_Buddha.jpg","36","1","392"
"4","4","retrieval","old_objects","107","NailPolish.jpg","36","1","418"
"4","4","retrieval","old_objects","108","BowlingPin.jpg","36","1","422"
"4","4","retrieval","old_objects","109","Monitor.jpg","37","0","612"
"4","4","retrieval","old_objects","110","Switch_LightWhite.jpg","36","1","340"
"4","4","retrieval","old_objects","111","DrawingCompass.jpg","36","1","351"
"4","4","retrieval","old_objects","112","Chicken_FriedWing.jpg","36","1","355"
"4","4","retrieval","old_objects","113","Spoons_MeasuringDetached.jpg","36","1","334"
"4","4","retrieval","new_objects","114","Keychain_Leather.jpg","36","0","472"
"4","4","retrieval","old_objects","115","Flute_Wooden.jpg","37","0","313"
"4","4","retrieval","old_objects","116","Almond.jpg","37","0","562"
"4","4","retrieval","old_objects","117","Broccoli.jpg","36","1","383"
"4","4","retrieval","new_objects","118","Peach.jpg","37","1","657"
"4","4","retrieval","old_objects","119","Mailbox_Community.jpg","37","0","642"
"4","4","retrieval","new_objects","120","HumanSkeleton.jpg","36","0","411"
"4","4","retrieval","old_objects","121","Envelope_Letter.jpg","36","1","637"
"4","4","retrieval","old_objects","123","Pancakes.jpg","36","1","614"
"4","4","retrieval","old_objects","124","Toy_Ladybug.jpg","37","0","361"
"4","4","retrieval","old_objects","125","Bottle_Wine.jpg","36","1","336"
"4","4","retrieval","new_objects","126","Cup_sippy.jpg","36","0","275"
"4","4","retrieval","new_objects","127","Flower_Orchid.jpg","37","1","387"
"4","4","retrieval","new_objects","128","Nightstand.jpg","36","0","199"
"4","4","retrieval","old_objects","129","DrinkingFountain.jpg","36","1","581"
"4","4","retrieval","old_objects","130","BicycleChain.jpg","37","0","68"
"4","4","retrieval","old_objects","131","Tetrahedron.jpg","36","1","384"
"4","4","retrieval","new_objects","132","Blueberry.jpg","36","0","396"
"4","4","retrieval","old_objects","133","LifeJacket_BlueYellow.jpg","37","0","135"
"4","4","retrieval","new_objects","134","Hook_Ceiling.jpg","36","0","352"
"4","4","retrieval","new_objects","135","Bell_Hand.jpg","36","0","471"
"4","4","retrieval","new_objects","136","Ship_Cruise.jpg","37","1","420"
"4","4","retrieval","new_objects","137","Pillow_Heart.jpg","36","0","222"
"4","4","retrieval","old_objects","138","Otoscope.jpg","36","1","298"
"4","4","retrieval","old_objects","139","ComputerMouse.jpg","37","0","539"
"4","4","retrieval","old_objects","140","Slide.jpg","36","1","82"
"4","4","retrieval","old_objects","141","Doll_Rag.jpg","36","1","175"
"4","4","retrieval","new_objects","142","Jar_Money.jpg","36","0","164"
"4","4","retrieval","new_objects","143","Snorkle.jpg","37","1","111"
"4","4","retrieval","new_objects","144","Sign_Airport.jpg","37","1","40"
"4","4","retrieval","old_objects","145","Horn_Hunting.jpg","37","0","41"
"4","4","retrieval","old_objects","146","Ball_Football.jpg","37","0","21"
"4","4","retrieval","old_objects","147","Chicken_Raw.jpg","37","0","73"
"4","4","retrieval","old_objects","148","Sieve_TopView.jpg","36","1","185"
"4","4","retrieval","old_objects","149","Clamp_Screw.jpg","37","0","55"
"4","4","retrieval","new_objects","150","GatedEntrance.jpg","36","0","52"
"4","4","retrieval","new_objects","151","Dynamite.jpg","37","1","111"
"4","4","retrieval","new_objects","152","Glove_Baseball.jpg","36","0","81"
"4","4","retrieval","new_objects","153","NailFiles.jpg","36","0","10"
"4","4","retrieval","old_objects","154","Grill_Electric.jpg","37","0","143"
"4","4","retrieval","new_objects","155","Goose_Canadian.jpg","37","1","77"
"4","4","retrieval","old_objects","156","Table_Side.jpg","36","1","476"
"4","4","retrieval","new_objects","157","Cologne.jpg","37","1","58"
"4","4","retrieval","new_objects","158","Waffle.jpg","36","0","84"
"4","4","retrieval","old_objects","159","PillBottle_Prescription.jpg","37","0","135"
"4","4","retrieval","new_objects","160","WaterGun.jpg","37","1","84"
"4","4","retrieval","old_objects","161","SkiPoles.jpg","36","1","8"
"4","4","retrieval","new_objects","162","Clave.jpg","37","1","157"
"4","4","retrieval","new_objects","163","Oneholepunch.jpg","37","1","105"
"4","4","retrieval","new_objects","164","LeatherPuncherTool.jpg","37","1","25"
"4","4","retrieval","new_objects","165","Guitar_Acoustic.jpg","37","1","38"
"4","4","retrieval","old_objects","166","PatioHeater.jpg","37","0","58"
"4","4","retrieval","new_objects","167","FireAlarm.jpg","37","1","55"
"4","4","retrieval","new_objects","168","Light_Traffic.jpg","37","1","158"
"4","4","retrieval","old_objects","169","ScrewDriver.jpg","37","0","176"
"4","4","retrieval","old_objects","170","Bandage_Adhesive.jpg","37","0","58"
"4","4","retrieval","new_objects","171","Clam.jpg","37","1","67"
"4","4","retrieval","old_objects","172","Shorts_Plaid.jpg","37","0","78"
"4","4","retrieval","new_objects","173","Bucket_Champagne.jpg","37","1","64"
"4","4","retrieval","old_objects","174","Toy_GasPump.jpg","36","1","22"
"4","4","retrieval","old_objects","175","Carousel.jpg","37","0","20"
"4","4","retrieval","old_objects","176","Flower_Basket.jpg","37","0","144"
"4","4","retrieval","old_objects","177","BookShelf.jpg","37","0","132"
"4","4","retrieval","new_objects","178","KitchenCloth.jpg","36","0","494"
"4","4","retrieval","new_objects","179","TreeHouse.jpg","37","1","186"
"4","4","retrieval","new_objects","180","Bench_Concrete.jpg","36","0","82"
"4","4","retrieval","old_objects","181","Crayon_Green.jpg","36","1","209"
"4","4","retrieval","new_objects","182","Toy_DonkeyFur.jpg","36","0","166"
"4","4","retrieval","new_objects","184","Lunchbox.jpg","36","0","456"
"4","4","retrieval","old_objects","185","Tambourine.jpg","37","0","81"
"4","4","retrieval","new_objects","186","PanCooking.jpg","36","0","21"
"4","4","retrieval","new_objects","187","InflatableSleepingBag.jpg","37","1","161"
"4","4","retrieval","new_objects","188","Fan_Blades.jpg","37","1","159"
"4","4","retrieval","old_objects","189","Toad.jpg","37","0","70"
"4","4","retrieval","old_objects","190","LampPost_WhiteOrnate.jpg","37","0","77"
"4","4","retrieval","new_objects","191","FireHydrant.jpg","37","1","85"
"4","4","retrieval","new_objects","192","Clock_Interior.jpg","37","1","92"
"4","4","retrieval","new_objects","193","FloppyDisk.jpg","36","0","147"
"4","4","retrieval","new_objects","194","Wire_Soldering.jpg","36","0","143"
"4","4","retrieval","new_objects","195","Garbage_Can.jpg","37","1","138"
"4","4","retrieval","old_objects","196","Tickets_Blank.jpg","36","1","143"
"4","4","retrieval","new_objects","197","Bowl_Pasta.jpg","36","0","105"
"4","4","retrieval","new_objects","198","StickyTack.jpg","36","0","206"
"4","4","retrieval","old_objects","199","Oven.jpg","37","0","18"
"4","4","retrieval","old_objects","200","Cinnamonroll.jpg","37","0","25"
"4","4","retrieval","old_objects","201","TelescopeSpacecraft.jpg","37","0","151"
"4","4","retrieval","old_objects","202","Helmet_Construction.jpg","36","1","32"
"4","4","retrieval","old_objects","203","Lock_Door.jpg","37","0","155"
"4","4","retrieval","new_objects","204","ThreeHolePunch.jpg","37","1","141"
"4","4","retrieval","new_objects","205","BikiniTop.jpg","37","1","202"
"4","4","retrieval","new_objects","206","Heater_Outdoor.jpg","36","0","192"
"4","4","retrieval","new_objects","207","Notebook.jpg","36","0","135"
"4","4","retrieval","old_objects","208","Bowl_Fruits.jpg","36","1","225"
"4","4","retrieval","old_objects","209","Dress_Party.jpg","37","0","156"
"4","4","retrieval","old_objects","210","Glass_bottle.jpg","37","0","38"
"4","4","retrieval","new_objects","211","MoneyBill50.jpg","36","0","186"
"4","4","retrieval","new_objects","212","Paratrooper.jpg","36","0","49"
"4","4","retrieval","old_objects","213","Lantern_Tea.jpg","36","1","165"
"4","4","retrieval","old_objects","214","Drum_Bongos.jpg","36","1","122"
"4","4","retrieval","old_objects","215","Golf_Club.jpg","36","1","50"
"4","4","retrieval","new_objects","216","Ship_Model.jpg","36","0","46"
"4","4","retrieval","old_objects","217","Dart.jpg","36","1","137"
"4","4","retrieval","old_objects","218","Clock_Digital.jpg","37","0","610"
"4","4","retrieval","old_objects","219","Lei.jpg","36","1","94"
"4","4","retrieval","new_objects","220","GranolaBar.jpg","36","0","263"
"4","4","retrieval","new_objects","221","Swing_Porch.jpg","36","0","168"
"4","4","retrieval","new_objects","222","ChalkboardEraser.jpg","37","1","231"
"4","4","retrieval","old_objects","223","Cannon.jpg","36","1","191"
"4","4","retrieval","new_objects","224","Mask_Buddhist.jpg","36","0","144"
"4","4","retrieval","new_objects","225","Drum_Tall.jpg","37","1","162"
"4","4","retrieval","new_objects","226","DentistOverheadLight.jpg","37","1","133"
"4","4","retrieval","old_objects","227","Archery_Arrows.jpg","36","1","15"
"4","4","retrieval","old_objects","228","Door_Green.jpg","37","0","35"
"4","4","retrieval","new_objects","229","Birdhouse.jpg","36","0","90"
"4","4","retrieval","new_objects","230","DogHouse.jpg","37","1","182"
"4","4","retrieval","new_objects","231","PaintCan.jpg","36","0","135"
"4","4","retrieval","new_objects","232","Kiwi.jpg","37","1","93"
"4","4","retrieval","new_objects","233","CanOpener.jpg","37","1","179"
"4","4","retrieval","new_objects","234","Puzzle_Piece.jpg","37","1","122"
"4","4","retrieval","old_objects","235","Corn.jpg","37","0","167"
"4","4","retrieval","old_objects","236","SculptureMetalFish.jpg","36","1","172"
"4","4","retrieval","old_objects","237","Lectern.jpg","36","1","264"
"4","4","retrieval","new_objects","238","Qtip_Multiple.jpg","36","0","106"
"4","4","retrieval","new_objects","239","ShoeLace_Round.jpg","36","0","131"
"4","4","retrieval","new_objects","240","PhoneJack.jpg","36","0","25"
"4","4","retrieval","old_objects","241","Rock_Agate.jpg","36","1","121"
"4","4","retrieval","new_objects","242","Can_Gas.jpg","36","0","123"
"4","4","retrieval","old_objects","243","Dog_CockerSpaniel.jpg","37","0","48"
"4","4","retrieval","old_objects","245","Watch.jpg","36","1","138"
"4","4","retrieval","old_objects","246","Bottle_Spray.jpg","37","0","89"
"4","4","retrieval","new_objects","247","Toy_Tractor_1.jpg","36","0","57"
"4","4","retrieval","old_objects","248","Notepad.jpg","37","0","0"
"4","4","retrieval","new_objects","249","Pear_Green.jpg","37","1","19"
"4","4","retrieval","new_objects","250","Airplane_Small.jpg","37","1","168"
"4","4","retrieval","old_objects","251","Bag_Gym.jpg","36","1","117"
"4","4","retrieval","old_objects","252","Can_Peas.jpg","37","0","202"
"4","4","retrieval","old_objects","253","Instrument_Guiro.jpg","36","1","99"
"4","4","retrieval","old_objects","254","DrinkShaker.jpg","36","1","57"
"4","4","retrieval","old_objects","255","Deodorant.jpg","37","0","191"
"4","4","retrieval","old_objects","256","ShakerShekere.jpg","36","1","92"
"4","4","retrieval","old_objects","257","Puzzle_Animal.jpg","36","1","60"
"4","4","retrieval","new_objects","258","Stapler_Regular.jpg","36","0","193"
"4","4","retrieval","old_objects","259","ChariotGold.jpg","36","1","73"
"4","4","retrieval","old_objects","260","Airplane_Commercial.jpg","36","1","40"
"4","4","retrieval","new_objects","261","RamAnimal.jpg","37","1","202"
"4","4","retrieval","old_objects","262","Toy_DollHomeMade.jpg","37","0","38"
"4","4","retrieval","old_objects","263","Statue_ManHorse.jpg","37","0","67"
"4","4","retrieval","new_objects","264","Thermometer_Room.jpg","36","0","154"
"4","4","retrieval","new_objects","265","Pliers_SlipJoint.jpg","36","0","320"
"4","4","retrieval","old_objects","266","Noisemaker_Streamers.jpg","36","1","750"
"4","4","retrieval","new_objects","267","CraneMachine.jpg","0","0","2001"
"4","4","retrieval","new_objects","268","TestTube_Single.jpg","36","0","135"
"4","4","retrieval","new_objects","269","Necklace_Pearl.jpg","36","0","33"
"4","4","retrieval","new_objects","270","Tree_Fir.jpg","37","1","165"
"4","4","retrieval","new_objects","271","Knife_Hunting.jpg","36","0","152"
"4","4","retrieval","old_objects","272","Gecko.jpg","36","1","336"
"4","4","retrieval","old_objects","273","Brush_Toilet.jpg","36","1","151"
"4","4","retrieval","new_objects","274","Chimpanzee.jpg","37","1","111"
"4","4","retrieval","old_objects","275","CoinRolls.jpg","37","0","291"
"4","4","retrieval","new_objects","276","Hat_Beret.jpg","37","1","92"
"4","4","retrieval","new_objects","277","Toy_TableSet.jpg","37","1","78"
"4","4","retrieval","new_objects","278","Boombox.jpg","37","1","188"
"4","4","retrieval","old_objects","279","Toy_RockingHorseBlack.jpg","37","0","1110"
"4","4","retrieval","new_objects","280","Door_Blue.jpg","36","0","1414"
"4","4","retrieval","new_objects","281","KeyHook_Empty.jpg","36","0","242"
"4","4","retrieval","old_objects","282","Loofa.jpg","36","1","82"
"4","4","retrieval","new_objects","283","Lighter_Yellow.jpg","36","0","15"
"4","4","retrieval","old_objects","284","Shoes_Mould.jpg","36","1","92"
"4","4","retrieval","old_objects","285","Stick_Bridge.jpg","36","1","179"
"4","4","retrieval","old_objects","286","Shirt_SportsJersey.jpg","36","1","135"
"4","4","retrieval","new_objects","287","Toy_MrPotatoHeadjpg.jpg","37","1","147"
"4","4","retrieval","new_objects","288","Boardgame_Chess.jpg","37","1","193"
"4","4","retrieval","old_objects","289","Toy_Octopus.jpg","36","1","36"
"4","4","retrieval","new_objects","290","Wontons.jpg","36","0","158"
"4","4","retrieval","old_objects","291","ShoppingCart.jpg","36","1","90"
"4","4","retrieval","new_objects","292","Table_Conference.jpg","37","1","745"
"4","4","retrieval","old_objects","293","Toolbox_Old.jpg","36","1","743"
"4","4","retrieval","new_objects","294","Bib.jpg","37","1","250"
"4","4","retrieval","new_objects","295","BicycleWheelRusty.jpg","37","1","292"
"4","4","retrieval","old_objects","296","Screw.jpg","36","1","172"
"4","4","retrieval","new_objects","297","Mailbox_Antique.jpg","36","0","747"
"4","4","retrieval","new_objects","298","Brush_Makeup.jpg","36","0","159"
"4","4","retrieval","new_objects","299","Chair_Car.jpg","37","1","81"
"4","4","retrieval","new_objects","300","Fruit_Cactus.jpg","36","0","142"
"4","4","retrieval","new_objects","301","Thermos_Decorated.jpg","36","0","111"
"4","4","retrieval","old_objects","302","Bag_Computer.jpg","37","0","125"
"4","4","retrieval","old_objects","303","Telephone_DialAntique.jpg","36","1","12"
"4","4","retrieval","old_objects","304","Platter_Vegetables.jpg","0","0","2001"
"4","4","retrieval","new_objects","306","Syrup_Maple.jpg","36","0","181"
"4","4","retrieval","new_objects","307","PillBottle_Closed.jpg","36","0","223"
"4","4","retrieval","new_objects","308","Stone_AncientWriting.jpg","36","0","8"
"4","4","retrieval","new_objects","309","Sign_OneWay.jpg","36","0","204"
"4","4","retrieval","new_objects","310","CookieCutter_Tree.jpg","36","0","242"
"4","4","retrieval","new_objects","311","PostageStamps.jpg","37","1","209"
"4","4","retrieval","old_objects","312","Ball_Bowling.jpg","36","1","85"
"4","4","retrieval","old_objects","313","Machine_Arm.jpg","37","0","76"
"4","4","retrieval","old_objects","314","Crib_Standard.jpg","36","1","219"
"4","4","retrieval","old_objects","315","Ruler_Metal.jpg","37","0","222"
"4","4","retrieval","old_objects","316","Cheesegrater_Handheld.jpg","36","1","246"
"4","4","retrieval","new_objects","317","WaterFountain.jpg","37","1","24"
"4","4","retrieval","new_objects","318","Tape_Dispenser.jpg","36","0","134"
"4","4","retrieval","new_objects","319","Statue_Horse.jpg","36","0","209"
"4","4","retrieval","old_objects","320","IceCream_Popsicle.jpg","36","1","182"
"4","4","retrieval","old_objects","321","Nail.jpg","36","1","276"
"4","4","retrieval","new_objects","322","Switch_LightBlack.jpg","36","0","1871"
"4","4","retrieval","new_objects","323","Sashimi.jpg","37","1","20"
"4","4","retrieval","new_objects","324","Shoe_Pink.jpg","37","1","367"
"4","4","retrieval","new_objects","325","Bird_Eagle.jpg","36","0","481"
"4","4","retrieval","old_objects","326","RecorderInstrument.jpg","36","1","16"
"4","4","retrieval","old_objects","327","Stapler_Gun.jpg","36","1","21"
"4","4","retrieval","new_objects","328","Candle_ChristmasDecor.jpg","36","0","148"
"4","4","retrieval","old_objects","329","Leaf_Yellow.jpg","36","1","60"
"4","4","retrieval","new_objects","330","Clock_Radio.jpg","37","1","284"
"4","4","retrieval","new_objects","331","SpaceShuttle.jpg","37","1","65"
"4","4","retrieval","old_objects","332","PictureFrame.jpg","36","1","85"
"4","4","retrieval","new_objects","333","Hat_Feather.jpg","37","1","62"
"4","4","retrieval","old_objects","334","Toy_BearBrownPlushie.jpg","37","0","237"
"4","4","retrieval","old_objects","335","Awning.jpg","36","1","168"
"4","4","retrieval","new_objects","336","Boot_Rain.jpg","36","0","191"
"4","4","retrieval","new_objects","337","AirCompressor.jpg","37","1","310"
"4","4","retrieval","old_objects","338","Briefcase_Open.jpg","36","1","20"
"4","4","retrieval","old_objects","339","KiddiePool.jpg","37","0","65"
"4","4","retrieval","new_objects","340","Socks_Winter.jpg","36","0","250"
"4","4","retrieval","old_objects","341","Lilypad.jpg","36","1","480"
"4","4","retrieval","old_objects","342","FlipFlop_SingleRed.jpg","36","1","1018"
"4","4","retrieval","new_objects","343","Mirror_Dental.jpg","36","0","580"
"4","4","retrieval","old_objects","344","Exercise_HandTrainer.jpg","37","0","256"
"4","4","retrieval","old_objects","345","Toolbox_Red.jpg","36","1","219"
"4","4","retrieval","old_objects","346","WaterWell.jpg","37","0","701"
"4","4","retrieval","old_objects","347","Level.jpg","36","1","189"
"4","4","retrieval","new_objects","348","Clothespin_Beige.jpg","37","1","13"
"4","4","retrieval","old_objects","349","Clip_Paper.jpg","37","0","255"
"4","4","retrieval","new_objects","350","Cat.jpg","36","0","100"
"4","4","retrieval","old_objects","351","Desk_Office.jpg","36","1","337"
"4","4","retrieval","old_objects","352","Shovel_Garden.jpg","37","0","346"
"4","4","retrieval","old_objects","353","Cabinet_Office.jpg","37","0","138"
"4","4","retrieval","new_objects","354","Colander.jpg","36","0","189"
"4","4","retrieval","old_objects","355","TowelRack_Metal.jpg","36","1","984"
"4","4","demographics_block","gender","1","TowelRack_Metal.jpg","Male","1","17011"
"4","4","demographics_block","age","1","TowelRack_Metal.jpg","22","1","17011"
"4","4","demographics_block","education","1","TowelRack_Metal.jpg","16","1","17011"
"4","4","demographics_block","left_right_handed","2","TowelRack_Metal.jpg","Right","1","8563"
"4","4","demographics_block","raceoption1","2","TowelRack_Metal.jpg","","1","8563"
"4","4","demographics_block","raceoption2","2","TowelRack_Metal.jpg","","1","8563"
"4","4","demographics_block","raceoption3","2","TowelRack_Metal.jpg","","1","8563"
"4","4","demographics_block","raceoption4","2","TowelRack_Metal.jpg","3","1","8563"
"4","4","demographics_block","raceoption5","2","TowelRack_Metal.jpg","","1","8563"
"4","4","demographics_block","raceoption6","2","TowelRack_Metal.jpg","","1","8563"
"4","4","demographics_block","raceoption7","2","TowelRack_Metal.jpg","","1","8563"
"4","4","demographics_block","raceoption8","2","TowelRack_Metal.jpg","","1","8563"
"4","4","demographics_block","raceoption9","2","TowelRack_Metal.jpg","","1","8563"
"4","4","demographics_block","raceother","2","TowelRack_Metal.jpg","","1","8563"
"4","4","demographics_block","raceother","2","TowelRack_Metal.jpg","","1","8563"
"4","4","demographics_block","english_language","2","TowelRack_Metal.jpg","Yes","1","8563"
"4","4","demographics_block","english_languageother","2","TowelRack_Metal.jpg","","1","8563"
"4","4","demographics_block","eyesight","3","TowelRack_Metal.jpg","Yes","1","8043"
"4","4","demographics_block","colorblind","3","TowelRack_Metal.jpg","No","1","8043"
"4","4","worker_id_block","worker_id_textbox","1","TowelRack_Metal.jpg","AQAPV1UA174JQ","1","15673"
"6","6","encoding","encoding","1","Glass_bottle.jpg","36","0","304"
"6","6","encoding","encoding","2","Toy_BearBrownPlushie.jpg","36","0","65"
"6","6","encoding","encoding","3","Golf_Club.jpg","36","0","10"
"6","6","encoding","encoding","4","Grill_Electric.jpg","37","0","136"
"6","6","encoding","encoding","5","Clip_Paper.jpg","37","0","103"
"6","6","encoding","encoding","6","Scorpion.jpg","37","0","226"
"6","6","encoding","encoding","7","Monitor.jpg","36","0","71"
"6","6","encoding","encoding","8","Thermostat.jpg","36","0","58"
"6","6","encoding","encoding","9","PictureFrame.jpg","37","0","270"
"6","6","encoding","encoding","10","Lei.jpg","37","0","84"
"6","6","encoding","encoding","11","Stapler_Gun.jpg","36","0","171"
"6","6","encoding","encoding","12","Drum_Bongos.jpg","36","0","221"
"6","6","encoding","encoding","13","Crayon_Green.jpg","36","0","222"
"6","6","encoding","encoding","14","Toy_DollHomeMade.jpg","36","0","112"
"6","6","encoding","encoding","15","Machine_Arm.jpg","37","0","14"
"6","6","encoding","encoding","16","Brush_Toilet.jpg","36","0","191"
"6","6","encoding","encoding","17","BicycleChain.jpg","37","0","131"
"6","6","encoding","encoding","18","SkullDeer.jpg","37","0","43"
"6","6","encoding","encoding","19","KiddiePool.jpg","36","0","27"
"6","6","encoding","encoding","20","Piano_Upright.jpg","36","0","120"
"6","6","encoding","encoding","21","Instrument_Guiro.jpg","36","0","182"
"6","6","encoding","encoding","22","Steamroller.jpg","37","0","7"
"6","6","encoding","encoding","23","Bag_Doctor.jpg","36","0","39"
"6","6","encoding","encoding","24","DrinkingFountain.jpg","36","0","123"
"6","6","encoding","encoding","25","Toolbox_Old.jpg","36","0","205"
"6","6","encoding","encoding","26","Door_Green.jpg","36","0","147"
"6","6","encoding","encoding","27","Toy_RockingHorseBlack.jpg","36","0","137"
"6","6","encoding","encoding","28","Crib_Standard.jpg","36","0","80"
"6","6","encoding","encoding","29","Cabinet_Office.jpg","36","0","45"
"6","6","encoding","encoding","30","Dart.jpg","37","0","72"
"6","6","encoding","encoding","31","Broom_Short.jpg","37","0","143"
"6","6","encoding","encoding","32","Noisemaker_Streamers.jpg","36","0","28"
"6","6","encoding","encoding","33","Switch_LightWhite.jpg","36","0","118"
"6","6","encoding","encoding","34","Corn.jpg","36","0","82"
"6","6","encoding","encoding","35","Leaf_Yellow.jpg","36","0","74"
"6","6","encoding","encoding","36","Deodorant.jpg","0","0","2000"
"6","6","encoding","encoding","37","Oven.jpg","37","0","204"
"6","6","encoding","encoding","38","Toy_Lighthouse.jpg","36","0","131"
"6","6","encoding","encoding","39","Table_AntiqueWooden.jpg","37","0","140"
"6","6","encoding","encoding","40","Briefcase_Open.jpg","36","0","36"
"6","6","encoding","encoding","41","Ruler_Wooden.jpg","36","0","123"
"6","6","encoding","encoding","42","Exercise_HandTrainer.jpg","36","0","99"
"6","6","encoding","encoding","43","Bottle_Spray.jpg","37","0","375"
"6","6","encoding","encoding","44","Telephone_DialAntique.jpg","36","0","175"
"6","6","encoding","encoding","45","CoinRolls.jpg","36","0","101"
"6","6","encoding","encoding","46","Carousel.jpg","36","0","351"
"6","6","encoding","encoding","47","MonkeyPuppet.jpg","37","0","10"
"6","6","encoding","encoding","48","Lilypad.jpg","37","0","88"
"6","6","encoding","encoding","49","Loofa.jpg","36","0","51"
"6","6","encoding","encoding","50","Tickets_Blank.jpg","37","0","26"
"6","6","encoding","encoding","51","Bag_Computer.jpg","36","0","129"
"6","6","encoding","encoding","52","Escalator.jpg","37","0","6"
"6","6","encoding","encoding","53","Screw.jpg","37","0","189"
"6","6","encoding","encoding","54","Bandage_Adhesive.jpg","37","0","31"
"6","6","encoding","encoding","55","ScrewDriver.jpg","36","0","8"
"6","6","encoding","encoding","56","Cord_Ethernet.jpg","37","0","751"
"6","6","encoding","encoding","57","Clamp_Screw.jpg","36","0","69"
"6","6","encoding","encoding","58","Brush_Shaving.jpg","37","0","24"
"6","6","encoding","encoding","59","Tetrahedron.jpg","0","0","2000"
"6","6","encoding","encoding","60","Ruler_Metal.jpg","0","0","2000"
"6","6","encoding","encoding","62","IceCream_Popsicle.jpg","37","0","111"
"6","6","encoding","encoding","63","Mailbox_Community.jpg","37","0","140"
"6","6","encoding","encoding","64","Radish.jpg","36","0","51"
"6","6","encoding","encoding","65","MovieSlate.jpg","36","0","22"
"6","6","encoding","encoding","66","Awning.jpg","36","0","74"
"6","6","encoding","encoding","67","ChariotGold.jpg","36","0","187"
"6","6","encoding","encoding","68","Snake_Cobra.jpg","36","0","160"
"6","6","encoding","encoding","69","LampPost_WhiteOrnate.jpg","37","0","63"
"6","6","encoding","encoding","70","BowlingPin.jpg","37","0","132"
"6","6","encoding","encoding","71","SkiPoles.jpg","36","0","70"
"6","6","encoding","encoding","72","Fish_Swordfish.jpg","36","0","391"
"6","6","encoding","encoding","73","Statue_Buddha.jpg","37","0","105"
"6","6","encoding","encoding","74","WaterWell.jpg","37","0","143"
"6","6","encoding","encoding","75","Bowl_Fruits.jpg","36","0","332"
"6","6","encoding","encoding","76","Toad.jpg","36","0","82"
"6","6","encoding","encoding","77","Toy_GasPump.jpg","37","0","70"
"6","6","encoding","encoding","78","Toaster_Antique.jpg","37","0","56"
"6","6","encoding","encoding","79","Dress_Party.jpg","36","0","0"
"6","6","encoding","encoding","80","Otoscope.jpg","36","0","97"
"6","6","encoding","encoding","81","Broccoli.jpg","36","0","68"
"6","6","encoding","encoding","82","PatioHeater.jpg","37","0","275"
"6","6","encoding","encoding","83","Slide.jpg","37","0","117"
"6","6","encoding","encoding","84","Bomb.jpg","36","0","173"
"6","6","encoding","encoding","85","PillBottle_Prescription.jpg","36","0","26"
"6","6","encoding","encoding","86","Can_Peas.jpg","37","0","82"
"6","6","encoding","encoding","87","Airplane_Commercial.jpg","36","0","117"
"6","6","encoding","encoding","88","PizzaCutter.jpg","36","0","13"
"6","6","encoding","encoding","89","Lantern_Tea.jpg","36","0","93"
"6","6","encoding","encoding","90","Shoes_Mould.jpg","36","0","123"
"6","6","encoding","encoding","91","Level.jpg","36","0","165"
"6","6","encoding","encoding","92","Ball_Bowling.jpg","37","0","161"
"6","6","encoding","encoding","93","WalkieTalkie_Yellow.jpg","37","0","1728"
"6","6","encoding","encoding","94","DrawingCompass.jpg","36","0","138"
"6","6","encoding","encoding","95","Clock_Digital.jpg","36","0","575"
"6","6","encoding","encoding","96","Lantern_Chinese.jpg","36","0","92"
"6","6","encoding","encoding","97","Diode.jpg","37","0","6"
"6","6","encoding","encoding","98","Umbrella_Classic.jpg","37","0","8"
"6","6","encoding","encoding","99","Owl.jpg","37","0","268"
"6","6","encoding","encoding","100","Nail.jpg","36","0","133"
"6","6","encoding","encoding","101","Lens_Camera.jpg","37","0","75"
"6","6","encoding","encoding","102","Tambourine.jpg","0","0","2000"
"6","6","encoding","encoding","103","LifeJacket_BlueYellow.jpg","37","0","1401"
"6","6","encoding","encoding","104","TelescopeSpacecraft.jpg","37","0","30"
"6","6","encoding","encoding","105","Clock_Wall.jpg","37","0","493"
"6","6","encoding","encoding","106","Almond.jpg","36","0","88"
"6","6","encoding","encoding","107","Horn_Hunting.jpg","37","0","574"
"6","6","encoding","encoding","108","ShakerShekere.jpg","36","0","293"
"6","6","encoding","encoding","109","Lectern.jpg","36","0","406"
"6","6","encoding","encoding","110","Cheesegrater_Handheld.jpg","36","0","361"
"6","6","encoding","encoding","111","ComputerMouse.jpg","37","0","72"
"6","6","encoding","encoding","112","PeasSplit.jpg","36","0","28"
"6","6","encoding","encoding","113","Lollipop_Rainbow.jpg","36","0","6"
"6","6","encoding","encoding","114","RecorderInstrument.jpg","37","0","110"
"6","6","encoding","encoding","115","Dog_CockerSpaniel.jpg","0","0","2000"
"6","6","encoding","encoding","116","Desk_Office.jpg","37","0","151"
"6","6","encoding","encoding","117","Sign_Caution.jpg","36","0","45"
"6","6","encoding","encoding","118","Statue_ManHorse.jpg","37","0","121"
"6","6","encoding","encoding","119","PassionFruit.jpg","36","0","126"
"6","6","encoding","encoding","120","Milkshake_StrawberryStraw.jpg","36","0","55"
"6","6","encoding","encoding","121","Toy_BlocksLetter.jpg","37","0","139"
"6","6","encoding","encoding","123","Shoe_WomenHeals.jpg","36","0","213"
"6","6","encoding","encoding","124","Fan_Straw.jpg","37","0","43"
"6","6","encoding","encoding","125","Notepad.jpg","37","0","155"
"6","6","encoding","encoding","126","Toy_Octopus.jpg","37","0","75"
"6","6","encoding","encoding","127","Shirt_SportsJersey.jpg","36","0","83"
"6","6","encoding","encoding","128","DoorKnob.jpg","37","0","12"
"6","6","encoding","encoding","129","Shorts_Plaid.jpg","37","0","131"
"6","6","encoding","encoding","130","FlipFlop_SingleRed.jpg","36","0","45"
"6","6","encoding","encoding","131","Table_Side.jpg","36","0","100"
"6","6","encoding","encoding","132","Chicken_FriedWing.jpg","36","0","86"
"6","6","encoding","encoding","133","Light_PostIsolated.jpg","37","0","175"
"6","6","encoding","encoding","134","Bells_Christmas.jpg","37","0","9"
"6","6","encoding","encoding","135","BookShelf.jpg","37","0","84"
"6","6","encoding","encoding","136","Chicken_Raw.jpg","36","0","15"
"6","6","encoding","encoding","137","Flower_Basket.jpg","36","0","35"
"6","6","encoding","encoding","138","Flute_Wooden.jpg","37","0","61"
"6","6","encoding","encoding","139","Weathervane.jpg","36","0","38"
"6","6","encoding","encoding","140","Toy_Ladybug.jpg","36","0","98"
"6","6","encoding","encoding","141","TowelRack_Metal.jpg","37","0","32"
"6","6","encoding","encoding","142","Cannon.jpg","36","0","14"
"6","6","encoding","encoding","143","Shovel_Garden.jpg","36","0","105"
"6","6","encoding","encoding","144","Doll_Rag.jpg","37","0","100"
"6","6","encoding","encoding","145","Spoons_MeasuringDetached.jpg","36","0","155"
"6","6","encoding","encoding","146","Watch.jpg","37","0","164"
"6","6","encoding","encoding","147","Shoes_Snowboarding.jpg","37","0","154"
"6","6","encoding","encoding","148","Camera_ProfessionalFilm.jpg","37","0","1031"
"6","6","encoding","encoding","149","Gecko.jpg","36","0","88"
"6","6","encoding","encoding","150","SatelliteDish.jpg","36","0","155"
"6","6","encoding","encoding","151","Sign_HumpBridgeAhead.jpg","36","0","38"
"6","6","encoding","encoding","152","Cinnamonroll.jpg","36","0","106"
"6","6","encoding","encoding","153","Ball_Football.jpg","37","0","64"
"6","6","encoding","encoding","154","Lock_Door.jpg","36","0","42"
"6","6","encoding","encoding","155","Shield_Antique.jpg","37","0","159"
"6","6","encoding","encoding","156","Helmet_Construction.jpg","37","0","65"
"6","6","encoding","encoding","157","NailPolish.jpg","36","0","137"
"6","6","encoding","encoding","158","Card_Deck.jpg","37","0","120"
"6","6","encoding","encoding","159","Pancakes.jpg","36","0","140"
"6","6","encoding","encoding","160","Toolbox_Red.jpg","37","0","1"
"6","6","encoding","encoding","161","Envelope_Letter.jpg","36","0","30"
"6","6","encoding","encoding","162","ShoppingCart.jpg","37","0","144"
"6","6","encoding","encoding","163","Rock_Agate.jpg","36","0","102"
"6","6","encoding","encoding","164","Stick_Bridge.jpg","36","0","8"
"6","6","encoding","encoding","165","Bag_Gym.jpg","37","0","54"
"6","6","encoding","encoding","166","SculptureMetalFish.jpg","37","0","133"
"6","6","encoding","encoding","167","Lock_Bike.jpg","36","0","224"
"6","6","encoding","encoding","168","Bottle_Wine.jpg","37","0","384"
"6","6","encoding","encoding","169","Archery_Arrows.jpg","36","0","104"
"6","6","encoding","encoding","170","Platter_Vegetables.jpg","36","0","34"
"6","6","encoding","encoding","171","Drink_Green.jpg","37","0","21"
"6","6","encoding","encoding","172","Gametable_AirHockey.jpg","36","0","198"
"6","6","encoding","encoding","173","SaltShaker.jpg","36","0","176"
"6","6","encoding","encoding","174","Honeycomb.jpg","36","0","278"
"6","6","encoding","encoding","175","DrinkShaker.jpg","37","0","117"
"6","6","encoding","encoding","176","Sieve_TopView.jpg","37","0","151"
"6","6","encoding","encoding","177","Puzzle_Animal.jpg","37","0","409"
"6","6","retrieval","new_objects","1","Birdhouse.jpg","37","1","48"
"6","6","retrieval","old_objects","2","BicycleChain.jpg","37","0","91"
"6","6","retrieval","old_objects","3","Monitor.jpg","37","0","60"
"6","6","retrieval","new_objects","4","ShoeLace_Round.jpg","0","0","2000"
"6","6","retrieval","old_objects","5","Lollipop_Rainbow.jpg","36","1","28"
"6","6","retrieval","old_objects","6","Screw.jpg","36","1","152"
"6","6","retrieval","new_objects","7","Clam.jpg","36","0","43"
"6","6","retrieval","new_objects","8","StickyTack.jpg","37","1","231"
"6","6","retrieval","new_objects","9","Heater_Outdoor.jpg","36","0","82"
"6","6","retrieval","old_objects","10","Puzzle_Animal.jpg","36","1","105"
"6","6","retrieval","new_objects","11","Makeup_Foundation.jpg","37","1","299"
"6","6","retrieval","old_objects","12","Toy_Octopus.jpg","37","0","170"
"6","6","retrieval","new_objects","13","Syrup_Maple.jpg","37","1","108"
"6","6","retrieval","old_objects","14","Lock_Door.jpg","36","1","98"
"6","6","retrieval","old_objects","15","PillBottle_Prescription.jpg","37","0","21"
"6","6","retrieval","new_objects","16","Jetski.jpg","37","1","873"
"6","6","retrieval","old_objects","17","Radish.jpg","37","0","145"
"6","6","retrieval","old_objects","18","Slide.jpg","37","0","769"
"6","6","retrieval","new_objects","19","Bell_Hand.jpg","36","0","396"
"6","6","retrieval","new_objects","20","Jar_Honey.jpg","36","0","10"
"6","6","retrieval","old_objects","21","Fan_Straw.jpg","36","1","164"
"6","6","retrieval","new_objects","22","PhoneJack.jpg","36","0","42"
"6","6","retrieval","old_objects","23","DrinkShaker.jpg","36","1","211"
"6","6","retrieval","old_objects","24","Drink_Green.jpg","37","0","18"
"6","6","retrieval","old_objects","25","Snake_Cobra.jpg","37","0","121"
"6","6","retrieval","new_objects","26","Truck_Pickup.jpg","36","0","364"
"6","6","retrieval","new_objects","27","Stick_Drum.jpg","37","1","57"
"6","6","retrieval","old_objects","28","Table_AntiqueWooden.jpg","37","0","182"
"6","6","retrieval","new_objects","29","NailFiles.jpg","37","1","47"
"6","6","retrieval","new_objects","30","PanCooking.jpg","37","1","26"
"6","6","retrieval","new_objects","31","OrigamiPaper.jpg","37","1","94"
"6","6","retrieval","old_objects","32","Lock_Bike.jpg","37","0","44"
"6","6","retrieval","new_objects","33","Mirror_Dental.jpg","36","0","98"
"6","6","retrieval","old_objects","34","IceCream_Popsicle.jpg","36","1","162"
"6","6","retrieval","old_objects","35","ShoppingCart.jpg","37","0","92"
"6","6","retrieval","old_objects","36","Airplane_Commercial.jpg","37","0","190"
"6","6","retrieval","new_objects","37","Waffle.jpg","37","1","172"
"6","6","retrieval","new_objects","38","DogHouse.jpg","37","1","21"
"6","6","retrieval","old_objects","39","Tickets_Blank.jpg","36","1","68"
"6","6","retrieval","old_objects","40","Lei.jpg","37","0","204"
"6","6","retrieval","old_objects","41","Golf_Club.jpg","36","1","160"
"6","6","retrieval","old_objects","42","SaltShaker.jpg","37","0","18"
"6","6","retrieval","new_objects","43","WaterFountain.jpg","36","0","96"
"6","6","retrieval","new_objects","44","FireAlarm.jpg","36","0","152"
"6","6","retrieval","old_objects","45","Helmet_Construction.jpg","36","1","17"
"6","6","retrieval","old_objects","46","Bag_Computer.jpg","36","1","185"
"6","6","retrieval","old_objects","47","Dress_Party.jpg","37","0","16"
"6","6","retrieval","new_objects","48","Sign_Airport.jpg","36","0","173"
"6","6","retrieval","old_objects","49","Stick_Bridge.jpg","37","0","151"
"6","6","retrieval","new_objects","50","Wontons.jpg","37","1","268"
"6","6","retrieval","old_objects","51","Toy_GasPump.jpg","36","1","88"
"6","6","retrieval","old_objects","52","Gametable_AirHockey.jpg","36","1","73"
"6","6","retrieval","old_objects","53","Toolbox_Old.jpg","36","1","105"
"6","6","retrieval","old_objects","54","Cheesegrater_Handheld.jpg","36","1","22"
"6","6","retrieval","old_objects","55","Can_Peas.jpg","37","0","122"
"6","6","retrieval","old_objects","56","BookShelf.jpg","36","1","183"
"6","6","retrieval","new_objects","57","Toy_DonkeyFur.jpg","36","0","25"
"6","6","retrieval","old_objects","58","TowelRack_Metal.jpg","37","0","21"
"6","6","retrieval","old_objects","59","SatelliteDish.jpg","37","0","94"
"6","6","retrieval","new_objects","60","Garbage_Can.jpg","37","1","40"
"6","6","retrieval","new_objects","62","Hat_Baseball.jpg","37","1","174"
"6","6","retrieval","new_objects","63","Puzzle_Piece.jpg","36","0","62"
"6","6","retrieval","new_objects","64","Tag_Identifier.jpg","37","1","52"
"6","6","retrieval","new_objects","65","Pepperoni.jpg","37","1","90"
"6","6","retrieval","old_objects","66","Desk_Office.jpg","37","0","133"
"6","6","retrieval","new_objects","67","Pillow_Heart.jpg","36","0","155"
"6","6","retrieval","new_objects","68","Keychain_Leather.jpg","36","0","155"
"6","6","retrieval","old_objects","69","Clamp_Screw.jpg","37","0","84"
"6","6","retrieval","new_objects","70","Toy_MrPotatoHeadjpg.jpg","36","0","134"
"6","6","retrieval","new_objects","71","PortaPotty.jpg","36","0","95"
"6","6","retrieval","new_objects","72","MoneyBill50.jpg","36","0","107"
"6","6","retrieval","new_objects","73","Jar_Money.jpg","36","0","127"
"6","6","retrieval","new_objects","74","DentistOverheadLight.jpg","37","1","310"
"6","6","retrieval","old_objects","75","Toy_Ladybug.jpg","37","0","32"
"6","6","retrieval","new_objects","76","Nightstand.jpg","37","1","116"
"6","6","retrieval","old_objects","77","NailPolish.jpg","36","1","93"
"6","6","retrieval","old_objects","78","Statue_ManHorse.jpg","36","1","129"
"6","6","retrieval","old_objects","79","Ruler_Wooden.jpg","36","1","143"
"6","6","retrieval","new_objects","80","Bucket_Champagne.jpg","36","0","185"
"6","6","retrieval","old_objects","81","Lilypad.jpg","36","1","87"
"6","6","retrieval","old_objects","82","Bowl_Fruits.jpg","36","1","82"
"6","6","retrieval","old_objects","83","Card_Deck.jpg","37","0","126"
"6","6","retrieval","old_objects","84","Shoes_Mould.jpg","37","0","353"
"6","6","retrieval","old_objects","85","Bag_Gym.jpg","37","0","58"
"6","6","retrieval","old_objects","86","Scorpion.jpg","36","1","418"
"6","6","retrieval","new_objects","87","Flower_Orchid.jpg","37","1","96"
"6","6","retrieval","new_objects","88","Lighter_Yellow.jpg","37","1","512"
"6","6","retrieval","old_objects","89","Watch.jpg","37","0","495"
"6","6","retrieval","old_objects","90","Lens_Camera.jpg","36","1","88"
"6","6","retrieval","new_objects","91","Statue_Horse.jpg","36","0","98"
"6","6","retrieval","new_objects","92","HardDrive.jpg","36","0","121"
"6","6","retrieval","new_objects","93","Can_Gas.jpg","36","0","154"
"6","6","retrieval","old_objects","94","Horn_Hunting.jpg","36","1","203"
"6","6","retrieval","old_objects","95","PatioHeater.jpg","36","1","100"
"6","6","retrieval","new_objects","96","Clothespin_Beige.jpg","37","1","153"
"6","6","retrieval","new_objects","97","CraneMachine.jpg","37","1","115"
"6","6","retrieval","old_objects","98","Clock_Digital.jpg","37","0","139"
"6","6","retrieval","old_objects","99","Dart.jpg","36","1","336"
"6","6","retrieval","old_objects","100","SkullDeer.jpg","37","0","243"
"6","6","retrieval","new_objects","101","PostageStamps.jpg","37","1","60"
"6","6","retrieval","old_objects","102","Corn.jpg","37","0","112"
"6","6","retrieval","old_objects","103","Pancakes.jpg","37","0","133"
