"group","subject","blockcode","trialcode","trialnum","values.stimulus","response","correct","latency"
"3","3","encoding","encoding","1","House_Stone.jpg","37","0","892"
"3","3","encoding","encoding","2","Fruit_Orange.jpg","36","0","390"
"3","3","encoding","encoding","3","Tie.jpg","36","0","911"
"3","3","encoding","encoding","4","Pants.jpg","36","0","890"
"3","3","encoding","encoding","5","Binoculars.jpg","36","0","969"
"3","3","encoding","encoding","6","ToothPaste.jpg","37","0","803"
"3","3","encoding","encoding","7","RollerCoaster.jpg","37","0","952"
"3","3","encoding","encoding","8","Candy_Heart.jpg","36","0","917"
"3","3","encoding","encoding","9","WindowBlinds.jpg","36","0","871"
"3","3","encoding","encoding","10","Guitar_Electric.jpg","36","0","1155"
"3","3","encoding","encoding","11","Milkshake_Chocolate.jpg","36","0","1018"
"3","3","encoding","encoding","12","MobilityScooter.jpg","37","0","722"
"3","3","encoding","encoding","13","RecordPlayer.jpg","36","0","819"
"3","3","encoding","encoding","14","CarSuspension.jpg","36","0","897"
"3","3","encoding","encoding","15","Basket_Bread.jpg","36","0","820"
"3","3","encoding","encoding","16","Taco.jpg","36","0","660"
"3","3","encoding","encoding","17","CoffeePot.jpg","36","0","716"
"3","3","encoding","encoding","18","Zucchini.jpg","36","0","915"
"3","3","encoding","encoding","19","FlintIgniter.jpg","36","0","1007"
"3","3","encoding","encoding","20","HairBand.jpg","36","0","892"
"3","3","encoding","encoding","21","HDMIConnector.jpg","36","0","907"
"3","3","encoding","encoding","22","Can_MilkAntique.jpg","36","0","838"
"3","3","encoding","encoding","23","ReindeerHeadband.jpg","36","0","787"
"3","3","encoding","encoding","24","OrangeBlood.jpg","36","0","990"
"3","3","encoding","encoding","25","Lemon.jpg","36","0","684"
"3","3","encoding","encoding","26","Stroller.jpg","37","0","1326"
"3","3","encoding","encoding","27","Pasta_Fettuccine.jpg","36","0","966"
"3","3","encoding","encoding","28","Bindings_Snowboard.jpg","37","0","1173"
"3","3","encoding","encoding","29","Bat_Baseball.jpg","37","0","875"
"3","3","encoding","encoding","30","DormerWindow.jpg","37","0","804"
"3","3","encoding","encoding","31","CheeseSlicer.jpg","36","0","1090"
"3","3","encoding","encoding","32","MilkJug.jpg","36","0","930"
"3","3","encoding","encoding","33","FoodMill.jpg","36","0","870"
"3","3","encoding","encoding","34","Brace_Back.jpg","36","0","819"
"3","3","encoding","encoding","35","Bolt.jpg","37","0","1205"
"3","3","encoding","encoding","36","AngleGrinder.jpg","37","0","1017"
"3","3","encoding","encoding","37","DartBoard.jpg","36","0","963"
"3","3","encoding","encoding","38","MousepadAndMouse.jpg","36","0","789"
"3","3","encoding","encoding","39","MeatGrinder.jpg","36","0","966"
"3","3","encoding","encoding","40","Van.jpg","36","0","929"
"3","3","encoding","encoding","41","PuppetTheatre_BlueRed.jpg","37","0","1039"
"3","3","encoding","encoding","42","Table_Picnic.jpg","37","0","721"
"3","3","encoding","encoding","43","Jar_Cookie.jpg","36","0","788"
"3","3","encoding","encoding","44","WorldMap.jpg","36","0","747"
"3","3","encoding","encoding","45","Instrument_Nyckelharpa.jpg","36","0","793"
"3","3","encoding","encoding","46","Paddle_Beach.jpg","36","0","762"
"3","3","encoding","encoding","47","ShotGlassTray.jpg","36","0","1200"
"3","3","encoding","encoding","48","Garbage_GreenBin.jpg","37","0","849"
"3","3","encoding","encoding","49","KitchenTools.jpg","36","0","939"
"3","3","encoding","encoding","50","Seashell_AlternateTellin.jpg","37","0","826"
"3","3","encoding","encoding","51","Snowboard.jpg","37","0","858"
"3","3","encoding","encoding","52","Shoe_Men.jpg","36","0","1009"
"3","3","encoding","encoding","53","Seahorse.jpg","37","0","1252"
"3","3","encoding","encoding","54","WalkieTalkie_Red.jpg","37","0","945"
"3","3","encoding","encoding","55","CrepeMaker.jpg","36","0","1039"
"3","3","encoding","encoding","56","ComputerKey_Escape.jpg","36","0","881"
"3","3","encoding","encoding","57","Pipe.jpg","37","0","1030"
"3","3","encoding","encoding","58","Cheeseburger.jpg","36","0","848"
"3","3","encoding","encoding","59","Ginger.jpg","37","0","1181"
"3","3","encoding","encoding","60","RollingPin.jpg","36","0","803"
"3","3","encoding","encoding","62","Scrabble.jpg","36","0","1049"
"3","3","encoding","encoding","63","Jacket_Jean.jpg","36","0","854"
"3","3","encoding","encoding","64","Trash_Medical.jpg","36","0","1010"
"3","3","encoding","encoding","65","Loveseat.jpg","36","0","769"
"3","3","encoding","encoding","66","Heater_Infrared.jpg","36","0","983"
"3","3","encoding","encoding","67","Ball_Disco.jpg","36","0","768"
"3","3","encoding","encoding","68","Baster.jpg","36","0","851"
"3","3","encoding","encoding","69","Radio_Antique.jpg","36","0","902"
"3","3","encoding","encoding","70","Flower_Crane.jpg","37","0","1023"
"3","3","encoding","encoding","71","AmpMeter.jpg","36","0","1288"
"3","3","encoding","encoding","72","PillBottle_Spilled.jpg","36","0","958"
"3","3","encoding","encoding","73","Fruit_Carambola.jpg","36","0","873"
"3","3","encoding","encoding","74","Golf_Bag.jpg","37","0","1112"
"3","3","encoding","encoding","75","CompassCardinal.jpg","37","0","1374"
"3","3","encoding","encoding","76","Box_Floral.jpg","36","0","695"
"3","3","encoding","encoding","77","Crackers_Ritz.jpg","36","0","815"
"3","3","encoding","encoding","78","Carousel copy.jpg","36","0","812"
"3","3","encoding","encoding","79","ScaleWeighing.jpg","36","0","794"
"3","3","encoding","encoding","80","Jug_GallonRed.jpg","37","0","851"
"3","3","encoding","encoding","81","Candleholder_Tall.jpg","37","0","159"
"3","3","encoding","encoding","82","ButterChurn.jpg","36","0","1271"
"3","3","encoding","encoding","83","MagazineRoll.jpg","36","0","927"
"3","3","encoding","encoding","84","Gorilla.jpg","37","0","870"
"3","3","encoding","encoding","85","Sandwich_Egg.jpg","36","0","749"
"3","3","encoding","encoding","86","Coin.jpg","36","0","873"
"3","3","encoding","encoding","87","Giraffe.jpg","37","0","984"
"3","3","encoding","encoding","88","Toy_SeeSaw.jpg","37","0","948"
"3","3","encoding","encoding","89","Hanger.jpg","36","0","848"
"3","3","encoding","encoding","90","Jar_Canopic.jpg","36","0","789"
"3","3","encoding","encoding","91","Button.jpg","36","0","1046"
"3","3","encoding","encoding","92","Sign_SpeedLimit30.jpg","37","0","837"
"3","3","encoding","encoding","93","Binder.jpg","36","0","1008"
"3","3","encoding","encoding","94","Microphone.jpg","36","0","927"
"3","3","encoding","encoding","95","Toy_Turtle.jpg","36","0","879"
"3","3","encoding","encoding","96","Bottle_BubbleBlower.jpg","36","0","817"
"3","3","encoding","encoding","97","Glasses_Reading.jpg","36","0","1009"
"3","3","encoding","encoding","98","Chair_Rocking.jpg","36","0","942"
"3","3","encoding","encoding","99","BearPolar.jpg","37","0","817"
"3","3","encoding","encoding","100","IceScraper.jpg","36","0","899"
"3","3","encoding","encoding","101","TowelRack_Brown.jpg","36","0","857"
"3","3","encoding","encoding","102","Headphones.jpg","36","0","774"
"3","3","encoding","encoding","103","TeethModel.jpg","36","0","840"
"3","3","encoding","encoding","104","LaundryHamper.jpg","36","0","812"
"3","3","encoding","encoding","105","Clamp.jpg","37","0","1197"
"3","3","encoding","encoding","106","PaperTowel_Kitchen.jpg","36","0","899"
"3","3","encoding","encoding","107","Sign_SpeedLimit25.jpg","37","0","799"
"3","3","encoding","encoding","108","Boar.jpg","37","0","806"
"3","3","encoding","encoding","109","PedestalGreek.jpg","36","0","832"
"3","3","encoding","encoding","110","Car_Ferrari.jpg","36","0","931"
"3","3","encoding","encoding","111","PagodaModel.jpg","36","0","1275"
"3","3","encoding","encoding","112","BicycleBrake.jpg","36","0","950"
"3","3","encoding","encoding","113","Film_Roll.jpg","36","0","967"
"3","3","encoding","encoding","114","Dog_SaintBernard.jpg","37","0","808"
"3","3","encoding","encoding","115","Lettuce_Iceberg.jpg","36","0","1016"
"3","3","encoding","encoding","116","LetterMail.jpg","37","0","982"
"3","3","encoding","encoding","117","Croissant.jpg","36","0","1239"
"3","3","encoding","encoding","118","Saw.jpg","37","0","1000"
"3","3","encoding","encoding","119","Hook_Double.jpg","37","0","1066"
"3","3","encoding","encoding","120","Truck_VintageBlue.jpg","37","0","776"
"3","3","encoding","encoding","121","Apple_RedAndGreen.jpg","36","0","896"
"3","3","encoding","encoding","123","Glass_Wine.jpg","36","0","770"
"3","3","encoding","encoding","124","SoapBottle.jpg","36","0","898"
"3","3","encoding","encoding","125","Chinchilla.jpg","37","0","788"
"3","3","encoding","encoding","126","Mug_Ceramic.jpg","36","0","872"
"3","3","encoding","encoding","127","SpaceRover.jpg","36","0","770"
"3","3","encoding","encoding","128","Tractor_Orange.jpg","37","0","808"
"3","3","encoding","encoding","129","Egg_Cup.jpg","36","0","904"
"3","3","encoding","encoding","130","Cup_Bathroom.jpg","36","0","816"
"3","3","encoding","encoding","131","Handbag.jpg","36","0","1104"
"3","3","encoding","encoding","132","Hulahoop.jpg","36","0","811"
"3","3","encoding","encoding","133","Tape_Clear.jpg","36","0","818"
"3","3","encoding","encoding","134","Chair_BeanBag.jpg","36","0","911"
"3","3","encoding","encoding","135","Exercise_Stepper.jpg","36","0","853"
"3","3","encoding","encoding","136","Sock_Ankle.jpg","36","0","747"
"3","3","encoding","encoding","137","ToothBrush.jpg","36","0","766"
"3","3","encoding","encoding","138","Battery_AA.jpg","36","0","709"
"3","3","encoding","encoding","139","Bamboo.jpg","37","0","780"
"3","3","encoding","encoding","140","Mask_Gas.jpg","36","0","952"
"3","3","encoding","encoding","141","Cactus.jpg","36","0","837"
"3","3","encoding","encoding","142","Cast.jpg","36","0","953"
"3","3","encoding","encoding","143","Mask_CPR.jpg","36","0","865"
"3","3","encoding","encoding","144","Guitarcase.jpg","36","0","902"
"3","3","encoding","encoding","145","Ambulance.jpg","37","0","839"
"3","3","encoding","encoding","146","Hook_Fishing.jpg","37","0","853"
"3","3","encoding","encoding","147","Box_Wine.jpg","36","0","894"
"3","3","encoding","encoding","148","Bowl_Wooden.jpg","36","0","808"
"3","3","encoding","encoding","149","NailClipper.jpg","36","0","798"
"3","3","encoding","encoding","150","SpiderWeb.jpg","37","0","1073"
"3","3","encoding","encoding","151","Helmet_Motorcycle.jpg","37","0","1048"
"3","3","encoding","encoding","152","Light_Studio.jpg","36","0","847"
"3","3","encoding","encoding","153","Bowtie.jpg","36","0","793"
"3","3","encoding","encoding","154","VialLab.jpg","36","0","754"
"3","3","encoding","encoding","155","Amp.jpg","36","0","771"
"3","3","encoding","encoding","156","BasketballHoop.jpg","37","0","875"
"3","3","encoding","encoding","157","HandMixer.jpg","36","0","854"
"3","3","encoding","encoding","158","Purse.jpg","36","0","923"
"3","3","encoding","encoding","159","Jars_PetFood.jpg","36","0","867"
"3","3","encoding","encoding","160","Plunger.jpg","0","0","2000"
"3","3","encoding","encoding","161","Toy_Helicopter.jpg","36","0","834"
"3","3","encoding","encoding","162","Paddle_PingPong.jpg","36","0","774"
"3","3","encoding","encoding","163","Shoes_Pumps.jpg","36","0","849"
"3","3","encoding","encoding","164","SetSquare.jpg","37","0","981"
"3","3","encoding","encoding","165","Bag_Saline.jpg","36","0","1102"
"3","3","encoding","encoding","166","Barometer.jpg","36","0","1644"
"3","3","encoding","encoding","167","DoorHandle.jpg","36","0","1150"
"3","3","encoding","encoding","168","DogLeash.jpg","36","0","767"
"3","3","encoding","encoding","169","Tube.jpg","37","0","1181"
"3","3","encoding","encoding","170","Goat.jpg","37","0","710"
"3","3","encoding","encoding","171","Joystick.jpg","36","0","701"
"3","3","encoding","encoding","172","Candy_Cane.jpg","36","0","705"
"3","3","encoding","encoding","173","WireStripper.jpg","36","0","921"
"3","3","encoding","encoding","174","Brooch_Fish.jpg","36","0","857"
"3","3","encoding","encoding","175","Pliers_NeedleNose.jpg","37","0","1040"
"3","3","encoding","encoding","176","Arch_Triomphe.jpg","37","0","926"
"3","3","encoding","encoding","177","Iguana.jpg","37","0","786"
"3","3","retrieval","old_objects","1","Toy_SeeSaw.jpg","36","1","1124"
"3","3","retrieval","old_objects","2","PillBottle_Spilled.jpg","36","1","687"
"3","3","retrieval","new_objects","3","Trowel.jpg","37","1","848"
"3","3","retrieval","old_objects","4","Candleholder_Tall.jpg","37","0","643"
"3","3","retrieval","new_objects","5","Sword.jpg","37","1","623"
"3","3","retrieval","new_objects","6","Slippers.jpg","37","1","551"
"3","3","retrieval","old_objects","7","Crackers_Ritz.jpg","37","0","601"
"3","3","retrieval","new_objects","8","Toy_MerryGoRound.jpg","36","0","1091"
"3","3","retrieval","old_objects","9","Binoculars.jpg","36","1","640"
"3","3","retrieval","new_objects","10","Playground.jpg","37","1","781"
"3","3","retrieval","new_objects","11","Pepper_Chili.jpg","37","1","697"
"3","3","retrieval","old_objects","12","Trash_Medical.jpg","36","1","703"
"3","3","retrieval","old_objects","13","Pants.jpg","36","1","859"
"3","3","retrieval","new_objects","14","Bag_Groceries.jpg","37","1","692"
"3","3","retrieval","new_objects","15","Mop.jpg","37","1","742"
"3","3","retrieval","old_objects","16","Flower_Crane.jpg","36","1","636"
"3","3","retrieval","old_objects","17","Hulahoop.jpg","36","1","616"
"3","3","retrieval","old_objects","18","NailClipper.jpg","36","1","601"
"3","3","retrieval","old_objects","19","Jar_Canopic.jpg","36","1","646"
"3","3","retrieval","old_objects","20","Garbage_GreenBin.jpg","36","1","686"
"3","3","retrieval","new_objects","21","Tripod.jpg","37","1","723"
"3","3","retrieval","new_objects","22","Cloud.jpg","37","1","709"
"3","3","retrieval","old_objects","23","Pipe.jpg","37","0","777"
"3","3","retrieval","new_objects","24","Puzzle_Tree.jpg","37","1","945"
"3","3","retrieval","new_objects","25","AlcoholBar.jpg","37","1","680"
"3","3","retrieval","new_objects","26","Corn_Kernels.jpg","37","1","638"
"3","3","retrieval","old_objects","27","Tape_Clear.jpg","36","1","674"
"3","3","retrieval","old_objects","28","PaperTowel_Kitchen.jpg","36","1","636"
"3","3","retrieval","new_objects","29","Panda.jpg","37","1","956"
"3","3","retrieval","new_objects","30","Plate_Wooden.jpg","37","1","727"
"3","3","retrieval","new_objects","31","LightBulb_White.jpg","37","1","616"
"3","3","retrieval","old_objects","32","Film_Roll.jpg","36","1","689"
"3","3","retrieval","old_objects","33","Shoe_Men.jpg","36","1","663"
"3","3","retrieval","new_objects","34","Cassette_Video.jpg","37","1","639"
"3","3","retrieval","new_objects","35","Napkin_Holder.jpg","37","1","686"
"3","3","retrieval","old_objects","36","PuppetTheatre_BlueRed.jpg","36","1","814"
"3","3","retrieval","old_objects","37","ButterChurn.jpg","36","1","572"
"3","3","retrieval","new_objects","38","Ball_Golf.jpg","37","1","671"
"3","3","retrieval","new_objects","39","Toast.jpg","37","1","653"
"3","3","retrieval","new_objects","40","Cannoli.jpg","37","1","629"
"3","3","retrieval","new_objects","41","Car_Sedan.jpg","36","0","806"
"3","3","retrieval","old_objects","42","Egg_Cup.jpg","36","1","962"
"3","3","retrieval","new_objects","43","Hammock.jpg","37","1","953"
"3","3","retrieval","new_objects","44","PenStand.jpg","37","1","753"
"3","3","retrieval","old_objects","45","Chair_Rocking.jpg","36","1","598"
"3","3","retrieval","new_objects","46","PokerChips.jpg","37","1","802"
"3","3","retrieval","new_objects","47","CartonEggs.jpg","37","1","663"
"3","3","retrieval","new_objects","48","GutterAndDrainPipe.jpg","37","1","675"
"3","3","retrieval","old_objects","49","Battery_AA.jpg","36","1","580"
"3","3","retrieval","old_objects","50","Glass_Wine.jpg","36","1","865"
"3","3","retrieval","new_objects","51","Distaff.jpg","37","1","742"
"3","3","retrieval","old_objects","52","Bamboo.jpg","36","1","712"
"3","3","retrieval","new_objects","53","Triangle.jpg","37","1","634"
"3","3","retrieval","old_objects","54","Bowtie.jpg","36","1","717"
"3","3","retrieval","new_objects","55","Sushi.jpg","37","1","636"
"3","3","retrieval","new_objects","56","Socks_Baby.jpg","36","0","721"
"3","3","retrieval","old_objects","57","Box_Floral.jpg","36","1","1122"
"3","3","retrieval","old_objects","58","VialLab.jpg","36","1","882"
"3","3","retrieval","new_objects","59","Sled.jpg","37","1","645"
"3","3","retrieval","new_objects","60","Bottle_Champagne.jpg","37","1","771"
"3","3","retrieval","old_objects","62","BearPolar.jpg","36","1","1229"
"3","3","retrieval","new_objects","63","Light_Siren.jpg","36","0","695"
"3","3","retrieval","new_objects","64","DoorBolt.jpg","37","1","666"
"3","3","retrieval","new_objects","65","Bread_Pita.jpg","37","1","671"
"3","3","retrieval","old_objects","66","Radio_Antique.jpg","36","1","777"
"3","3","retrieval","new_objects","67","Hoodie.jpg","37","1","776"
"3","3","retrieval","new_objects","68","Bucket_WoodenDark.jpg","37","1","573"
"3","3","retrieval","old_objects","69","LetterMail.jpg","37","0","539"
"3","3","retrieval","old_objects","70","CompassCardinal.jpg","36","1","1067"
"3","3","retrieval","old_objects","71","Cheeseburger.jpg","36","1","684"
"3","3","retrieval","old_objects","72","ScaleWeighing.jpg","37","0","705"
"3","3","retrieval","old_objects","73","Tractor_Orange.jpg","36","1","749"
"3","3","retrieval","new_objects","74","Toy_Witch.jpg","37","1","612"
"3","3","retrieval","old_objects","75","Fruit_Orange.jpg","36","1","639"
"3","3","retrieval","old_objects","76","Gorilla.jpg","36","1","731"
"3","3","retrieval","new_objects","77","Bird_Falcon.jpg","37","1","679"
"3","3","retrieval","old_objects","78","Purse.jpg","37","0","808"
"3","3","retrieval","new_objects","79","Shoe_Sneaker.jpg","37","1","673"
"3","3","retrieval","new_objects","80","Cherry.jpg","37","1","638"
"3","3","retrieval","new_objects","81","DJMixer.jpg","37","1","752"
"3","3","retrieval","new_objects","82","Bottle_CosmeticSpray.jpg","37","1","769"
"3","3","retrieval","old_objects","83","AmpMeter.jpg","36","1","752"
"3","3","retrieval","new_objects","84","WashingMachine.jpg","37","1","650"
"3","3","retrieval","old_objects","85","BicycleBrake.jpg","37","0","1022"
"3","3","retrieval","new_objects","86","Cannister_GasVintage.jpg","37","1","1152"
"3","3","retrieval","new_objects","87","Igloo.jpg","37","1","673"
"3","3","retrieval","old_objects","88","Golf_Bag.jpg","36","1","794"
"3","3","retrieval","new_objects","89","Spoon_WoodenLight.jpg","37","1","1317"
"3","3","retrieval","new_objects","90","Pitcher.jpg","37","1","719"
"3","3","retrieval","old_objects","91","Snowboard.jpg","36","1","853"
"3","3","retrieval","old_objects","92","Heater_Infrared.jpg","37","0","690"
"3","3","retrieval","old_objects","93","MeatGrinder.jpg","36","1","740"
"3","3","retrieval","old_objects","94","PagodaModel.jpg","36","1","629"
"3","3","retrieval","new_objects","95","Brush_Light.jpg","37","1","733"
"3","3","retrieval","old_objects","96","SpiderWeb.jpg","36","1","890"
"3","3","retrieval","old_objects","97","Brace_Back.jpg","36","1","783"
"3","3","retrieval","new_objects","98","Armchair.jpg","37","1","624"
"3","3","retrieval","new_objects","99","Clip_Binder.jpg","37","1","801"
"3","3","retrieval","old_objects","100","HandMixer.jpg","36","1","741"
"3","3","retrieval","old_objects","101","CoffeePot.jpg","36","1","636"
"3","3","retrieval","new_objects","102","Spoons_Musical.jpg","36","0","820"
"3","3","retrieval","new_objects","103","GasBurner.jpg","37","1","730"
"3","3","retrieval","old_objects","104","Stroller.jpg","37","0","961"
"3","3","retrieval","new_objects","105","Bagpipes.jpg","37","1","1122"
"3","3","retrieval","old_objects","106","Sock_Ankle.jpg","36","1","803"
"3","3","retrieval","new_objects","107","Mug_Beer.jpg","37","1","910"
"3","3","retrieval","new_objects","108","HedgeShears.jpg","37","1","845"
"3","3","retrieval","old_objects","109","Car_Ferrari.jpg","36","1","632"
"3","3","retrieval","old_objects","110","WalkieTalkie_Red.jpg","37","0","722"
"3","3","retrieval","new_objects","111","Keyhole.jpg","37","1","838"
"3","3","retrieval","old_objects","112","TeethModel.jpg","36","1","750"
"3","3","retrieval","new_objects","113","ChessPiece_Bishop.jpg","37","1","818"
"3","3","retrieval","new_objects","114","Shrub_Boxwood.jpg","37","1","741"
"3","3","retrieval","old_objects","115","Box_Wine.jpg","36","1","659"
"3","3","retrieval","old_objects","116","Binder.jpg","36","1","689"
"3","3","retrieval","old_objects","117","Fruit_Carambola.jpg","36","1","770"
"3","3","retrieval","old_objects","118","Pasta_Fettuccine.jpg","36","1","771"
"3","3","retrieval","old_objects","119","Candy_Heart.jpg","36","1","776"
"3","3","retrieval","new_objects","120","Spoon_Serving.jpg","37","1","711"
"3","3","retrieval","old_objects","121","Amp.jpg","36","1","954"
"3","3","retrieval","old_objects","123","Microphone.jpg","36","1","938"
"3","3","retrieval","new_objects","124","Jar_Empty.jpg","37","1","823"
"3","3","retrieval","old_objects","125","CheeseSlicer.jpg","37","0","1127"
"3","3","retrieval","old_objects","126","Table_Picnic.jpg","36","1","820"
"3","3","retrieval","new_objects","127","SmokingPipe.jpg","37","1","738"
"3","3","retrieval","old_objects","128","Truck_VintageBlue.jpg","36","1","970"
"3","3","retrieval","old_objects","129","Handbag.jpg","36","1","713"
"3","3","retrieval","new_objects","130","BrainSagittal.jpg","37","1","754"
"3","3","retrieval","old_objects","131","Loveseat.jpg","36","1","801"
"3","3","retrieval","old_objects","132","Plunger.jpg","36","1","793"
"3","3","retrieval","new_objects","133","Barbecue_Gas.jpg","37","1","811"
"3","3","retrieval","old_objects","134","Jacket_Jean.jpg","36","1","764"
"3","3","retrieval","old_objects","135","Bolt.jpg","36","1","714"
"3","3","retrieval","old_objects","136","CrepeMaker.jpg","37","0","794"
"3","3","retrieval","old_objects","137","Saw.jpg","36","1","873"
"3","3","retrieval","old_objects","138","Sandwich_Egg.jpg","36","1","830"
"3","3","retrieval","new_objects","139","PaintRollTray.jpg","37","1","814"
"3","3","retrieval","old_objects","140","Iguana.jpg","36","1","788"
"3","3","retrieval","new_objects","141","CodeDoorLock.jpg","37","1","660"
"3","3","retrieval","old_objects","142","Apple_RedAndGreen.jpg","36","1","1057"
"3","3","retrieval","new_objects","143","Toy_PoliceCar.jpg","37","1","737"
"3","3","retrieval","new_objects","144","Snail.jpg","37","1","831"
"3","3","retrieval","new_objects","145","MeatRaw.jpg","37","1","763"
"3","3","retrieval","old_objects","146","Ball_Disco.jpg","36","1","747"
"3","3","retrieval","new_objects","147","Figurine_Ballerina.jpg","37","1","1180"
"3","3","retrieval","old_objects","148","Lemon.jpg","36","1","900"
"3","3","retrieval","old_objects","149","Glasses_Reading.jpg","36","1","754"
"3","3","retrieval","old_objects","150","Cactus.jpg","36","1","811"
"3","3","retrieval","old_objects","151","Cup_Bathroom.jpg","36","1","796"
"3","3","retrieval","old_objects","152","Light_Studio.jpg","36","1","803"
"3","3","retrieval","old_objects","153","Arch_Triomphe.jpg","36","1","757"
"3","3","retrieval","old_objects","154","Coin.jpg","36","1","748"
"3","3","retrieval","old_objects","155","Paddle_PingPong.jpg","37","0","1002"
"3","3","retrieval","new_objects","156","Clippers_Glass.jpg","37","1","766"
"3","3","retrieval","old_objects","157","Jar_Cookie.jpg","36","1","923"
"3","3","retrieval","new_objects","158","Origami_Bird.jpg","37","1","921"
"3","3","retrieval","new_objects","159","TartStrawberry.jpg","37","1","779"
"3","3","retrieval","new_objects","160","Gun_Revolver.jpg","37","1","751"
"3","3","retrieval","old_objects","161","Baster.jpg","36","1","733"
"3","3","retrieval","new_objects","162","Bottle_Baby.jpg","37","1","928"
"3","3","retrieval","new_objects","163","Comb_1.jpg","37","1","807"
"3","3","retrieval","old_objects","164","Carousel copy.jpg","36","1","792"
"3","3","retrieval","old_objects","165","Giraffe.jpg","36","1","672"
"3","3","retrieval","new_objects","166","Case_Leather.jpg","37","1","786"
"3","3","retrieval","old_objects","167","LaundryHamper.jpg","36","1","758"
"3","3","retrieval","old_objects","168","Bat_Baseball.jpg","36","1","712"
"3","3","retrieval","new_objects","169","Ostrich.jpg","37","1","782"
"3","3","retrieval","new_objects","170","MixingGlass.jpg","37","1","639"
"3","3","retrieval","new_objects","171","Pot_FlowerClay.jpg","37","1","823"
"3","3","retrieval","old_objects","172","DartBoard.jpg","36","1","702"
"3","3","retrieval","old_objects","173","RollerCoaster.jpg","36","1","1047"
"3","3","retrieval","old_objects","174","KitchenTools.jpg","36","1","749"
"3","3","retrieval","new_objects","175","Pot_Crock.jpg","37","1","688"
"3","3","retrieval","new_objects","176","Cabasa.jpg","37","1","682"
"3","3","retrieval","new_objects","177","Telescope.jpg","37","1","756"
"3","3","retrieval","old_objects","178","Exercise_Stepper.jpg","36","1","824"
"3","3","retrieval","new_objects","179","Ship_Battle.jpg","37","1","687"
"3","3","retrieval","old_objects","180","Milkshake_Chocolate.jpg","36","1","821"
"3","3","retrieval","new_objects","181","Toy_BearBluePlushie.jpg","37","1","811"
"3","3","retrieval","old_objects","182","Mug_Ceramic.jpg","36","1","719"
"3","3","retrieval","old_objects","184","Guitarcase.jpg","36","1","814"
"3","3","retrieval","new_objects","185","Toy_Lion.jpg","37","1","661"
"3","3","retrieval","new_objects","186","Toy_DinosaurBrontosaurus.jpg","37","1","647"
"3","3","retrieval","new_objects","187","Bottle_Liquor.jpg","37","1","668"
"3","3","retrieval","new_objects","188","Pasta_Macaroni.jpg","37","1","718"
"3","3","retrieval","old_objects","189","ReindeerHeadband.jpg","36","1","874"
"3","3","retrieval","old_objects","190","AngleGrinder.jpg","36","1","798"
"3","3","retrieval","new_objects","191","Seashell_RoseMurex.jpg","37","1","835"
"3","3","retrieval","new_objects","192","Lantern_TeaBox.jpg","37","1","661"
"3","3","retrieval","old_objects","193","ToothPaste.jpg","36","1","831"
"3","3","retrieval","new_objects","194","Dress_Cocktail.jpg","37","1","712"
"3","3","retrieval","new_objects","195","KeyHook_Occupied.jpg","36","0","711"
"3","3","retrieval","new_objects","196","VGAport.jpg","37","1","958"
"3","3","retrieval","new_objects","197","Hawk.jpg","37","1","815"
"3","3","retrieval","old_objects","198","HairBand.jpg","36","1","1012"
"3","3","retrieval","old_objects","199","SetSquare.jpg","36","1","744"
"3","3","retrieval","old_objects","200","Boar.jpg","37","0","629"
"3","3","retrieval","old_objects","201","ShotGlassTray.jpg","36","1","833"
"3","3","retrieval","new_objects","202","Hat_Visor.jpg","37","1","743"
"3","3","retrieval","new_objects","203","Dropper.jpg","37","1","1158"
"3","3","retrieval","new_objects","204","ClothCoaster.jpg","37","1","667"
"3","3","retrieval","old_objects","205","Guitar_Electric.jpg","36","1","640"
"3","3","retrieval","new_objects","206","Bugle.jpg","37","1","739"
"3","3","retrieval","new_objects","207","Calculator.jpg","37","1","746"
"3","3","retrieval","new_objects","208","Fireplace_Outdoor.jpg","37","1","725"
"3","3","retrieval","new_objects","209","Exercise_Bike.jpg","37","1","726"
"3","3","retrieval","new_objects","210","Tap.jpg","37","1","716"
"3","3","retrieval","new_objects","211","Tombstone.jpg","37","1","642"
"3","3","retrieval","new_objects","212","Spool_Thread.jpg","37","1","601"
"3","3","retrieval","old_objects","213","FoodMill.jpg","36","1","859"
"3","3","retrieval","new_objects","214","Tricycle.jpg","37","1","656"
"3","3","retrieval","old_objects","215","WorldMap.jpg","36","1","703"
"3","3","retrieval","old_objects","216","Helmet_Motorcycle.jpg","36","1","793"
"3","3","retrieval","new_objects","217","LawnMower.jpg","37","1","717"
"3","3","retrieval","old_objects","218","HDMIConnector.jpg","36","1","892"
"3","3","retrieval","old_objects","219","OrangeBlood.jpg","36","1","665"
"3","3","retrieval","new_objects","220","Cassette_Audio.jpg","37","1","757"
"3","3","retrieval","old_objects","221","WindowBlinds.jpg","36","1","650"
"3","3","retrieval","old_objects","222","PedestalGreek.jpg","36","1","669"
"3","3","retrieval","old_objects","223","Clamp.jpg","36","1","776"
"3","3","retrieval","old_objects","224","Mask_CPR.jpg","37","0","684"
"3","3","retrieval","old_objects","225","Barometer.jpg","36","1","866"
"3","3","retrieval","old_objects","226","Tube.jpg","36","1","776"
"3","3","retrieval","old_objects","227","Bowl_Wooden.jpg","36","1","766"
"3","3","retrieval","new_objects","228","Bowl_Glass.jpg","37","1","877"
"3","3","retrieval","new_objects","229","Nyala.jpg","37","1","839"
"3","3","retrieval","new_objects","230","Gloves_WhiteKnit.jpg","37","1","942"
"3","3","retrieval","new_objects","231","PotatoMasher_Zigzag.jpg","37","1","728"
"3","3","retrieval","old_objects","232","Can_MilkAntique.jpg","37","0","1154"
"3","3","retrieval","new_objects","233","Shoes_Sneakers.jpg","37","1","1239"
"3","3","retrieval","old_objects","234","RecordPlayer.jpg","36","1","732"
"3","3","retrieval","old_objects","235","Dog_SaintBernard.jpg","36","1","1172"
"3","3","retrieval","old_objects","236","Seahorse.jpg","36","1","730"
"3","3","retrieval","new_objects","237","Mask_Ski.jpg","37","1","868"
"3","3","retrieval","old_objects","238","MagazineRoll.jpg","36","1","830"
"3","3","retrieval","old_objects","239","Sign_SpeedLimit25.jpg","36","1","826"
"3","3","retrieval","new_objects","240","ShowerCap.jpg","36","0","887"
"3","3","retrieval","old_objects","241","SoapBottle.jpg","36","1","903"
"3","3","retrieval","new_objects","242","Bird_Tern.jpg","37","1","683"
"3","3","retrieval","old_objects","243","Brooch_Fish.jpg","36","1","807"
"3","3","retrieval","new_objects","245","ToothbrushHolder.jpg","37","1","1771"
"3","3","retrieval","old_objects","246","Shoes_Pumps.jpg","37","0","631"
"3","3","retrieval","new_objects","247","Chair_Folding.jpg","37","1","777"
"3","3","retrieval","old_objects","248","Toy_Helicopter.jpg","36","1","737"
"3","3","retrieval","new_objects","249","Brush_Paint.jpg","37","1","742"
"3","3","retrieval","old_objects","250","TowelRack_Brown.jpg","36","1","621"
"3","3","retrieval","old_objects","251","Bag_Saline.jpg","36","1","847"
"3","3","retrieval","old_objects","252","Hanger.jpg","36","1","784"
"3","3","retrieval","new_objects","253","Phone_Public.jpg","37","1","715"
"3","3","retrieval","new_objects","254","Coral.jpg","37","1","645"
"3","3","retrieval","new_objects","255","Apple_Candy.jpg","37","1","834"
"3","3","retrieval","old_objects","256","FlintIgniter.jpg","36","1","758"
"3","3","retrieval","old_objects","257","House_Stone.jpg","36","1","693"
"3","3","retrieval","new_objects","258","Funnel.jpg","37","1","816"
"3","3","retrieval","old_objects","259","SpaceRover.jpg","36","1","971"
"3","3","retrieval","old_objects","260","MousepadAndMouse.jpg","36","1","1189"
"3","3","retrieval","old_objects","261","IceScraper.jpg","36","1","779"
"3","3","retrieval","new_objects","262","Cymbals.jpg","37","1","839"
"3","3","retrieval","old_objects","263","Instrument_Nyckelharpa.jpg","36","1","985"
"3","3","retrieval","old_objects","264","Toy_Turtle.jpg","36","1","813"
"3","3","retrieval","old_objects","265","Zucchini.jpg","36","1","752"
"3","3","retrieval","new_objects","266","BicycleReflector.jpg","37","1","758"
"3","3","retrieval","new_objects","267","FuseBox.jpg","37","1","701"
"3","3","retrieval","old_objects","268","Sign_SpeedLimit30.jpg","37","0","885"
"3","3","retrieval","old_objects","269","Scrabble.jpg","36","1","870"
"3","3","retrieval","old_objects","270","Seashell_AlternateTellin.jpg","36","1","839"
"3","3","retrieval","new_objects","271","Belt.jpg","37","1","848"
"3","3","retrieval","new_objects","272","Autocreeper.jpg","37","1","915"
"3","3","retrieval","new_objects","273","Box_WoodCrate.jpg","37","1","790"
"3","3","retrieval","old_objects","274","Mask_Gas.jpg","36","1","712"
"3","3","retrieval","new_objects","275","WateringCan_Antique.jpg","37","1","753"
"3","3","retrieval","new_objects","276","IceCubes.jpg","37","1","764"
"3","3","retrieval","new_objects","277","VacuumHose.jpg","37","1","769"
"3","3","retrieval","old_objects","278","Paddle_Beach.jpg","36","1","758"
"3","3","retrieval","old_objects","279","DormerWindow.jpg","36","1","1211"
"3","3","retrieval","old_objects","280","ToothBrush.jpg","36","1","804"
"3","3","retrieval","old_objects","281","Bindings_Snowboard.jpg","36","1","930"
"3","3","retrieval","old_objects","282","Pliers_NeedleNose.jpg","36","1","721"
"3","3","retrieval","new_objects","283","ToothPick.jpg","37","1","1204"
"3","3","retrieval","old_objects","284","Cast.jpg","36","1","1333"
"3","3","retrieval","old_objects","285","Hook_Fishing.jpg","37","0","1709"
"3","3","retrieval","old_objects","286","Chair_BeanBag.jpg","36","1","750"
"3","3","retrieval","new_objects","287","Shampoo.jpg","37","1","821"
"3","3","retrieval","new_objects","288","Bird_Pelican.jpg","37","1","676"
"3","3","retrieval","new_objects","289","Ruler_Triangle.jpg","37","1","659"
"3","3","retrieval","old_objects","290","Croissant.jpg","37","0","737"
"3","3","retrieval","new_objects","291","Toy_Top.jpg","37","1","727"
"3","3","retrieval","new_objects","292","SiloGrain.jpg","37","1","692"
"3","3","retrieval","new_objects","293","DrainPlug.jpg","37","1","881"
"3","3","retrieval","new_objects","294","Drum_Conga.jpg","37","1","630"
"3","3","retrieval","new_objects","295","Desk_School.jpg","37","1","677"
"3","3","retrieval","old_objects","296","Chinchilla.jpg","37","0","1170"
"3","3","retrieval","new_objects","297","CoolingFan_Engine.jpg","37","1","811"
"3","3","retrieval","new_objects","298","Canteen.jpg","37","1","672"
"3","3","retrieval","new_objects","299","Boat_Ferry.jpg","37","1","800"
"3","3","retrieval","new_objects","300","TubeRing.jpg","37","1","670"
"3","3","retrieval","old_objects","301","Button.jpg","36","1","758"
"3","3","retrieval","old_objects","302","Joystick.jpg","36","1","757"
"3","3","retrieval","new_objects","303","DogFood.jpg","37","1","725"
"3","3","retrieval","old_objects","304","Jars_PetFood.jpg","37","0","984"
"3","3","retrieval","old_objects","306","DoorHandle.jpg","36","1","896"
"3","3","retrieval","old_objects","307","ComputerKey_Escape.jpg","36","1","710"
"3","3","retrieval","old_objects","308","Headphones.jpg","36","1","821"
"3","3","retrieval","old_objects","309","MobilityScooter.jpg","36","1","786"
"3","3","retrieval","old_objects","310","Taco.jpg","36","1","646"
"3","3","retrieval","old_objects","311","Basket_Bread.jpg","36","1","996"
"3","3","retrieval","old_objects","312","Candy_Cane.jpg","36","1","670"
"3","3","retrieval","new_objects","313","Ladle.jpg","37","1","790"
"3","3","retrieval","old_objects","314","Tie.jpg","36","1","871"
"3","3","retrieval","new_objects","315","Eggplant.jpg","36","0","794"
"3","3","retrieval","new_objects","316","IceCreamCone.jpg","36","0","749"
"3","3","retrieval","new_objects","317","Bird_CanadianGoose.jpg","37","1","670"
"3","3","retrieval","old_objects","318","Lettuce_Iceberg.jpg","36","1","914"
"3","3","retrieval","old_objects","319","RollingPin.jpg","36","1","613"
"3","3","retrieval","new_objects","320","Potato.jpg","37","1","1020"
"3","3","retrieval","new_objects","321","Table_Saw.jpg","37","1","984"
"3","3","retrieval","new_objects","322","Magnet_Three.jpg","0","0","2000"
"3","3","retrieval","new_objects","323","Tape_Scotch.jpg","37","1","1045"
"3","3","retrieval","new_objects","324","Spotlight.jpg","36","0","810"
"3","3","retrieval","new_objects","325","Tube_Glue.jpg","36","0","1524"
"3","3","retrieval","new_objects","326","DentalFloss.jpg","37","1","953"
"3","3","retrieval","old_objects","327","WireStripper.jpg","36","1","841"
"3","3","retrieval","new_objects","328","Book_Leather.jpg","37","1","735"
"3","3","retrieval","old_objects","329","CarSuspension.jpg","36","1","1060"
"3","3","retrieval","new_objects","330","Branches_Campfire.jpg","37","1","693"
"3","3","retrieval","new_objects","331","SoundMixer_Blue.jpg","37","1","615"
"3","3","retrieval","old_objects","332","Jug_GallonRed.jpg","36","1","768"
"3","3","retrieval","new_objects","333","Boat_Colourful.jpg","37","1","1022"
"3","3","retrieval","new_objects","334","Mattress.jpg","37","1","734"
"3","3","retrieval","old_objects","335","Ginger.jpg","36","1","838"
"3","3","retrieval","new_objects","336","Dreidel.jpg","37","1","734"
"3","3","retrieval","old_objects","337","Van.jpg","36","1","1024"
"3","3","retrieval","new_objects","338","Tuxedo.jpg","37","1","934"
"3","3","retrieval","old_objects","339","DogLeash.jpg","37","0","1617"
"3","3","retrieval","new_objects","340","WindshieldWasherFluid.jpg","37","1","1076"
"3","3","retrieval","new_objects","341","Chair_High.jpg","37","1","764"
"3","3","retrieval","new_objects","342","Cookie.jpg","37","1","677"
"3","3","retrieval","old_objects","343","Hook_Double.jpg","36","1","773"
"3","3","retrieval","new_objects","344","PuppetTheatre_WhiteGold.jpg","37","1","767"
"3","3","retrieval","old_objects","345","Bottle_BubbleBlower.jpg","36","1","1191"
"3","3","retrieval","new_objects","346","Mask_African.jpg","37","1","726"
"3","3","retrieval","old_objects","347","Ambulance.jpg","37","0","758"
"3","3","retrieval","new_objects","348","Kangaroo.jpg","37","1","782"
"3","3","retrieval","old_objects","349","MilkJug.jpg","37","0","1110"
"3","3","retrieval","new_objects","350","TimerKitchen.jpg","36","0","760"
"3","3","retrieval","new_objects","351","Brush_Cleaning.jpg","37","1","655"
"3","3","retrieval","old_objects","352","BasketballHoop.jpg","36","1","924"
"3","3","retrieval","new_objects","353","Napkin_Single.jpg","37","1","839"
"3","3","retrieval","new_objects","354","Bag_Garbage.jpg","37","1","1195"
"3","3","retrieval","old_objects","355","Goat.jpg","36","1","880"
"3","3","demographics_block","gender","1","Goat.jpg","Male","1","15614"
"3","3","demographics_block","age","1","Goat.jpg","51","1","15614"
"3","3","demographics_block","education","1","Goat.jpg","18","1","15614"
"3","3","demographics_block","left_right_handed","2","Goat.jpg","Right","1","5740"
"3","3","demographics_block","raceoption1","2","Goat.jpg","0","1","5740"
"3","3","demographics_block","raceoption2","2","Goat.jpg","","1","5740"
"3","3","demographics_block","raceoption3","2","Goat.jpg","","1","5740"
"3","3","demographics_block","raceoption4","2","Goat.jpg","","1","5740"
"3","3","demographics_block","raceoption5","2","Goat.jpg","","1","5740"
"3","3","demographics_block","raceoption6","2","Goat.jpg","","1","5740"
"3","3","demographics_block","raceoption7","2","Goat.jpg","","1","5740"
"3","3","demographics_block","raceoption8","2","Goat.jpg","","1","5740"
"3","3","demographics_block","raceoption9","2","Goat.jpg","","1","5740"
"3","3","demographics_block","raceother","2","Goat.jpg","","1","5740"
"3","3","demographics_block","raceother","2","Goat.jpg","","1","5740"
"3","3","demographics_block","english_language","2","Goat.jpg","Yes","1","5740"
"3","3","demographics_block","english_languageother","2","Goat.jpg","","1","5740"
"3","3","demographics_block","eyesight","3","Goat.jpg","Yes","1","4788"
"3","3","demographics_block","colorblind","3","Goat.jpg","No","1","4788"
"3","3","worker_id_block","worker_id_textbox","1","Goat.jpg","A1UW0C6QZOT3E7","1","3462"
"4","4","encoding","encoding","1","PaperTowel_Kitchen.jpg","36","0","901"
"4","4","encoding","encoding","2","Ginger.jpg","36","0","1196"
"4","4","encoding","encoding","3","PedestalGreek.jpg","37","0","612"
"4","4","encoding","encoding","4","Cast.jpg","36","0","795"
"4","4","encoding","encoding","5","Hook_Fishing.jpg","37","0","939"
"4","4","encoding","encoding","6","WireStripper.jpg","36","0","650"
"4","4","encoding","encoding","7","Purse.jpg","36","0","793"
"4","4","encoding","encoding","8","Bowl_Wooden.jpg","36","0","689"
"4","4","encoding","encoding","9","ToothPaste.jpg","36","0","768"
"4","4","encoding","encoding","10","Paddle_PingPong.jpg","37","0","663"
"4","4","encoding","encoding","11","Garbage_GreenBin.jpg","37","0","559"
"4","4","encoding","encoding","12","Toy_SeeSaw.jpg","37","0","662"
"4","4","encoding","encoding","13","Sandwich_Egg.jpg","36","0","653"
"4","4","encoding","encoding","14","CrepeMaker.jpg","36","0","805"
"4","4","encoding","encoding","15","Instrument_Nyckelharpa.jpg","36","0","796"
"4","4","encoding","encoding","16","Hulahoop.jpg","36","0","900"
"4","4","encoding","encoding","17","Goat.jpg","37","0","563"
"4","4","encoding","encoding","18","Loveseat.jpg","36","0","618"
"4","4","encoding","encoding","19","DoorHandle.jpg","36","0","738"
"4","4","encoding","encoding","20","Cheeseburger.jpg","36","0","617"
"4","4","encoding","encoding","21","Fruit_Orange.jpg","36","0","520"
"4","4","encoding","encoding","22","HDMIConnector.jpg","36","0","576"
"4","4","encoding","encoding","23","Basket_Bread.jpg","36","0","551"
"4","4","encoding","encoding","24","Pants.jpg","36","0","614"
"4","4","encoding","encoding","25","Scrabble.jpg","36","0","461"
"4","4","encoding","encoding","26","Clamp.jpg","36","0","533"
"4","4","encoding","encoding","27","HairBand.jpg","36","0","557"
"4","4","encoding","encoding","28","BearPolar.jpg","37","0","468"
"4","4","encoding","encoding","29","Helmet_Motorcycle.jpg","36","0","579"
"4","4","encoding","encoding","30","Giraffe.jpg","37","0","419"
"4","4","encoding","encoding","31","Bat_Baseball.jpg","37","0","682"
"4","4","encoding","encoding","32","Tie.jpg","36","0","657"
"4","4","encoding","encoding","33","AngleGrinder.jpg","36","0","545"
"4","4","encoding","encoding","34","Flower_Crane.jpg","37","0","552"
"4","4","encoding","encoding","35","Shoes_Pumps.jpg","0","0","2000"
"4","4","encoding","encoding","36","CarSuspension.jpg","36","0","535"
"4","4","encoding","encoding","37","Egg_Cup.jpg","36","0","566"
"4","4","encoding","encoding","38","Barometer.jpg","36","0","637"
"4","4","encoding","encoding","39","BicycleBrake.jpg","36","0","525"
"4","4","encoding","encoding","40","House_Stone.jpg","37","0","620"
"4","4","encoding","encoding","41","HandMixer.jpg","36","0","628"
"4","4","encoding","encoding","42","Headphones.jpg","0","0","2000"
"4","4","encoding","encoding","43","Van.jpg","37","0","602"
"4","4","encoding","encoding","44","MobilityScooter.jpg","37","0","986"
"4","4","encoding","encoding","45","Sign_SpeedLimit30.jpg","37","0","921"
"4","4","encoding","encoding","46","RollerCoaster.jpg","37","0","825"
"4","4","encoding","encoding","47","Box_Wine.jpg","36","0","664"
"4","4","encoding","encoding","48","WorldMap.jpg","36","0","719"
"4","4","encoding","encoding","49","PagodaModel.jpg","36","0","582"
"4","4","encoding","encoding","50","Arch_Triomphe.jpg","36","0","494"
"4","4","encoding","encoding","51","Coin.jpg","36","0","965"
"4","4","encoding","encoding","52","Brooch_Fish.jpg","36","0","701"
"4","4","encoding","encoding","53","Cup_Bathroom.jpg","36","0","692"
"4","4","encoding","encoding","54","Mug_Ceramic.jpg","36","0","483"
"4","4","encoding","encoding","55","Pipe.jpg","36","0","642"
"4","4","encoding","encoding","56","IceScraper.jpg","36","0","594"
"4","4","encoding","encoding","57","FlintIgniter.jpg","36","0","593"
"4","4","encoding","encoding","58","KitchenTools.jpg","36","0","656"
"4","4","encoding","encoding","59","Bottle_BubbleBlower.jpg","36","0","560"
"4","4","encoding","encoding","60","Microphone.jpg","36","0","576"
"4","4","encoding","encoding","62","LaundryHamper.jpg","36","0","705"
"4","4","encoding","encoding","63","Chair_Rocking.jpg","36","0","729"
"4","4","encoding","encoding","64","Jacket_Jean.jpg","36","0","552"
"4","4","encoding","encoding","65","Binoculars.jpg","36","0","599"
"4","4","encoding","encoding","66","Tube.jpg","36","0","647"
"4","4","encoding","encoding","67","Jar_Canopic.jpg","36","0","694"
"4","4","encoding","encoding","68","Truck_VintageBlue.jpg","37","0","765"
"4","4","encoding","encoding","69","Lemon.jpg","36","0","669"
"4","4","encoding","encoding","70","Mask_CPR.jpg","36","0","900"
"4","4","encoding","encoding","71","Bamboo.jpg","36","0","1004"
"4","4","encoding","encoding","72","Mask_Gas.jpg","37","0","1011"
"4","4","encoding","encoding","73","Paddle_Beach.jpg","36","0","763"
"4","4","encoding","encoding","74","MousepadAndMouse.jpg","36","0","650"
"4","4","encoding","encoding","75","Jug_GallonRed.jpg","36","0","689"
"4","4","encoding","encoding","76","Crackers_Ritz.jpg","36","0","689"
"4","4","encoding","encoding","77","Film_Roll.jpg","36","0","632"
"4","4","encoding","encoding","78","AmpMeter.jpg","36","0","559"
"4","4","encoding","encoding","79","DartBoard.jpg","36","0","646"
"4","4","encoding","encoding","80","Chair_BeanBag.jpg","36","0","654"
"4","4","encoding","encoding","81","Milkshake_Chocolate.jpg","36","0","677"
"4","4","encoding","encoding","82","VialLab.jpg","36","0","749"
"4","4","encoding","encoding","83","DogLeash.jpg","36","0","612"
"4","4","encoding","encoding","84","Bindings_Snowboard.jpg","36","0","787"
"4","4","encoding","encoding","85","Candleholder_Tall.jpg","36","0","659"
"4","4","encoding","encoding","86","SpiderWeb.jpg","37","0","650"
"4","4","encoding","encoding","87","TeethModel.jpg","36","0","657"
"4","4","encoding","encoding","88","CoffeePot.jpg","36","0","704"
"4","4","encoding","encoding","89","Car_Ferrari.jpg","37","0","800"
"4","4","encoding","encoding","90","Saw.jpg","36","0","671"
"4","4","encoding","encoding","91","Joystick.jpg","36","0","663"
"4","4","encoding","encoding","92","LetterMail.jpg","36","0","630"
"4","4","encoding","encoding","93","Chinchilla.jpg","37","0","549"
"4","4","encoding","encoding","94","DormerWindow.jpg","37","0","933"
"4","4","encoding","encoding","95","Hanger.jpg","36","0","668"
"4","4","encoding","encoding","96","PuppetTheatre_BlueRed.jpg","36","0","732"
"4","4","encoding","encoding","97","Seashell_AlternateTellin.jpg","37","0","691"
"4","4","encoding","encoding","98","ComputerKey_Escape.jpg","36","0","658"
"4","4","encoding","encoding","99","Jar_Cookie.jpg","36","0","617"
"4","4","encoding","encoding","100","Brace_Back.jpg","36","0","793"
"4","4","encoding","encoding","101","MagazineRoll.jpg","36","0","752"
"4","4","encoding","encoding","102","NailClipper.jpg","36","0","679"
"4","4","encoding","encoding","103","Button.jpg","36","0","647"
"4","4","encoding","encoding","104","Glass_Wine.jpg","36","0","614"
"4","4","encoding","encoding","105","Hook_Double.jpg","37","0","830"
"4","4","encoding","encoding","106","Candy_Cane.jpg","36","0","717"
"4","4","encoding","encoding","107","Stroller.jpg","36","0","564"
"4","4","encoding","encoding","108","Toy_Turtle.jpg","0","0","2000"
"4","4","encoding","encoding","109","Taco.jpg","36","0","819"
"4","4","encoding","encoding","110","FoodMill.jpg","36","0","907"
"4","4","encoding","encoding","111","Binder.jpg","36","0","730"
"4","4","encoding","encoding","112","Ball_Disco.jpg","36","0","761"
"4","4","encoding","encoding","113","Tape_Clear.jpg","36","0","713"
"4","4","encoding","encoding","114","Fruit_Carambola.jpg","37","0","576"
"4","4","encoding","encoding","115","CompassCardinal.jpg","36","0","575"
"4","4","encoding","encoding","116","Light_Studio.jpg","36","0","895"
"4","4","encoding","encoding","117","Box_Floral.jpg","36","0","678"
"4","4","encoding","encoding","118","Dog_SaintBernard.jpg","37","0","613"
"4","4","encoding","encoding","119","Battery_AA.jpg","36","0","861"
"4","4","encoding","encoding","120","ButterChurn.jpg","36","0","596"
"4","4","encoding","encoding","121","WalkieTalkie_Red.jpg","36","0","596"
"4","4","encoding","encoding","123","BasketballHoop.jpg","37","0","1104"
"4","4","encoding","encoding","124","Amp.jpg","36","0","1568"
"4","4","encoding","encoding","125","Iguana.jpg","37","0","719"
"4","4","encoding","encoding","126","Glasses_Reading.jpg","36","0","726"
"4","4","encoding","encoding","127","Guitar_Electric.jpg","36","0","614"
"4","4","encoding","encoding","128","Sign_SpeedLimit25.jpg","37","0","821"
"4","4","encoding","encoding","129","Carousel copy.jpg","36","0","621"
"4","4","encoding","encoding","130","Handbag.jpg","36","0","563"
"4","4","encoding","encoding","131","Sock_Ankle.jpg","36","0","595"
"4","4","encoding","encoding","132","ToothBrush.jpg","36","0","610"
"4","4","encoding","encoding","133","Plunger.jpg","36","0","634"
"4","4","encoding","encoding","134","Croissant.jpg","36","0","809"
"4","4","encoding","encoding","135","Radio_Antique.jpg","36","0","672"
"4","4","encoding","encoding","136","RecordPlayer.jpg","36","0","656"
"4","4","encoding","encoding","137","Zucchini.jpg","37","0","975"
"4","4","encoding","encoding","138","Snowboard.jpg","36","0","590"
"4","4","encoding","encoding","139","MeatGrinder.jpg","36","0","638"
"4","4","encoding","encoding","140","Gorilla.jpg","37","0","653"
"4","4","encoding","encoding","141","Guitarcase.jpg","36","0","765"
"4","4","encoding","encoding","142","Lettuce_Iceberg.jpg","37","0","628"
"4","4","encoding","encoding","143","ShotGlassTray.jpg","36","0","595"
"4","4","encoding","encoding","144","Apple_RedAndGreen.jpg","37","0","763"
"4","4","encoding","encoding","145","SpaceRover.jpg","36","0","1106"
"4","4","encoding","encoding","146","Trash_Medical.jpg","36","0","713"
"4","4","encoding","encoding","147","Bowtie.jpg","36","0","704"
"4","4","encoding","encoding","148","PillBottle_Spilled.jpg","36","0","608"
"4","4","encoding","encoding","149","Bolt.jpg","36","0","712"
"4","4","encoding","encoding","150","Baster.jpg","36","0","799"
"4","4","encoding","encoding","151","Pliers_NeedleNose.jpg","36","0","670"
"4","4","encoding","encoding","152","RollingPin.jpg","36","0","725"
"4","4","encoding","encoding","153","SoapBottle.jpg","36","0","693"
"4","4","encoding","encoding","154","WindowBlinds.jpg","36","0","860"
"4","4","encoding","encoding","155","Exercise_Stepper.jpg","36","0","995"
"4","4","encoding","encoding","156","Shoe_Men.jpg","36","0","731"
"4","4","encoding","encoding","157","SetSquare.jpg","36","0","738"
"4","4","encoding","encoding","158","ReindeerHeadband.jpg","36","0","593"
"4","4","encoding","encoding","159","Table_Picnic.jpg","36","0","689"
"4","4","encoding","encoding","160","ScaleWeighing.jpg","36","0","616"
"4","4","encoding","encoding","161","TowelRack_Brown.jpg","36","0","615"
"4","4","encoding","encoding","162","Tractor_Orange.jpg","37","0","679"
"4","4","encoding","encoding","163","Pasta_Fettuccine.jpg","36","0","590"
"4","4","encoding","encoding","164","Ambulance.jpg","37","0","510"
"4","4","encoding","encoding","165","Boar.jpg","37","0","541"
"4","4","encoding","encoding","166","Seahorse.jpg","37","0","708"
"4","4","encoding","encoding","167","Can_MilkAntique.jpg","36","0","724"
"4","4","encoding","encoding","168","OrangeBlood.jpg","36","0","595"
"4","4","encoding","encoding","169","CheeseSlicer.jpg","36","0","634"
"4","4","encoding","encoding","170","Candy_Heart.jpg","36","0","618"
"4","4","encoding","encoding","171","Bag_Saline.jpg","36","0","689"
"4","4","encoding","encoding","172","Heater_Infrared.jpg","36","0","697"
"4","4","encoding","encoding","173","Cactus.jpg","36","0","832"
"4","4","encoding","encoding","174","Toy_Helicopter.jpg","36","0","655"
"4","4","encoding","encoding","175","Golf_Bag.jpg","36","0","687"
"4","4","encoding","encoding","176","Jars_PetFood.jpg","36","0","726"
"4","4","encoding","encoding","177","MilkJug.jpg","36","0","661"
"4","4","retrieval","old_objects","1","ToothPaste.jpg","37","0","1066"
"4","4","retrieval","old_objects","2","FoodMill.jpg","36","1","854"
"4","4","retrieval","old_objects","3","MeatGrinder.jpg","36","1","779"
"4","4","retrieval","new_objects","4","DentalFloss.jpg","37","1","754"
"4","4","retrieval","old_objects","5","Shoe_Men.jpg","36","1","875"
"4","4","retrieval","old_objects","6","Microphone.jpg","36","1","695"
"4","4","retrieval","new_objects","7","Fireplace_Outdoor.jpg","37","1","793"
"4","4","retrieval","new_objects","8","Bird_Pelican.jpg","37","1","721"
"4","4","retrieval","old_objects","9","Seahorse.jpg","36","1","843"
"4","4","retrieval","new_objects","10","SoundMixer_Blue.jpg","37","1","816"
"4","4","retrieval","old_objects","11","Croissant.jpg","36","1","670"
"4","4","retrieval","old_objects","12","Guitarcase.jpg","36","1","635"
"4","4","retrieval","old_objects","13","Sign_SpeedLimit25.jpg","36","1","936"
"4","4","retrieval","old_objects","14","Golf_Bag.jpg","36","1","601"
"4","4","retrieval","old_objects","15","SpiderWeb.jpg","36","1","696"
"4","4","retrieval","new_objects","16","Telescope.jpg","37","1","658"
"4","4","retrieval","new_objects","17","Drum_Conga.jpg","37","1","639"
"4","4","retrieval","old_objects","18","BasketballHoop.jpg","36","1","660"
"4","4","retrieval","new_objects","19","GutterAndDrainPipe.jpg","37","1","785"
"4","4","retrieval","new_objects","20","Desk_School.jpg","37","1","849"
"4","4","retrieval","old_objects","21","PedestalGreek.jpg","37","0","701"
"4","4","retrieval","new_objects","22","WashingMachine.jpg","37","1","1040"
"4","4","retrieval","old_objects","23","Iguana.jpg","37","0","781"
"4","4","retrieval","old_objects","24","Dog_SaintBernard.jpg","36","1","860"
"4","4","retrieval","new_objects","25","Tuxedo.jpg","37","1","842"
"4","4","retrieval","old_objects","26","Milkshake_Chocolate.jpg","36","1","950"
"4","4","retrieval","old_objects","27","NailClipper.jpg","36","1","775"
"4","4","retrieval","new_objects","28","Eggplant.jpg","37","1","823"
"4","4","retrieval","new_objects","29","Snail.jpg","37","1","1021"
"4","4","retrieval","old_objects","30","Hook_Double.jpg","37","0","828"
"4","4","retrieval","new_objects","31","WindshieldWasherFluid.jpg","36","0","1433"
"4","4","retrieval","old_objects","32","CarSuspension.jpg","36","1","719"
"4","4","retrieval","old_objects","33","VialLab.jpg","36","1","857"
"4","4","retrieval","old_objects","34","Heater_Infrared.jpg","36","1","653"
"4","4","retrieval","old_objects","35","Lemon.jpg","36","1","723"
"4","4","retrieval","old_objects","36","Pliers_NeedleNose.jpg","36","1","700"
"4","4","retrieval","old_objects","37","Jug_GallonRed.jpg","36","1","847"
"4","4","retrieval","old_objects","38","ToothBrush.jpg","36","1","651"
"4","4","retrieval","new_objects","39","Napkin_Holder.jpg","37","1","649"
"4","4","retrieval","new_objects","40","Bottle_Champagne.jpg","37","1","1061"
"4","4","retrieval","old_objects","41","Brooch_Fish.jpg","36","1","745"
"4","4","retrieval","old_objects","42","Zucchini.jpg","36","1","867"
"4","4","retrieval","new_objects","43","Cherry.jpg","37","1","823"
"4","4","retrieval","old_objects","44","TowelRack_Brown.jpg","36","1","677"
"4","4","retrieval","old_objects","45","DoorHandle.jpg","36","1","1113"
"4","4","retrieval","old_objects","46","Ginger.jpg","36","1","772"
"4","4","retrieval","old_objects","47","Clamp.jpg","37","0","883"
"4","4","retrieval","old_objects","48","Cup_Bathroom.jpg","36","1","815"
"4","4","retrieval","new_objects","49","Plate_Wooden.jpg","37","1","741"
"4","4","retrieval","new_objects","50","Hawk.jpg","37","1","990"
"4","4","retrieval","old_objects","51","CrepeMaker.jpg","36","1","726"
"4","4","retrieval","new_objects","52","Pepper_Chili.jpg","37","1","712"
"4","4","retrieval","old_objects","53","ShotGlassTray.jpg","36","1","1026"
"4","4","retrieval","new_objects","54","Toy_BearBluePlushie.jpg","37","1","649"
"4","4","retrieval","new_objects","55","LawnMower.jpg","37","1","949"
"4","4","retrieval","old_objects","56","Ball_Disco.jpg","36","1","662"
"4","4","retrieval","new_objects","57","Sled.jpg","37","1","970"
"4","4","retrieval","old_objects","58","PuppetTheatre_BlueRed.jpg","36","1","642"
"4","4","retrieval","new_objects","59","Bag_Groceries.jpg","37","1","823"
"4","4","retrieval","old_objects","60","LaundryHamper.jpg","36","1","733"
"4","4","retrieval","new_objects","62","Comb_1.jpg","37","1","865"
"4","4","retrieval","old_objects","63","Tractor_Orange.jpg","36","1","949"
"4","4","retrieval","old_objects","64","Tie.jpg","36","1","678"
"4","4","retrieval","old_objects","65","Garbage_GreenBin.jpg","36","1","706"
"4","4","retrieval","old_objects","66","HairBand.jpg","36","1","597"
"4","4","retrieval","old_objects","67","MobilityScooter.jpg","36","1","747"
"4","4","retrieval","new_objects","68","Toy_PoliceCar.jpg","37","1","748"
"4","4","retrieval","old_objects","69","Baster.jpg","36","1","653"
"4","4","retrieval","new_objects","70","PenStand.jpg","37","1","761"
"4","4","retrieval","new_objects","71","BrainSagittal.jpg","37","1","833"
"4","4","retrieval","old_objects","72","Handbag.jpg","36","1","678"
"4","4","retrieval","new_objects","73","Sword.jpg","37","1","866"
"4","4","retrieval","old_objects","74","Pasta_Fettuccine.jpg","36","1","726"
"4","4","retrieval","old_objects","75","Scrabble.jpg","36","1","840"
"4","4","retrieval","old_objects","76","Bat_Baseball.jpg","36","1","837"
"4","4","retrieval","new_objects","77","Shampoo.jpg","37","1","627"
"4","4","retrieval","new_objects","78","IceCreamCone.jpg","36","0","809"
"4","4","retrieval","new_objects","79","Tap.jpg","37","1","783"
"4","4","retrieval","new_objects","80","Box_WoodCrate.jpg","37","1","711"
"4","4","retrieval","old_objects","81","ReindeerHeadband.jpg","36","1","721"
"4","4","retrieval","new_objects","82","KeyHook_Occupied.jpg","37","1","771"
"4","4","retrieval","old_objects","83","WindowBlinds.jpg","36","1","723"
"4","4","retrieval","new_objects","84","Toy_DinosaurBrontosaurus.jpg","37","1","637"
"4","4","retrieval","old_objects","85","Bamboo.jpg","36","1","795"
"4","4","retrieval","new_objects","86","VGAport.jpg","37","1","1090"
"4","4","retrieval","old_objects","87","Loveseat.jpg","36","1","853"
"4","4","retrieval","old_objects","88","Stroller.jpg","36","1","585"
"4","4","retrieval","new_objects","89","Bird_Tern.jpg","37","1","641"
"4","4","retrieval","new_objects","90","Igloo.jpg","37","1","1022"
"4","4","retrieval","old_objects","91","Fruit_Orange.jpg","36","1","837"
"4","4","retrieval","new_objects","92","Chair_High.jpg","37","1","753"
"4","4","retrieval","new_objects","93","Tombstone.jpg","37","1","707"
"4","4","retrieval","new_objects","94","Bird_Falcon.jpg","37","1","917"
"4","4","retrieval","new_objects","95","Tape_Scotch.jpg","37","1","1447"
"4","4","retrieval","new_objects","96","Socks_Baby.jpg","37","1","668"
"4","4","retrieval","old_objects","97","Ambulance.jpg","36","1","696"
"4","4","retrieval","new_objects","98","Spoons_Musical.jpg","37","1","786"
"4","4","retrieval","new_objects","99","Clip_Binder.jpg","37","1","634"
"4","4","retrieval","old_objects","100","HandMixer.jpg","37","0","575"
"4","4","retrieval","old_objects","101","HDMIConnector.jpg","36","1","775"
"4","4","retrieval","new_objects","102","Bottle_Liquor.jpg","37","1","711"
"4","4","retrieval","new_objects","103","DJMixer.jpg","37","1","1353"
"4","4","retrieval","new_objects","104","Pot_FlowerClay.jpg","37","1","818"
"4","4","retrieval","old_objects","105","DormerWindow.jpg","36","1","640"
"4","4","retrieval","new_objects","106","HedgeShears.jpg","37","1","749"
"4","4","retrieval","new_objects","107","Hoodie.jpg","37","1","742"
"4","4","retrieval","new_objects","108","Ship_Battle.jpg","37","1","1199"
"4","4","retrieval","old_objects","109","Battery_AA.jpg","36","1","886"
"4","4","retrieval","new_objects","110","TubeRing.jpg","37","1","633"
"4","4","retrieval","new_objects","111","Brush_Cleaning.jpg","37","1","710"
"4","4","retrieval","old_objects","112","ComputerKey_Escape.jpg","36","1","641"
"4","4","retrieval","old_objects","113","Jar_Cookie.jpg","36","1","622"
"4","4","retrieval","old_objects","114","RollingPin.jpg","36","1","652"
"4","4","retrieval","new_objects","115","Light_Siren.jpg","37","1","689"
"4","4","retrieval","new_objects","116","Canteen.jpg","37","1","732"
"4","4","retrieval","new_objects","117","Toy_Lion.jpg","37","1","646"
"4","4","retrieval","old_objects","118","Plunger.jpg","36","1","635"
"4","4","retrieval","new_objects","119","Funnel.jpg","36","0","961"
"4","4","retrieval","new_objects","120","Ostrich.jpg","37","1","769"
"4","4","retrieval","new_objects","121","Napkin_Single.jpg","37","1","1121"
"4","4","retrieval","old_objects","123","Boar.jpg","36","1","1027"
"4","4","retrieval","new_objects","124","Shrub_Boxwood.jpg","37","1","609"
"4","4","retrieval","old_objects","125","WalkieTalkie_Red.jpg","36","1","1072"
"4","4","retrieval","old_objects","126","Chair_Rocking.jpg","36","1","724"
"4","4","retrieval","old_objects","127","Box_Wine.jpg","36","1","542"
"4","4","retrieval","old_objects","128","DartBoard.jpg","36","1","647"
"4","4","retrieval","new_objects","129","SmokingPipe.jpg","37","1","700"
"4","4","retrieval","old_objects","130","SetSquare.jpg","36","1","727"
"4","4","retrieval","old_objects","131","Shoes_Pumps.jpg","36","1","689"
"4","4","retrieval","old_objects","132","Giraffe.jpg","36","1","572"
"4","4","retrieval","old_objects","133","Hulahoop.jpg","36","1","652"
"4","4","retrieval","old_objects","134","Taco.jpg","36","1","641"
"4","4","retrieval","new_objects","135","Car_Sedan.jpg","37","1","710"
"4","4","retrieval","new_objects","136","Pot_Crock.jpg","37","1","617"
"4","4","retrieval","old_objects","137","RollerCoaster.jpg","36","1","631"
"4","4","retrieval","new_objects","138","Magnet_Three.jpg","36","0","644"
"4","4","retrieval","old_objects","139","MousepadAndMouse.jpg","36","1","705"
"4","4","retrieval","old_objects","140","Snowboard.jpg","36","1","732"
"4","4","retrieval","new_objects","141","Keyhole.jpg","37","1","622"
"4","4","retrieval","old_objects","142","Seashell_AlternateTellin.jpg","36","1","795"
"4","4","retrieval","old_objects","143","Crackers_Ritz.jpg","36","1","667"
"4","4","retrieval","old_objects","144","DogLeash.jpg","36","1","871"
"4","4","retrieval","old_objects","145","Coin.jpg","36","1","795"
"4","4","retrieval","old_objects","146","Mug_Ceramic.jpg","36","1","827"
"4","4","retrieval","new_objects","147","Toy_Witch.jpg","37","1","952"
"4","4","retrieval","new_objects","148","Lantern_TeaBox.jpg","37","1","761"
"4","4","retrieval","new_objects","149","Toy_MerryGoRound.jpg","36","0","706"
"4","4","retrieval","old_objects","150","Carousel copy.jpg","36","1","1044"
"4","4","retrieval","new_objects","151","Tricycle.jpg","37","1","954"
"4","4","retrieval","new_objects","152","GasBurner.jpg","37","1","810"
"4","4","retrieval","new_objects","153","Jar_Empty.jpg","36","0","713"
"4","4","retrieval","old_objects","154","Bowl_Wooden.jpg","37","0","547"
"4","4","retrieval","new_objects","155","Origami_Bird.jpg","37","1","1188"
"4","4","retrieval","new_objects","156","Seashell_RoseMurex.jpg","37","1","731"
"4","4","retrieval","new_objects","157","Exercise_Bike.jpg","37","1","741"
"4","4","retrieval","new_objects","158","Shoe_Sneaker.jpg","37","1","598"
"4","4","retrieval","new_objects","159","Sushi.jpg","37","1","644"
"4","4","retrieval","new_objects","160","Corn_Kernels.jpg","37","1","610"
"4","4","retrieval","old_objects","161","Goat.jpg","36","1","969"
"4","4","retrieval","new_objects","162","Cannoli.jpg","37","1","657"
"4","4","retrieval","new_objects","163","Cabasa.jpg","37","1","645"
"4","4","retrieval","old_objects","164","Candy_Cane.jpg","36","1","802"
"4","4","retrieval","new_objects","165","Cymbals.jpg","37","1","657"
"4","4","retrieval","old_objects","166","LetterMail.jpg","36","1","710"
"4","4","retrieval","new_objects","167","Panda.jpg","37","1","729"
"4","4","retrieval","old_objects","168","SpaceRover.jpg","36","1","874"
"4","4","retrieval","new_objects","169","ToothbrushHolder.jpg","37","1","671"
"4","4","retrieval","new_objects","170","Bugle.jpg","37","1","675"
"4","4","retrieval","new_objects","171","DoorBolt.jpg","37","1","631"
"4","4","retrieval","old_objects","172","PillBottle_Spilled.jpg","36","1","796"
"4","4","retrieval","old_objects","173","PagodaModel.jpg","36","1","643"
"4","4","retrieval","old_objects","174","Jacket_Jean.jpg","36","1","761"
"4","4","retrieval","old_objects","175","Apple_RedAndGreen.jpg","36","1","617"
"4","4","retrieval","new_objects","176","Dropper.jpg","37","1","1127"
"4","4","retrieval","new_objects","177","ChessPiece_Bishop.jpg","37","1","657"
"4","4","retrieval","new_objects","178","ClothCoaster.jpg","37","1","646"
"4","4","retrieval","old_objects","179","BicycleBrake.jpg","36","1","787"
"4","4","retrieval","old_objects","180","Sandwich_Egg.jpg","36","1","659"
"4","4","retrieval","new_objects","181","Clippers_Glass.jpg","37","1","727"
"4","4","retrieval","old_objects","182","Pants.jpg","36","1","730"
"4","4","retrieval","old_objects","184","Sign_SpeedLimit30.jpg","36","1","886"
"4","4","retrieval","old_objects","185","Saw.jpg","36","1","625"
"4","4","retrieval","new_objects","186","CartonEggs.jpg","37","1","791"
"4","4","retrieval","old_objects","187","SoapBottle.jpg","36","1","822"
"4","4","retrieval","new_objects","188","Calculator.jpg","37","1","716"
"4","4","retrieval","new_objects","189","Dreidel.jpg","36","0","670"
"4","4","retrieval","old_objects","190","Bottle_BubbleBlower.jpg","36","1","682"
"4","4","retrieval","old_objects","191","Amp.jpg","37","0","789"
"4","4","retrieval","old_objects","192","Bag_Saline.jpg","36","1","757"
"4","4","retrieval","new_objects","193","AlcoholBar.jpg","37","1","686"
"4","4","retrieval","new_objects","194","Mask_African.jpg","37","1","761"
"4","4","retrieval","new_objects","195","CoolingFan_Engine.jpg","37","1","945"
"4","4","retrieval","new_objects","196","Bucket_WoodenDark.jpg","37","1","786"
"4","4","retrieval","old_objects","197","Bindings_Snowboard.jpg","36","1","777"
"4","4","retrieval","new_objects","198","Hammock.jpg","37","1","1057"
"4","4","retrieval","new_objects","199","Tube_Glue.jpg","37","1","734"
"4","4","retrieval","new_objects","200","Cassette_Audio.jpg","37","1","688"
"4","4","retrieval","new_objects","201","Toast.jpg","37","1","778"
"4","4","retrieval","old_objects","202","KitchenTools.jpg","36","1","874"
"4","4","retrieval","new_objects","203","Dress_Cocktail.jpg","37","1","758"
"4","4","retrieval","new_objects","204","PokerChips.jpg","37","1","631"
"4","4","retrieval","new_objects","205","Phone_Public.jpg","37","1","829"
"4","4","retrieval","old_objects","206","Egg_Cup.jpg","36","1","659"
"4","4","retrieval","old_objects","207","Glass_Wine.jpg","36","1","679"
"4","4","retrieval","new_objects","208","Book_Leather.jpg","37","1","723"
"4","4","retrieval","old_objects","209","OrangeBlood.jpg","36","1","740"
"4","4","retrieval","new_objects","210","Kangaroo.jpg","37","1","742"
"4","4","retrieval","old_objects","211","Sock_Ankle.jpg","36","1","775"
"4","4","retrieval","old_objects","212","Paddle_Beach.jpg","36","1","679"
"4","4","retrieval","new_objects","213","Bagpipes.jpg","37","1","659"
"4","4","retrieval","old_objects","214","Gorilla.jpg","36","1","815"
"4","4","retrieval","new_objects","215","Pitcher.jpg","37","1","725"
"4","4","retrieval","old_objects","216","Trash_Medical.jpg","37","0","735"
"4","4","retrieval","new_objects","217","Cookie.jpg","37","1","913"
"4","4","retrieval","old_objects","218","Button.jpg","36","1","899"
"4","4","retrieval","new_objects","219","Boat_Ferry.jpg","37","1","750"
"4","4","retrieval","new_objects","220","LightBulb_White.jpg","37","1","911"
"4","4","retrieval","new_objects","221","Autocreeper.jpg","37","1","777"
"4","4","retrieval","new_objects","222","Triangle.jpg","37","1","841"
"4","4","retrieval","old_objects","223","Tape_Clear.jpg","36","1","663"
"4","4","retrieval","old_objects","224","Binoculars.jpg","36","1","667"
"4","4","retrieval","new_objects","225","Nyala.jpg","37","1","735"
"4","4","retrieval","new_objects","226","Bread_Pita.jpg","37","1","673"
"4","4","retrieval","old_objects","227","Bowtie.jpg","36","1","821"
"4","4","retrieval","new_objects","228","Mattress.jpg","37","1","707"
"4","4","retrieval","new_objects","229","Figurine_Ballerina.jpg","37","1","693"
"4","4","retrieval","old_objects","230","Box_Floral.jpg","37","0","673"
"4","4","retrieval","new_objects","231","Armchair.jpg","37","1","1157"
"4","4","retrieval","old_objects","232","Can_MilkAntique.jpg","36","1","661"
"4","4","retrieval","old_objects","233","Film_Roll.jpg","36","1","666"
"4","4","retrieval","new_objects","234","Distaff.jpg","37","1","654"
"4","4","retrieval","old_objects","235","IceScraper.jpg","36","1","947"
"4","4","retrieval","old_objects","236","Instrument_Nyckelharpa.jpg","36","1","676"
"4","4","retrieval","new_objects","237","PotatoMasher_Zigzag.jpg","37","1","631"
"4","4","retrieval","old_objects","238","Joystick.jpg","36","1","637"
"4","4","retrieval","old_objects","239","House_Stone.jpg","36","1","794"
"4","4","retrieval","old_objects","240","Exercise_Stepper.jpg","36","1","962"
"4","4","retrieval","new_objects","241","Bottle_Baby.jpg","37","1","802"
"4","4","retrieval","old_objects","242","Table_Picnic.jpg","37","0","664"
"4","4","retrieval","old_objects","243","Light_Studio.jpg","37","0","637"
"4","4","retrieval","old_objects","245","Binder.jpg","36","1","820"
"4","4","retrieval","old_objects","246","Barometer.jpg","36","1","1226"
"4","4","retrieval","new_objects","247","Puzzle_Tree.jpg","37","1","640"
"4","4","retrieval","new_objects","248","Apple_Candy.jpg","37","1","805"
"4","4","retrieval","new_objects","249","MixingGlass.jpg","37","1","1108"
"4","4","retrieval","old_objects","250","MagazineRoll.jpg","36","1","847"
"4","4","retrieval","new_objects","251","IceCubes.jpg","37","1","627"
"4","4","retrieval","old_objects","252","Helmet_Motorcycle.jpg","36","1","745"
"4","4","retrieval","new_objects","253","DogFood.jpg","37","1","842"
"4","4","retrieval","new_objects","254","DrainPlug.jpg","37","1","1079"
"4","4","retrieval","old_objects","255","PaperTowel_Kitchen.jpg","37","0","723"
"4","4","retrieval","old_objects","256","Jar_Canopic.jpg","36","1","597"
"4","4","retrieval","old_objects","257","MilkJug.jpg","36","1","556"
"4","4","retrieval","new_objects","258","ToothPick.jpg","37","1","965"
"4","4","retrieval","new_objects","259","Cannister_GasVintage.jpg","37","1","1061"
"4","4","retrieval","old_objects","260","Bolt.jpg","36","1","849"
"4","4","retrieval","old_objects","261","Toy_Turtle.jpg","36","1","654"
"4","4","retrieval","new_objects","262","Cloud.jpg","37","1","659"
"4","4","retrieval","new_objects","263","Spool_Thread.jpg","37","1","895"
"4","4","retrieval","new_objects","264","Shoes_Sneakers.jpg","37","1","674"
"4","4","retrieval","old_objects","265","Cactus.jpg","36","1","798"
"4","4","retrieval","new_objects","266","Belt.jpg","37","1","773"
"4","4","retrieval","new_objects","267","Boat_Colourful.jpg","37","1","893"
"4","4","retrieval","new_objects","268","Coral.jpg","37","1","920"
"4","4","retrieval","new_objects","269","Chair_Folding.jpg","37","1","650"
"4","4","retrieval","new_objects","270","Case_Leather.jpg","37","1","695"
"4","4","retrieval","old_objects","271","Mask_CPR.jpg","36","1","794"
"4","4","retrieval","old_objects","272","Hanger.jpg","36","1","553"
"4","4","retrieval","new_objects","273","PaintRollTray.jpg","37","1","659"
"4","4","retrieval","new_objects","274","ShowerCap.jpg","37","1","631"
"4","4","retrieval","new_objects","275","Tripod.jpg","37","1","612"
"4","4","retrieval","old_objects","276","Arch_Triomphe.jpg","36","1","691"
"4","4","retrieval","new_objects","277","BicycleReflector.jpg","37","1","718"
"4","4","retrieval","old_objects","278","Fruit_Carambola.jpg","36","1","657"
"4","4","retrieval","old_objects","279","ButterChurn.jpg","36","1","685"
"4","4","retrieval","new_objects","280","VacuumHose.jpg","37","1","648"
"4","4","retrieval","old_objects","281","Truck_VintageBlue.jpg","36","1","669"
"4","4","retrieval","new_objects","282","Ruler_Triangle.jpg","37","1","713"
"4","4","retrieval","old_objects","283","WireStripper.jpg","36","1","876"
"4","4","retrieval","old_objects","284","ScaleWeighing.jpg","37","0","807"
"4","4","retrieval","new_objects","285","Hat_Visor.jpg","37","1","662"
"4","4","retrieval","old_objects","286","Car_Ferrari.jpg","36","1","651"
"4","4","retrieval","old_objects","287","Mask_Gas.jpg","36","1","704"
"4","4","retrieval","new_objects","288","Toy_Top.jpg","37","1","658"
"4","4","retrieval","new_objects","289","TimerKitchen.jpg","37","1","647"
"4","4","retrieval","old_objects","290","Cast.jpg","36","1","868"
"4","4","retrieval","new_objects","291","Ladle.jpg","37","1","648"
"4","4","retrieval","new_objects","292","Slippers.jpg","37","1","580"
"4","4","retrieval","old_objects","293","AmpMeter.jpg","36","1","732"
"4","4","retrieval","new_objects","294","FuseBox.jpg","37","1","773"
"4","4","retrieval","new_objects","295","Barbecue_Gas.jpg","37","1","813"
"4","4","retrieval","old_objects","296","CoffeePot.jpg","36","1","907"
"4","4","retrieval","old_objects","297","Headphones.jpg","36","1","782"
"4","4","retrieval","old_objects","298","Purse.jpg","36","1","669"
"4","4","retrieval","old_objects","299","Chair_BeanBag.jpg","36","1","626"
"4","4","retrieval","old_objects","300","Paddle_PingPong.jpg","36","1","623"
"4","4","retrieval","new_objects","301","Brush_Paint.jpg","37","1","981"
"4","4","retrieval","new_objects","302","SiloGrain.jpg","37","1","629"
"4","4","retrieval","old_objects","303","Jars_PetFood.jpg","36","1","786"
"4","4","retrieval","old_objects","304","Radio_Antique.jpg","36","1","842"
"4","4","retrieval","new_objects","306","TartStrawberry.jpg","37","1","778"
"4","4","retrieval","old_objects","307","Guitar_Electric.jpg","36","1","1090"
"4","4","retrieval","new_objects","308","Brush_Light.jpg","37","1","645"
"4","4","retrieval","new_objects","309","Spotlight.jpg","37","1","730"
"4","4","retrieval","old_objects","310","CompassCardinal.jpg","36","1","659"
"4","4","retrieval","new_objects","311","Ball_Golf.jpg","37","1","608"
"4","4","retrieval","new_objects","312","Mop.jpg","37","1","607"
"4","4","retrieval","old_objects","313","Candy_Heart.jpg","36","1","637"
"4","4","retrieval","old_objects","314","CheeseSlicer.jpg","36","1","771"
"4","4","retrieval","new_objects","315","Table_Saw.jpg","37","1","795"
"4","4","retrieval","new_objects","316","Branches_Campfire.jpg","37","1","593"
"4","4","retrieval","old_objects","317","TeethModel.jpg","36","1","897"
"4","4","retrieval","old_objects","318","Hook_Fishing.jpg","37","0","780"
"4","4","retrieval","new_objects","319","Bird_CanadianGoose.jpg","37","1","1699"
"4","4","retrieval","new_objects","320","CodeDoorLock.jpg","37","1","885"
"4","4","retrieval","old_objects","321","Candleholder_Tall.jpg","36","1","721"
"4","4","retrieval","new_objects","322","Cassette_Video.jpg","37","1","723"
"4","4","retrieval","new_objects","323","Spoon_WoodenLight.jpg","37","1","813"
"4","4","retrieval","new_objects","324","Spoon_Serving.jpg","37","1","867"
"4","4","retrieval","new_objects","325","Gloves_WhiteKnit.jpg","37","1","935"
"4","4","retrieval","old_objects","326","Van.jpg","36","1","624"
"4","4","retrieval","old_objects","327","Flower_Crane.jpg","36","1","631"
"4","4","retrieval","new_objects","328","Bottle_CosmeticSpray.jpg","37","1","651"
"4","4","retrieval","new_objects","329","Mask_Ski.jpg","37","1","880"
"4","4","retrieval","old_objects","330","WorldMap.jpg","36","1","708"
"4","4","retrieval","old_objects","331","Toy_SeeSaw.jpg","36","1","662"
"4","4","retrieval","new_objects","332","Potato.jpg","37","1","826"
"4","4","retrieval","new_objects","333","WateringCan_Antique.jpg","37","1","608"
"4","4","retrieval","new_objects","334","Bowl_Glass.jpg","37","1","887"
"4","4","retrieval","old_objects","335","RecordPlayer.jpg","37","0","906"
"4","4","retrieval","old_objects","336","Pipe.jpg","36","1","741"
"4","4","retrieval","new_objects","337","PuppetTheatre_WhiteGold.jpg","37","1","838"
"4","4","retrieval","new_objects","338","Trowel.jpg","37","1","748"
"4","4","retrieval","old_objects","339","Lettuce_Iceberg.jpg","36","1","700"
"4","4","retrieval","old_objects","340","BearPolar.jpg","36","1","599"
"4","4","retrieval","old_objects","341","AngleGrinder.jpg","36","1","862"
"4","4","retrieval","old_objects","342","Basket_Bread.jpg","36","1","642"
"4","4","retrieval","old_objects","343","Brace_Back.jpg","36","1","784"
"4","4","retrieval","old_objects","344","Tube.jpg","37","0","1455"
"4","4","retrieval","new_objects","345","Playground.jpg","37","1","692"
"4","4","retrieval","new_objects","346","Gun_Revolver.jpg","37","1","727"
"4","4","retrieval","old_objects","347","Glasses_Reading.jpg","36","1","1058"
"4","4","retrieval","old_objects","348","Toy_Helicopter.jpg","36","1","870"
"4","4","retrieval","new_objects","349","Mug_Beer.jpg","37","1","1186"
"4","4","retrieval","new_objects","350","Bag_Garbage.jpg","37","1","682"
"4","4","retrieval","old_objects","351","Chinchilla.jpg","36","1","941"
"4","4","retrieval","new_objects","352","Pasta_Macaroni.jpg","37","1","646"
"4","4","retrieval","old_objects","353","FlintIgniter.jpg","37","0","1059"
"4","4","retrieval","new_objects","354","MeatRaw.jpg","37","1","792"
"4","4","retrieval","old_objects","355","Cheeseburger.jpg","36","1","695"
"4","4","demographics_block","gender","1","Cheeseburger.jpg","Female","1","39940"
"4","4","demographics_block","age","1","Cheeseburger.jpg","33","1","39940"
"4","4","demographics_block","education","1","Cheeseburger.jpg","2","1","39940"
"4","4","demographics_block","left_right_handed","2","Cheeseburger.jpg","Right","1","5624"
"4","4","demographics_block","raceoption1","2","Cheeseburger.jpg","0","1","5624"
"4","4","demographics_block","raceoption2","2","Cheeseburger.jpg","","1","5624"
"4","4","demographics_block","raceoption3","2","Cheeseburger.jpg","","1","5624"
"4","4","demographics_block","raceoption4","2","Cheeseburger.jpg","","1","5624"
"4","4","demographics_block","raceoption5","2","Cheeseburger.jpg","","1","5624"
"4","4","demographics_block","raceoption6","2","Cheeseburger.jpg","","1","5624"
"4","4","demographics_block","raceoption7","2","Cheeseburger.jpg","","1","5624"
"4","4","demographics_block","raceoption8","2","Cheeseburger.jpg","","1","5624"
"4","4","demographics_block","raceoption9","2","Cheeseburger.jpg","","1","5624"
"4","4","demographics_block","raceother","2","Cheeseburger.jpg","","1","5624"
"4","4","demographics_block","raceother","2","Cheeseburger.jpg","","1","5624"
"4","4","demographics_block","english_language","2","Cheeseburger.jpg","Yes","1","5624"
"4","4","demographics_block","english_languageother","2","Cheeseburger.jpg","","1","5624"
"4","4","demographics_block","eyesight","3","Cheeseburger.jpg","Yes","1","5820"
"4","4","demographics_block","colorblind","3","Cheeseburger.jpg","No","1","5820"
"4","4","worker_id_block","worker_id_textbox","1","Cheeseburger.jpg","A2GKX7OV3D8A3T","1","4511"
"5","5","encoding","encoding","1","Button.jpg","36","0","1464"
"5","5","encoding","encoding","2","Stroller.jpg","36","0","874"
"5","5","encoding","encoding","3","ComputerKey_Escape.jpg","36","0","853"
"5","5","encoding","encoding","4","Milkshake_Chocolate.jpg","36","0","777"
"5","5","encoding","encoding","5","Jars_PetFood.jpg","36","0","858"
"5","5","encoding","encoding","6","Film_Roll.jpg","36","0","711"
"5","5","encoding","encoding","7","PillBottle_Spilled.jpg","36","0","1150"
"5","5","encoding","encoding","8","Van.jpg","37","0","764"
"5","5","encoding","encoding","9","Taco.jpg","36","0","687"
"5","5","encoding","encoding","10","CrepeMaker.jpg","36","0","784"
"5","5","encoding","encoding","11","Sign_SpeedLimit30.jpg","37","0","761"
"5","5","encoding","encoding","12","Bat_Baseball.jpg","37","0","982"
"5","5","encoding","encoding","13","Ginger.jpg","37","0","783"
"5","5","encoding","encoding","14","Iguana.jpg","37","0","1430"
"5","5","encoding","encoding","15","Candleholder_Tall.jpg","36","0","844"
"5","5","encoding","encoding","16","Baster.jpg","36","0","893"
"5","5","encoding","encoding","17","Glass_Wine.jpg","36","0","844"
"5","5","encoding","encoding","18","Table_Picnic.jpg","37","0","691"
"5","5","encoding","encoding","19","HDMIConnector.jpg","36","0","802"
"5","5","encoding","encoding","20","Scrabble.jpg","36","0","1006"
"5","5","encoding","encoding","21","Box_Wine.jpg","36","0","1012"
"5","5","encoding","encoding","22","Battery_AA.jpg","36","0","824"
"5","5","encoding","encoding","23","ReindeerHeadband.jpg","36","0","1064"
"5","5","encoding","encoding","24","Jar_Canopic.jpg","36","0","1144"
"5","5","encoding","encoding","25","Bottle_BubbleBlower.jpg","36","0","827"
"5","5","encoding","encoding","26","Joystick.jpg","36","0","727"
"5","5","encoding","encoding","27","Carousel copy.jpg","36","0","788"
"5","5","encoding","encoding","28","Boar.jpg","37","0","733"
"5","5","encoding","encoding","29","MilkJug.jpg","36","0","791"
"5","5","encoding","encoding","30","Bolt.jpg","36","0","1183"
"5","5","encoding","encoding","31","Exercise_Stepper.jpg","36","0","954"
"5","5","encoding","encoding","32","DartBoard.jpg","36","0","1013"
"5","5","encoding","encoding","33","Bowl_Wooden.jpg","36","0","924"
"5","5","encoding","encoding","34","TeethModel.jpg","36","0","821"
"5","5","encoding","encoding","35","Zucchini.jpg","37","0","771"
"5","5","encoding","encoding","36","Seahorse.jpg","36","0","932"
"5","5","encoding","encoding","37","DormerWindow.jpg","37","0","838"
"5","5","encoding","encoding","38","Snowboard.jpg","37","0","823"
"5","5","encoding","encoding","39","Ambulance.jpg","37","0","574"
"5","5","encoding","encoding","40","Fruit_Orange.jpg","36","0","1121"
"5","5","encoding","encoding","41","Pants.jpg","36","0","1229"
"5","5","encoding","encoding","42","NailClipper.jpg","36","0","904"
"5","5","encoding","encoding","43","Handbag.jpg","36","0","834"
"5","5","encoding","encoding","44","CarSuspension.jpg","36","0","1366"
"5","5","encoding","encoding","45","Pliers_NeedleNose.jpg","36","0","790"
"5","5","encoding","encoding","46","Jacket_Jean.jpg","36","0","1360"
"5","5","encoding","encoding","47","SpiderWeb.jpg","36","0","1029"
"5","5","encoding","encoding","48","Chair_Rocking.jpg","37","0","1471"
"5","5","encoding","encoding","49","CheeseSlicer.jpg","36","0","1397"
"5","5","encoding","encoding","50","SetSquare.jpg","36","0","990"
"5","5","encoding","encoding","51","Bag_Saline.jpg","36","0","1160"
"5","5","encoding","encoding","52","Paddle_PingPong.jpg","36","0","900"
"5","5","encoding","encoding","53","Egg_Cup.jpg","36","0","1087"
"5","5","encoding","encoding","54","Seashell_AlternateTellin.jpg","37","0","1019"
"5","5","encoding","encoding","55","Coin.jpg","36","0","797"
"5","5","encoding","encoding","56","Chinchilla.jpg","37","0","963"
"5","5","encoding","encoding","57","ShotGlassTray.jpg","36","0","863"
"5","5","encoding","encoding","58","Crackers_Ritz.jpg","36","0","901"
"5","5","encoding","encoding","59","Croissant.jpg","36","0","708"
"5","5","encoding","encoding","60","WindowBlinds.jpg","36","0","857"
"5","5","encoding","encoding","62","KitchenTools.jpg","36","0","1006"
"5","5","encoding","encoding","63","Candy_Heart.jpg","36","0","1135"
"5","5","encoding","encoding","64","Binder.jpg","36","0","681"
"5","5","encoding","encoding","65","Guitar_Electric.jpg","36","0","769"
"5","5","encoding","encoding","66","MousepadAndMouse.jpg","36","0","685"
"5","5","encoding","encoding","67","Cast.jpg","36","0","1223"
"5","5","encoding","encoding","68","Arch_Triomphe.jpg","37","0","667"
"5","5","encoding","encoding","69","AngleGrinder.jpg","36","0","860"
"5","5","encoding","encoding","70","Guitarcase.jpg","36","0","845"
"5","5","encoding","encoding","71","Purse.jpg","36","0","842"
"5","5","encoding","encoding","72","Brooch_Fish.jpg","36","0","939"
"5","5","encoding","encoding","73","MobilityScooter.jpg","37","0","681"
"5","5","encoding","encoding","74","Mask_CPR.jpg","36","0","1067"
"5","5","encoding","encoding","75","Truck_VintageBlue.jpg","37","0","921"
"5","5","encoding","encoding","76","RollingPin.jpg","36","0","648"
"5","5","encoding","encoding","77","Car_Ferrari.jpg","37","0","757"
"5","5","encoding","encoding","78","PaperTowel_Kitchen.jpg","36","0","847"
"5","5","encoding","encoding","79","Can_MilkAntique.jpg","36","0","795"
"5","5","encoding","encoding","80","Jug_GallonRed.jpg","37","0","1160"
"5","5","encoding","encoding","81","LaundryHamper.jpg","36","0","855"
"5","5","encoding","encoding","82","Microphone.jpg","36","0","1280"
"5","5","encoding","encoding","83","Toy_Turtle.jpg","36","0","876"
"5","5","encoding","encoding","84","Barometer.jpg","37","0","1192"
"5","5","encoding","encoding","85","Golf_Bag.jpg","37","0","927"
"5","5","encoding","encoding","86","Toy_SeeSaw.jpg","37","0","784"
"5","5","encoding","encoding","87","Amp.jpg","36","0","889"
"5","5","encoding","encoding","88","ScaleWeighing.jpg","36","0","848"
"5","5","encoding","encoding","89","Candy_Cane.jpg","36","0","874"
"5","5","encoding","encoding","90","Mug_Ceramic.jpg","36","0","643"
"5","5","encoding","encoding","91","PuppetTheatre_BlueRed.jpg","36","0","868"
"5","5","encoding","encoding","92","Ball_Disco.jpg","36","0","830"
"5","5","encoding","encoding","93","PedestalGreek.jpg","37","0","818"
"5","5","encoding","encoding","94","Tie.jpg","36","0","783"
"5","5","encoding","encoding","95","PagodaModel.jpg","36","0","1134"
"5","5","encoding","encoding","96","ToothPaste.jpg","36","0","789"
"5","5","encoding","encoding","97","VialLab.jpg","36","0","750"
"5","5","encoding","encoding","98","Sandwich_Egg.jpg","36","0","601"
"5","5","encoding","encoding","99","TowelRack_Brown.jpg","36","0","794"
"5","5","encoding","encoding","100","CoffeePot.jpg","36","0","685"
"5","5","encoding","encoding","101","Fruit_Carambola.jpg","36","0","762"
"5","5","encoding","encoding","102","Lemon.jpg","37","0","1297"
"5","5","encoding","encoding","103","DoorHandle.jpg","36","0","1151"
"5","5","encoding","encoding","104","BasketballHoop.jpg","37","0","758"
"5","5","encoding","encoding","105","ButterChurn.jpg","37","0","1010"
"5","5","encoding","encoding","106","MagazineRoll.jpg","36","0","1106"
"5","5","encoding","encoding","107","ToothBrush.jpg","36","0","661"
"5","5","encoding","encoding","108","Instrument_Nyckelharpa.jpg","36","0","714"
"5","5","encoding","encoding","109","WorldMap.jpg","36","0","778"
"5","5","encoding","encoding","110","Loveseat.jpg","36","0","740"
"5","5","encoding","encoding","111","Cactus.jpg","36","0","1003"
"5","5","encoding","encoding","112","Glasses_Reading.jpg","36","0","635"
"5","5","encoding","encoding","113","Sign_SpeedLimit25.jpg","37","0","635"
"5","5","encoding","encoding","114","Bamboo.jpg","36","0","926"
"5","5","encoding","encoding","115","Bindings_Snowboard.jpg","37","0","1368"
"5","5","encoding","encoding","116","Flower_Crane.jpg","37","0","912"
"5","5","encoding","encoding","117","FlintIgniter.jpg","36","0","806"
"5","5","encoding","encoding","118","Radio_Antique.jpg","36","0","765"
"5","5","encoding","encoding","119","Garbage_GreenBin.jpg","37","0","694"
"5","5","encoding","encoding","120","Clamp.jpg","37","0","1068"
"5","5","encoding","encoding","121","Sock_Ankle.jpg","36","0","696"
"5","5","encoding","encoding","123","RollerCoaster.jpg","37","0","813"
"5","5","encoding","encoding","124","Headphones.jpg","36","0","719"
"5","5","encoding","encoding","125","Jar_Cookie.jpg","36","0","754"
"5","5","encoding","encoding","126","BearPolar.jpg","37","0","798"
"5","5","encoding","encoding","127","Cheeseburger.jpg","36","0","637"
"5","5","encoding","encoding","128","Helmet_Motorcycle.jpg","37","0","666"
"5","5","encoding","encoding","129","Light_Studio.jpg","36","0","1224"
"5","5","encoding","encoding","130","Hulahoop.jpg","37","0","1004"
"5","5","encoding","encoding","131","Dog_SaintBernard.jpg","37","0","667"
"5","5","encoding","encoding","132","Plunger.jpg","36","0","828"
"5","5","encoding","encoding","133","WalkieTalkie_Red.jpg","37","0","945"
"5","5","encoding","encoding","134","Apple_RedAndGreen.jpg","37","0","907"
"5","5","encoding","encoding","135","Binoculars.jpg","37","0","883"
"5","5","encoding","encoding","136","CompassCardinal.jpg","37","0","830"
"5","5","encoding","encoding","137","Basket_Bread.jpg","36","0","769"
"5","5","encoding","encoding","138","DogLeash.jpg","37","0","718"
"5","5","encoding","encoding","139","Paddle_Beach.jpg","36","0","768"
"5","5","encoding","encoding","140","Trash_Medical.jpg","0","0","2000"
"5","5","encoding","encoding","141","House_Stone.jpg","37","0","923"
"5","5","encoding","encoding","142","Mask_Gas.jpg","37","0","1062"
"5","5","encoding","encoding","143","LetterMail.jpg","36","0","797"
"5","5","encoding","encoding","144","HairBand.jpg","36","0","776"
"5","5","encoding","encoding","145","FoodMill.jpg","36","0","942"
"5","5","encoding","encoding","146","Lettuce_Iceberg.jpg","36","0","1057"
"5","5","encoding","encoding","147","OrangeBlood.jpg","36","0","864"
"5","5","encoding","encoding","148","Cup_Bathroom.jpg","36","0","723"
"5","5","encoding","encoding","149","Goat.jpg","37","0","697"
"5","5","encoding","encoding","150","Brace_Back.jpg","36","0","1305"
"5","5","encoding","encoding","151","IceScraper.jpg","37","0","933"
"5","5","encoding","encoding","152","Hook_Double.jpg","37","0","897"
"5","5","encoding","encoding","153","WireStripper.jpg","37","0","1122"
"5","5","encoding","encoding","154","HandMixer.jpg","36","0","847"
"5","5","encoding","encoding","155","Box_Floral.jpg","36","0","838"
"5","5","encoding","encoding","156","SpaceRover.jpg","37","0","1054"
"5","5","encoding","encoding","157","Hanger.jpg","36","0","657"
"5","5","encoding","encoding","158","SoapBottle.jpg","36","0","618"
"5","5","encoding","encoding","159","Gorilla.jpg","37","0","542"
"5","5","encoding","encoding","160","Toy_Helicopter.jpg","36","0","826"
"5","5","encoding","encoding","161","Giraffe.jpg","37","0","563"
"5","5","encoding","encoding","162","Pipe.jpg","36","0","773"
"5","5","encoding","encoding","163","AmpMeter.jpg","36","0","1514"
"5","5","encoding","encoding","164","Hook_Fishing.jpg","37","0","788"
"5","5","encoding","encoding","165","Shoe_Men.jpg","36","0","782"
"5","5","encoding","encoding","166","MeatGrinder.jpg","36","0","884"
"5","5","encoding","encoding","167","BicycleBrake.jpg","37","0","1347"
"5","5","encoding","encoding","168","Tape_Clear.jpg","36","0","1098"
"5","5","encoding","encoding","169","Tube.jpg","37","0","1022"
"5","5","encoding","encoding","170","Pasta_Fettuccine.jpg","36","0","1062"
"5","5","encoding","encoding","171","Saw.jpg","37","0","787"
"5","5","encoding","encoding","172","RecordPlayer.jpg","36","0","708"
"5","5","encoding","encoding","173","Tractor_Orange.jpg","37","0","746"
"5","5","encoding","encoding","174","Chair_BeanBag.jpg","36","0","723"
"5","5","encoding","encoding","175","Heater_Infrared.jpg","36","0","895"
"5","5","encoding","encoding","176","Shoes_Pumps.jpg","36","0","708"
"5","5","encoding","encoding","177","Bowtie.jpg","36","0","825"
"5","5","retrieval","old_objects","1","Bamboo.jpg","36","1","1079"
"5","5","retrieval","new_objects","2","DogFood.jpg","37","1","724"
"5","5","retrieval","new_objects","3","DJMixer.jpg","37","1","909"
"5","5","retrieval","new_objects","4","Mattress.jpg","37","1","730"
"5","5","retrieval","old_objects","5","Pipe.jpg","36","1","749"
"5","5","retrieval","new_objects","6","Playground.jpg","37","1","1009"
"5","5","retrieval","old_objects","7","PedestalGreek.jpg","36","1","940"
"5","5","retrieval","new_objects","8","Cherry.jpg","37","1","771"
"5","5","retrieval","old_objects","9","BearPolar.jpg","36","1","1143"
"5","5","retrieval","old_objects","10","Stroller.jpg","36","1","832"
"5","5","retrieval","old_objects","11","Hanger.jpg","36","1","624"
"5","5","retrieval","old_objects","12","FlintIgniter.jpg","36","1","628"
"5","5","retrieval","new_objects","13","Origami_Bird.jpg","37","1","706"
"5","5","retrieval","old_objects","14","RollerCoaster.jpg","36","1","703"
"5","5","retrieval","old_objects","15","Cast.jpg","36","1","762"
"5","5","retrieval","new_objects","16","Figurine_Ballerina.jpg","37","1","721"
"5","5","retrieval","old_objects","17","Helmet_Motorcycle.jpg","36","1","759"
"5","5","retrieval","new_objects","18","Pepper_Chili.jpg","37","1","778"
"5","5","retrieval","old_objects","19","CarSuspension.jpg","36","1","933"
"5","5","retrieval","new_objects","20","Chair_High.jpg","37","1","732"
"5","5","retrieval","old_objects","21","MousepadAndMouse.jpg","36","1","839"
"5","5","retrieval","new_objects","22","Tape_Scotch.jpg","37","1","788"
"5","5","retrieval","new_objects","23","ChessPiece_Bishop.jpg","37","1","743"
"5","5","retrieval","new_objects","24","WashingMachine.jpg","37","1","794"
"5","5","retrieval","old_objects","25","PuppetTheatre_BlueRed.jpg","36","1","784"
"5","5","retrieval","new_objects","26","Cookie.jpg","37","1","763"
"5","5","retrieval","new_objects","27","Bottle_Champagne.jpg","37","1","1099"
"5","5","retrieval","new_objects","28","Clip_Binder.jpg","37","1","889"
"5","5","retrieval","new_objects","29","Tap.jpg","37","1","729"
"5","5","retrieval","old_objects","30","SetSquare.jpg","36","1","780"
"5","5","retrieval","new_objects","31","ShowerCap.jpg","37","1","711"
"5","5","retrieval","new_objects","32","GasBurner.jpg","37","1","817"
"5","5","retrieval","old_objects","33","Jar_Canopic.jpg","36","1","747"
"5","5","retrieval","old_objects","34","MagazineRoll.jpg","36","1","688"
"5","5","retrieval","old_objects","35","Table_Picnic.jpg","36","1","631"
"5","5","retrieval","old_objects","36","AmpMeter.jpg","36","1","673"
"5","5","retrieval","old_objects","37","BicycleBrake.jpg","36","1","885"
"5","5","retrieval","new_objects","38","Spotlight.jpg","36","0","1474"
"5","5","retrieval","old_objects","39","Lettuce_Iceberg.jpg","36","1","711"
"5","5","retrieval","new_objects","40","Snail.jpg","37","1","701"
"5","5","retrieval","old_objects","41","Goat.jpg","36","1","1149"
"5","5","retrieval","old_objects","42","FoodMill.jpg","36","1","947"
"5","5","retrieval","old_objects","43","Taco.jpg","36","1","1457"
"5","5","retrieval","old_objects","44","Fruit_Orange.jpg","36","1","1219"
"5","5","retrieval","old_objects","45","Iguana.jpg","36","1","938"
"5","5","retrieval","old_objects","46","Arch_Triomphe.jpg","36","1","775"
"5","5","retrieval","old_objects","47","Brooch_Fish.jpg","36","1","683"
"5","5","retrieval","new_objects","48","Bread_Pita.jpg","37","1","635"
"5","5","retrieval","new_objects","49","PuppetTheatre_WhiteGold.jpg","37","1","805"
"5","5","retrieval","old_objects","50","SpiderWeb.jpg","36","1","836"
"5","5","retrieval","old_objects","51","HairBand.jpg","36","1","612"
"5","5","retrieval","old_objects","52","Box_Wine.jpg","36","1","580"
"5","5","retrieval","new_objects","53","Hawk.jpg","37","1","806"
"5","5","retrieval","old_objects","54","Dog_SaintBernard.jpg","36","1","667"
"5","5","retrieval","old_objects","55","SpaceRover.jpg","36","1","689"
"5","5","retrieval","new_objects","56","Car_Sedan.jpg","37","1","589"
"5","5","retrieval","new_objects","57","Cannoli.jpg","37","1","755"
"5","5","retrieval","old_objects","58","Toy_SeeSaw.jpg","36","1","737"
"5","5","retrieval","old_objects","59","Jug_GallonRed.jpg","36","1","575"
"5","5","retrieval","new_objects","60","Branches_Campfire.jpg","37","1","586"
"5","5","retrieval","old_objects","62","WindowBlinds.jpg","36","1","816"
"5","5","retrieval","old_objects","63","Glasses_Reading.jpg","36","1","636"
"5","5","retrieval","new_objects","64","KeyHook_Occupied.jpg","37","1","755"
"5","5","retrieval","old_objects","65","Truck_VintageBlue.jpg","36","1","1006"
"5","5","retrieval","old_objects","66","Zucchini.jpg","36","1","650"
"5","5","retrieval","old_objects","67","Hulahoop.jpg","36","1","651"
"5","5","retrieval","old_objects","68","Van.jpg","36","1","557"
"5","5","retrieval","new_objects","69","Apple_Candy.jpg","37","1","684"
"5","5","retrieval","new_objects","70","Boat_Colourful.jpg","37","1","511"
"5","5","retrieval","new_objects","71","Spoons_Musical.jpg","37","1","602"
"5","5","retrieval","old_objects","72","Ginger.jpg","36","1","667"
"5","5","retrieval","new_objects","73","Toast.jpg","37","1","747"
"5","5","retrieval","old_objects","74","Chair_BeanBag.jpg","36","1","626"
"5","5","retrieval","old_objects","75","OrangeBlood.jpg","36","1","581"
"5","5","retrieval","new_objects","76","Brush_Paint.jpg","37","1","810"
"5","5","retrieval","old_objects","77","Snowboard.jpg","36","1","917"
"5","5","retrieval","old_objects","78","Loveseat.jpg","36","1","730"
"5","5","retrieval","old_objects","79","Radio_Antique.jpg","36","1","748"
"5","5","retrieval","old_objects","80","Heater_Infrared.jpg","36","1","1064"
"5","5","retrieval","new_objects","81","Shoes_Sneakers.jpg","37","1","674"
"5","5","retrieval","new_objects","82","Dropper.jpg","37","1","769"
"5","5","retrieval","new_objects","83","Napkin_Single.jpg","37","1","571"
"5","5","retrieval","new_objects","84","Bird_Tern.jpg","37","1","596"
"5","5","retrieval","new_objects","85","Autocreeper.jpg","37","1","564"
"5","5","retrieval","new_objects","86","Puzzle_Tree.jpg","37","1","581"
"5","5","retrieval","old_objects","87","Film_Roll.jpg","36","1","738"
"5","5","retrieval","new_objects","88","Cassette_Audio.jpg","37","1","632"
"5","5","retrieval","new_objects","89","Corn_Kernels.jpg","37","1","533"
"5","5","retrieval","old_objects","90","Crackers_Ritz.jpg","36","1","731"
"5","5","retrieval","new_objects","91","DrainPlug.jpg","37","1","865"
"5","5","retrieval","old_objects","92","AngleGrinder.jpg","36","1","689"
"5","5","retrieval","new_objects","93","Hat_Visor.jpg","37","1","674"
"5","5","retrieval","new_objects","94","Mask_African.jpg","37","1","642"
"5","5","retrieval","new_objects","95","Pitcher.jpg","37","1","677"
"5","5","retrieval","old_objects","96","HandMixer.jpg","36","1","689"
"5","5","retrieval","new_objects","97","Toy_MerryGoRound.jpg","37","1","1066"
"5","5","retrieval","new_objects","98","Desk_School.jpg","37","1","690"
"5","5","retrieval","old_objects","99","CheeseSlicer.jpg","36","1","779"
"5","5","retrieval","old_objects","100","Paddle_PingPong.jpg","36","1","747"
"5","5","retrieval","old_objects","101","SoapBottle.jpg","36","1","698"
"5","5","retrieval","new_objects","102","Tombstone.jpg","37","1","639"
"5","5","retrieval","new_objects","103","Lantern_TeaBox.jpg","37","1","785"
"5","5","retrieval","old_objects","104","Sign_SpeedLimit30.jpg","36","1","810"
"5","5","retrieval","old_objects","105","Button.jpg","36","1","765"
"5","5","retrieval","new_objects","106","Exercise_Bike.jpg","37","1","663"
"5","5","retrieval","new_objects","107","Cloud.jpg","37","1","580"
"5","5","retrieval","old_objects","108","Trash_Medical.jpg","36","1","690"
"5","5","retrieval","old_objects","109","ScaleWeighing.jpg","36","1","602"
"5","5","retrieval","new_objects","110","IceCreamCone.jpg","37","1","559"
"5","5","retrieval","new_objects","111","Canteen.jpg","37","1","590"
"5","5","retrieval","new_objects","112","Mask_Ski.jpg","37","1","788"
"5","5","retrieval","new_objects","113","MixingGlass.jpg","37","1","699"
"5","5","retrieval","old_objects","114","Instrument_Nyckelharpa.jpg","37","0","798"
"5","5","retrieval","old_objects","115","Plunger.jpg","36","1","806"
"5","5","retrieval","old_objects","116","Paddle_Beach.jpg","36","1","689"
"5","5","retrieval","new_objects","117","Tricycle.jpg","37","1","589"
"5","5","retrieval","old_objects","118","NailClipper.jpg","36","1","662"
"5","5","retrieval","old_objects","119","CoffeePot.jpg","36","1","650"
"5","5","retrieval","new_objects","120","ToothbrushHolder.jpg","37","1","546"
"5","5","retrieval","old_objects","121","Shoes_Pumps.jpg","36","1","633"
