"group","subject","blockcode","trialcode","trialnum","values.stimulus","response","correct","latency"
"2","2","encoding","encoding","1","Bench_Black.jpg","37","0","1201"
"2","2","encoding","encoding","2","Toy_Firetruck.jpg","36","0","1758"
"2","2","encoding","encoding","3","Jug_Wicker.jpg","36","0","880"
"2","2","encoding","encoding","4","Cake_Cheese.jpg","36","0","930"
"2","2","encoding","encoding","5","CigarCase.jpg","36","0","1488"
"2","2","encoding","encoding","6","Egg_Chocolate.jpg","36","0","1111"
"2","2","encoding","encoding","7","RibbonSpool.jpg","36","0","1157"
"2","2","encoding","encoding","8","Mitt_Oven.jpg","36","0","903"
"2","2","encoding","encoding","9","Suit_Women.jpg","36","0","1746"
"2","2","encoding","encoding","10","Locomotive.jpg","37","0","1108"
"2","2","encoding","encoding","11","Puffin.jpg","37","0","854"
"2","2","encoding","encoding","12","Toy_DonkeyPlastic.jpg","36","0","1593"
"2","2","encoding","encoding","13","PylonTraffic.jpg","37","0","939"
"2","2","encoding","encoding","14","Caterpillar.jpg","37","0","781"
"2","2","encoding","encoding","15","Strainer_Tea.jpg","36","0","1251"
"2","2","encoding","encoding","16","Pouch_Red.jpg","36","0","914"
"2","2","encoding","encoding","17","House_Rural.jpg","37","0","1028"
"2","2","encoding","encoding","18","EyeChart.jpg","36","0","1654"
"2","2","encoding","encoding","19","Ferret.jpg","37","0","1356"
"2","2","encoding","encoding","20","Comb.jpg","36","0","1504"
"2","2","encoding","encoding","21","Helmet_Football.jpg","36","0","1369"
"2","2","encoding","encoding","22","LifeJacket_Orangejpg.jpg","37","0","1615"
"2","2","encoding","encoding","23","FloorTile.jpg","36","0","933"
"2","2","encoding","encoding","24","Dresser.jpg","36","0","1488"
"2","2","encoding","encoding","25","Horn_French.jpg","36","0","1806"
"2","2","encoding","encoding","26","Toy_TrailerAirport.jpg","36","0","1404"
"2","2","encoding","encoding","27","Tray_Medical.jpg","36","0","958"
"2","2","encoding","encoding","28","Rake_Long.jpg","37","0","1476"
"2","2","encoding","encoding","29","Paddle_Ball.jpg","36","0","1110"
"2","2","encoding","encoding","30","GPS.jpg","36","0","1397"
"2","2","encoding","encoding","31","VinylRecord.jpg","36","0","959"
"2","2","encoding","encoding","32","Stamp.jpg","36","0","1333"
"2","2","encoding","encoding","33","Hourglass.jpg","36","0","784"
"2","2","encoding","encoding","34","PowerDoorPushButton.jpg","0","0","2000"
"2","2","encoding","encoding","35","ButterDish.jpg","36","0","1299"
"2","2","encoding","encoding","36","Toy_BlocksWoodenPlain.jpg","36","0","945"
"2","2","encoding","encoding","37","Steamer.jpg","36","0","631"
"2","2","encoding","encoding","38","Statue_Cat.jpg","36","0","1190"
"2","2","encoding","encoding","39","Table_Poker.jpg","37","0","1532"
"2","2","encoding","encoding","40","Booth_Carnival.jpg","36","0","1006"
"2","2","encoding","encoding","41","CashRegister_Antique.jpg","36","0","1585"
"2","2","encoding","encoding","42","PeriodicTable.jpg","36","0","939"
"2","2","encoding","encoding","43","PowderProtein.jpg","36","0","909"
"2","2","encoding","encoding","44","Generator.jpg","37","0","1387"
"2","2","encoding","encoding","45","NewspaperStack.jpg","0","0","2000"
"2","2","encoding","encoding","46","Bag_Satchel.jpg","36","0","1256"
"2","2","encoding","encoding","47","Flower_Tulip.jpg","37","0","826"
"2","2","encoding","encoding","48","StringBean.jpg","36","0","1232"
"2","2","encoding","encoding","49","Box_Jewellery.jpg","36","0","838"
"2","2","encoding","encoding","50","DrillBit.jpg","36","0","1385"
"2","2","encoding","encoding","51","CandleSnuffer.jpg","36","0","1843"
"2","2","encoding","encoding","52","PulleyWooden.jpg","37","0","1733"
"2","2","encoding","encoding","53","Hat_Hard.jpg","37","0","1139"
"2","2","encoding","encoding","54","Stool_Foot.jpg","36","0","737"
"2","2","encoding","encoding","55","Bottle_Oil.jpg","36","0","1396"
"2","2","encoding","encoding","56","Pillow_Plaid.jpg","36","0","709"
"2","2","encoding","encoding","57","Box_WoodenClosed.jpg","36","0","688"
"2","2","encoding","encoding","58","Stovetop.jpg","36","0","1622"
"2","2","encoding","encoding","59","Toy_Rooster.jpg","36","0","1123"
"2","2","encoding","encoding","60","Crutches.jpg","36","0","722"
"2","2","encoding","encoding","62","Pretzel_Knot.jpg","36","0","1692"
"2","2","encoding","encoding","63","Ball_Baseball.jpg","37","0","1110"
"2","2","encoding","encoding","64","ManholeCover.jpg","37","0","888"
"2","2","encoding","encoding","65","Toy_RobotClassic.jpg","36","0","1058"
"2","2","encoding","encoding","66","Ladder.jpg","36","0","1061"
"2","2","encoding","encoding","67","Bowl_Sugar.jpg","36","0","1035"
"2","2","encoding","encoding","68","Bag_PaperWithFlour.jpg","36","0","1093"
"2","2","encoding","encoding","69","Stove_Portable.jpg","37","0","1564"
"2","2","encoding","encoding","70","Nuts_Pecan.jpg","36","0","1318"
"2","2","encoding","encoding","71","Ball_Tennis.jpg","37","0","924"
"2","2","encoding","encoding","72","Lens_ColourFilter.jpg","36","0","874"
"2","2","encoding","encoding","73","CookieCutter_Bell.jpg","36","0","826"
"2","2","encoding","encoding","74","Fortress.jpg","37","0","1031"
"2","2","encoding","encoding","75","Bowl_Chopsticks.jpg","36","0","929"
"2","2","encoding","encoding","76","Toy_ElephantPlastic.jpg","36","0","872"
"2","2","encoding","encoding","77","Hotdog_Weiner.jpg","36","0","782"
"2","2","encoding","encoding","78","Quartz.jpg","37","0","1492"
"2","2","encoding","encoding","79","Pacifier.jpg","36","0","918"
"2","2","encoding","encoding","80","Stationary.jpg","36","0","1401"
"2","2","encoding","encoding","81","Megaphone.jpg","37","0","1147"
"2","2","encoding","encoding","82","ChiliFlakes.jpg","36","0","1177"
"2","2","encoding","encoding","83","Bottle_Specimen.jpg","36","0","900"
"2","2","encoding","encoding","84","Mug_Travel.jpg","36","0","698"
"2","2","encoding","encoding","85","SledgeHammer.jpg","36","0","1220"
"2","2","encoding","encoding","86","Sandcastle.jpg","37","0","1186"
"2","2","encoding","encoding","87","Jacks.jpg","36","0","716"
"2","2","encoding","encoding","88","VacuumHandheld.jpg","36","0","1347"
"2","2","encoding","encoding","89","Camel_Dromedary.jpg","37","0","948"
"2","2","encoding","encoding","90","Candleholder_LampShaped.jpg","36","0","866"
"2","2","encoding","encoding","91","ShinPads.jpg","36","0","1257"
"2","2","encoding","encoding","92","Cantaloupe.jpg","36","0","1190"
"2","2","encoding","encoding","93","Gloves_Bicycle.jpg","37","0","1693"
"2","2","encoding","encoding","94","Buffalo.jpg","37","0","990"
"2","2","encoding","encoding","95","Bucket_WoodenLight.jpg","36","0","1396"
"2","2","encoding","encoding","96","Cane_Metal.jpg","36","0","1195"
"2","2","encoding","encoding","97","Dragonfly.jpg","37","0","877"
"2","2","encoding","encoding","98","Squash_Butternut.jpg","36","0","1151"
"2","2","encoding","encoding","99","ComputerKeyboard.jpg","36","0","1049"
"2","2","encoding","encoding","100","NetButterfly.jpg","37","0","1988"
"2","2","encoding","encoding","101","Clothespin_Red.jpg","36","0","1917"
"2","2","encoding","encoding","102","Mat_Door.jpg","36","0","1187"
"2","2","encoding","encoding","103","Chipmunk.jpg","37","0","966"
"2","2","encoding","encoding","104","Fridge.jpg","36","0","616"
"2","2","encoding","encoding","105","Bag_String.jpg","36","0","998"
"2","2","encoding","encoding","106","Sign_TrafficArrow.jpg","37","0","997"
"2","2","encoding","encoding","107","Cooler.jpg","37","0","1095"
"2","2","encoding","encoding","108","ChocolateBar_HalfUnwrapped.jpg","36","0","1065"
"2","2","encoding","encoding","109","Sandwich_Ham.jpg","36","0","1259"
"2","2","encoding","encoding","110","DoorBell.jpg","0","0","2000"
"2","2","encoding","encoding","111","Scroll.jpg","36","0","1207"
"2","2","encoding","encoding","112","Hippopotamus.jpg","37","0","657"
"2","2","encoding","encoding","113","Yarmulke.jpg","36","0","943"
"2","2","encoding","encoding","114","Tube_Paint.jpg","36","0","1474"
"2","2","encoding","encoding","115","CandyDispenser.jpg","36","0","1828"
"2","2","encoding","encoding","116","Tray_Muffin.jpg","36","0","1589"
"2","2","encoding","encoding","117","Bag_Toiletry.jpg","36","0","1080"
"2","2","encoding","encoding","118","Pot_Cooking.jpg","36","0","769"
"2","2","encoding","encoding","119","Toblerone.jpg","36","0","1232"
"2","2","encoding","encoding","120","BumperCar.jpg","37","0","1654"
"2","2","encoding","encoding","121","Tray_Metal.jpg","36","0","736"
"2","2","encoding","encoding","123","Rope_Manila.jpg","37","0","1354"
"2","2","encoding","encoding","124","Toy_Chameleon.jpg","37","0","897"
"2","2","encoding","encoding","125","WateringCan_PlasticDarkGreen.jpg","37","0","1255"
"2","2","encoding","encoding","126","TelephoneSwitchboard.jpg","0","0","2000"
"2","2","encoding","encoding","127","Fencing_HelmetSwords.jpg","36","0","1763"
"2","2","encoding","encoding","128","TissueBox.jpg","36","0","813"
"2","2","encoding","encoding","129","ShoeLace_Flat.jpg","36","0","1492"
"2","2","encoding","encoding","130","Pliers_ViceGrip.jpg","37","0","1329"
"2","2","encoding","encoding","131","BicycleHandleGrip.jpg","36","0","1624"
"2","2","encoding","encoding","132","Toy_Lizard.jpg","37","0","738"
"2","2","encoding","encoding","133","Bottle_Blue.jpg","36","0","1208"
"2","2","encoding","encoding","134","Boat_Dinghy.jpg","37","0","1491"
"2","2","encoding","encoding","135","Instrument_African.jpg","36","0","1657"
"2","2","encoding","encoding","136","Candy_Toffee.jpg","36","0","955"
"2","2","encoding","encoding","137","PlayerFootball.jpg","37","0","978"
"2","2","encoding","encoding","138","Chair_Dining.jpg","36","0","1200"
"2","2","encoding","encoding","139","Domino.jpg","36","0","1310"
"2","2","encoding","encoding","140","EspressoMachine.jpg","36","0","1132"
"2","2","encoding","encoding","141","Artichoke.jpg","0","0","2000"
"2","2","encoding","encoding","142","Guacamole.jpg","36","0","1056"
"2","2","encoding","encoding","143","Stick_Honey.jpg","36","0","843"
"2","2","encoding","encoding","144","Boots_KneeHigh.jpg","36","0","877"
"2","2","encoding","encoding","145","Kangaroo_WithJoey.jpg","37","0","1230"
"2","2","encoding","encoding","146","Olives.jpg","37","0","1240"
"2","2","encoding","encoding","147","Stick_IceHockey.jpg","37","0","1614"
"2","2","encoding","encoding","148","Hubcap.jpg","37","0","1852"
"2","2","encoding","encoding","149","Vase_Decorative.jpg","36","0","913"
"2","2","encoding","encoding","150","Machine_Bread.jpg","36","0","1211"
"2","2","encoding","encoding","151","Blanket.jpg","36","0","878"
"2","2","encoding","encoding","152","PickupTruck.jpg","37","0","1280"
"2","2","encoding","encoding","153","HerbsInBag.jpg","37","0","1645"
"2","2","encoding","encoding","154","PumpBreast.jpg","36","0","1136"
"2","2","encoding","encoding","155","Gum_Pack.jpg","36","0","1014"
"2","2","encoding","encoding","156","Scooter.jpg","37","0","1596"
"2","2","encoding","encoding","157","Barometer_Wood.jpg","36","0","1314"
"2","2","encoding","encoding","158","Clock_Grandfather.jpg","36","0","1133"
"2","2","encoding","encoding","159","LintRemover.jpg","36","0","1319"
"2","2","encoding","encoding","160","Barbecue_Charcoal.jpg","37","0","829"
"2","2","encoding","encoding","161","Glass_Beer.jpg","36","0","1812"
"2","2","encoding","encoding","162","Can_Olives.jpg","36","0","918"
"2","2","encoding","encoding","163","Steeple.jpg","37","0","736"
"2","2","encoding","encoding","164","Leaf_Green.jpg","37","0","1131"
"2","2","encoding","encoding","165","Candy_Lozenge.jpg","36","0","813"
"2","2","encoding","encoding","166","Cake_Wedding.jpg","36","0","1471"
"2","2","encoding","encoding","167","RugRoled.jpg","36","0","941"
"2","2","encoding","encoding","168","Mirror_Handheld.jpg","36","0","1779"
"2","2","encoding","encoding","169","Colosseum.jpg","37","0","662"
"2","2","encoding","encoding","170","Foam_Accoustic.jpg","36","0","1060"
"2","2","encoding","encoding","171","Hammer.jpg","37","0","1738"
"2","2","encoding","encoding","172","Sink_Kitchen.jpg","36","0","992"
"2","2","encoding","encoding","173","Stool_Metal.jpg","36","0","1086"
"2","2","encoding","encoding","174","Jacket_Suit.jpg","37","0","1869"
"2","2","encoding","encoding","175","Drink_Cocktail.jpg","0","0","2000"
"2","2","encoding","encoding","176","MetalDetector.jpg","37","0","1856"
"2","2","encoding","encoding","177","Tractor_Yellow.jpg","37","0","722"
"2","2","retrieval","old_objects","1","Instrument_African.jpg","36","1","1389"
"2","2","retrieval","new_objects","2","Hat_Beret.jpg","37","1","938"
"2","2","retrieval","old_objects","3","Candy_Lozenge.jpg","36","1","1442"
"2","2","retrieval","new_objects","4","Fork_Regular.jpg","37","1","1031"
"2","2","retrieval","new_objects","5","Toy_DollOffice.jpg","37","1","1104"
"2","2","retrieval","old_objects","6","Stationary.jpg","37","0","1048"
"2","2","retrieval","new_objects","7","AirCompressor.jpg","37","1","783"
"2","2","retrieval","new_objects","8","Fan_Blades.jpg","37","1","608"
"2","2","retrieval","old_objects","9","Bucket_WoodenLight.jpg","36","1","684"
"2","2","retrieval","new_objects","10","Swing_Porch.jpg","37","1","1022"
"2","2","retrieval","old_objects","11","Box_WoodenClosed.jpg","36","1","713"
"2","2","retrieval","new_objects","12","AmberWithMosquito.jpg","37","1","1065"
"2","2","retrieval","new_objects","13","Hook_Ceiling.jpg","37","1","855"
"2","2","retrieval","new_objects","14","Brush_Makeup.jpg","37","1","701"
"2","2","retrieval","old_objects","15","Bottle_Specimen.jpg","36","1","696"
"2","2","retrieval","new_objects","16","CertificateFramed.jpg","37","1","722"
"2","2","retrieval","new_objects","17","Dynamite.jpg","37","1","646"
"2","2","retrieval","new_objects","18","BicycleOdometer.jpg","37","1","960"
"2","2","retrieval","new_objects","19","Ship_Model.jpg","37","1","809"
"2","2","retrieval","old_objects","20","CandleSnuffer.jpg","36","1","989"
"2","2","retrieval","old_objects","21","Hourglass.jpg","36","1","766"
"2","2","retrieval","old_objects","22","Blanket.jpg","36","1","652"
"2","2","retrieval","new_objects","23","FireAlarm.jpg","37","1","746"
"2","2","retrieval","old_objects","24","Buffalo.jpg","37","0","637"
"2","2","retrieval","new_objects","25","LeatherPuncherTool.jpg","37","1","1076"
"2","2","retrieval","old_objects","26","Toy_ElephantPlastic.jpg","36","1","1073"
"2","2","retrieval","old_objects","27","Tray_Medical.jpg","36","1","1283"
"2","2","retrieval","old_objects","28","CigarCase.jpg","36","1","1169"
"2","2","retrieval","new_objects","29","TowerEiffel.jpg","0","0","2000"
"2","2","retrieval","old_objects","30","BicycleHandleGrip.jpg","36","1","1117"
"2","2","retrieval","old_objects","31","Sink_Kitchen.jpg","36","1","1089"
"2","2","retrieval","old_objects","32","NewspaperStack.jpg","36","1","890"
"2","2","retrieval","old_objects","33","MetalDetector.jpg","36","1","1095"
"2","2","retrieval","new_objects","34","OnionRed.jpg","37","1","1656"
"2","2","retrieval","old_objects","35","Sign_TrafficArrow.jpg","36","1","1164"
"2","2","retrieval","new_objects","36","Necklace_Pearl.jpg","37","1","978"
"2","2","retrieval","new_objects","37","Nightstand.jpg","37","1","1783"
"2","2","retrieval","new_objects","38","Windmill_Building.jpg","37","1","1265"
"2","2","retrieval","old_objects","39","TissueBox.jpg","36","1","939"
"2","2","retrieval","new_objects","40","RamAnimal.jpg","37","1","1702"
"2","2","retrieval","old_objects","41","Mirror_Handheld.jpg","36","1","1903"
"2","2","retrieval","old_objects","42","SledgeHammer.jpg","36","1","1081"
"2","2","retrieval","new_objects","43","House_Wooden.jpg","37","1","1974"
"2","2","retrieval","old_objects","44","Gloves_Bicycle.jpg","36","1","945"
"2","2","retrieval","old_objects","45","Rake_Long.jpg","36","1","807"
"2","2","retrieval","new_objects","46","NailFiles.jpg","37","1","1175"
"2","2","retrieval","new_objects","47","Spatula_1.jpg","37","1","1908"
"2","2","retrieval","new_objects","48","PhoneJack.jpg","37","1","1101"
"2","2","retrieval","old_objects","49","Bottle_Oil.jpg","0","0","2000"
"2","2","retrieval","old_objects","50","Toy_Rooster.jpg","36","1","1000"
"2","2","retrieval","new_objects","51","Light_Traffic.jpg","37","1","1788"
"2","2","retrieval","old_objects","52","PowerDoorPushButton.jpg","36","1","858"
"2","2","retrieval","new_objects","53","Hookah.jpg","37","1","1640"
"2","2","retrieval","old_objects","54","Chipmunk.jpg","36","1","1040"
"2","2","retrieval","new_objects","55","Blueberry.jpg","37","1","1443"
"2","2","retrieval","new_objects","56","Switch_LightBlack.jpg","36","0","1234"
"2","2","retrieval","new_objects","57","PanCooking.jpg","36","0","1433"
"2","2","retrieval","old_objects","58","Leaf_Green.jpg","36","1","1069"
"2","2","retrieval","old_objects","59","Cake_Cheese.jpg","36","1","891"
"2","2","retrieval","new_objects","60","Snorkle.jpg","37","1","1988"
"2","2","retrieval","old_objects","62","Bag_String.jpg","36","1","1322"
"2","2","retrieval","old_objects","63","Scooter.jpg","36","1","998"
"2","2","retrieval","new_objects","64","DogHouse.jpg","36","0","1959"
"2","2","retrieval","new_objects","65","Altar.jpg","37","1","1662"
"2","2","retrieval","old_objects","66","Guacamole.jpg","36","1","789"
"2","2","retrieval","new_objects","67","Jar_Honey.jpg","37","1","1717"
"2","2","retrieval","new_objects","68","Phone_Flip.jpg","37","1","1351"
"2","2","retrieval","old_objects","69","Bottle_Blue.jpg","36","1","929"
"2","2","retrieval","old_objects","70","Domino.jpg","36","1","892"
"2","2","retrieval","old_objects","71","Jacket_Suit.jpg","36","1","881"
"2","2","retrieval","new_objects","72","Makeup_Foundation.jpg","37","1","1014"
"2","2","retrieval","old_objects","73","Artichoke.jpg","36","1","886"
"2","2","retrieval","old_objects","74","PickupTruck.jpg","36","1","1563"
"2","2","retrieval","new_objects","75","Pillow_Heart.jpg","37","1","1033"
"2","2","retrieval","old_objects","76","Foam_Accoustic.jpg","36","1","701"
"2","2","retrieval","old_objects","77","VacuumHandheld.jpg","36","1","981"
"2","2","retrieval","new_objects","78","Spatula.jpg","36","0","983"
"2","2","retrieval","new_objects","79","BikiniTop.jpg","37","1","812"
"2","2","retrieval","old_objects","80","Bench_Black.jpg","36","1","1096"
"2","2","retrieval","new_objects","81","CraneMachine.jpg","37","1","1453"
"2","2","retrieval","old_objects","82","Fridge.jpg","36","1","1051"
"2","2","retrieval","old_objects","83","Cake_Wedding.jpg","36","1","1586"
"2","2","retrieval","new_objects","84","Pliers_SlipJoint.jpg","37","1","1504"
"2","2","retrieval","new_objects","85","DentistOverheadLight.jpg","37","1","1874"
"2","2","retrieval","old_objects","86","RibbonSpool.jpg","36","1","864"
"2","2","retrieval","old_objects","87","Stool_Metal.jpg","36","1","1237"
"2","2","retrieval","old_objects","88","Pouch_Red.jpg","36","1","1681"
"2","2","retrieval","old_objects","89","Hubcap.jpg","0","0","2000"
"2","2","retrieval","new_objects","90","Tree_Fir.jpg","0","0","2000"
"2","2","retrieval","new_objects","91","Toy_TableSet.jpg","36","0","1946"
"2","2","retrieval","old_objects","92","Puffin.jpg","36","1","758"
"2","2","retrieval","old_objects","93","WateringCan_PlasticDarkGreen.jpg","36","1","688"
"2","2","retrieval","new_objects","94","Birdhouse.jpg","37","1","1649"
"2","2","retrieval","old_objects","95","RugRoled.jpg","36","1","840"
"2","2","retrieval","old_objects","96","Toblerone.jpg","36","1","995"
"2","2","retrieval","new_objects","97","PortaPotty.jpg","37","1","1080"
"2","2","retrieval","old_objects","98","ShoeLace_Flat.jpg","36","1","870"
"2","2","retrieval","old_objects","99","Yarmulke.jpg","36","1","1104"
"2","2","retrieval","old_objects","100","Dragonfly.jpg","36","1","704"
"2","2","retrieval","new_objects","101","Cane_Wooden.jpg","37","1","953"
"2","2","retrieval","old_objects","102","Steeple.jpg","36","1","779"
"2","2","retrieval","old_objects","103","ShinPads.jpg","36","1","1000"
"2","2","retrieval","new_objects","104","MoneyBill50.jpg","37","1","881"
"2","2","retrieval","new_objects","105","Sign_Airport.jpg","37","1","1094"
"2","2","retrieval","old_objects","106","Paddle_Ball.jpg","36","1","895"
"2","2","retrieval","old_objects","107","Toy_Chameleon.jpg","36","1","1327"
"2","2","retrieval","old_objects","108","Tray_Metal.jpg","36","1","871"
"2","2","retrieval","old_objects","109","Table_Poker.jpg","36","1","1017"
"2","2","retrieval","new_objects","110","Shoe_Pink.jpg","37","1","737"
"2","2","retrieval","new_objects","111","Stamper.jpg","37","1","980"
"2","2","retrieval","old_objects","112","CandyDispenser.jpg","36","1","965"
"2","2","retrieval","old_objects","113","Cane_Metal.jpg","36","1","1863"
"2","2","retrieval","new_objects","114","Briefcase_Silver.jpg","37","1","1294"
"2","2","retrieval","new_objects","115","WaterFountain.jpg","37","1","1215"
"2","2","retrieval","new_objects","116","PillBottle_Closed.jpg","37","1","1048"
"2","2","retrieval","old_objects","117","GPS.jpg","37","0","1014"
"2","2","retrieval","old_objects","118","Scroll.jpg","36","1","1218"
"2","2","retrieval","new_objects","119","Socks_Winter.jpg","37","1","990"
"2","2","retrieval","new_objects","120","Candle_ChristmasDecor.jpg","37","1","1859"
"2","2","retrieval","old_objects","121","Stick_Honey.jpg","36","1","718"
"2","2","retrieval","new_objects","123","Mask_Buddhist.jpg","37","1","1242"
"2","2","retrieval","old_objects","124","Bag_Toiletry.jpg","36","1","1173"
"2","2","retrieval","old_objects","125","PulleyWooden.jpg","36","1","1283"
"2","2","retrieval","new_objects","126","Bowl_Pasta.jpg","37","1","864"
"2","2","retrieval","old_objects","127","EyeChart.jpg","0","0","2000"
"2","2","retrieval","new_objects","128","Kiwi.jpg","0","0","2000"
"2","2","retrieval","old_objects","129","Box_Jewellery.jpg","36","1","1597"
"2","2","retrieval","new_objects","130","ShoeLace_Round.jpg","37","1","1190"
"2","2","retrieval","old_objects","131","Helmet_Football.jpg","36","1","1028"
"2","2","retrieval","new_objects","132","Paratrooper.jpg","37","1","1984"
"2","2","retrieval","new_objects","133","Boardgame_Chess.jpg","37","1","1506"
"2","2","retrieval","old_objects","134","Pliers_ViceGrip.jpg","36","1","1043"
"2","2","retrieval","old_objects","135","DrillBit.jpg","36","1","1014"
"2","2","retrieval","old_objects","136","Statue_Cat.jpg","36","1","766"
"2","2","retrieval","old_objects","137","Horn_French.jpg","36","1","647"
"2","2","retrieval","old_objects","138","Mitt_Oven.jpg","36","1","830"
"2","2","retrieval","old_objects","139","Bowl_Sugar.jpg","37","0","949"
"2","2","retrieval","new_objects","140","ScannerShoplifting.jpg","37","1","1023"
"2","2","retrieval","new_objects","141","GatedEntrance.jpg","37","1","611"
"2","2","retrieval","old_objects","142","ChocolateBar_HalfUnwrapped.jpg","36","1","990"
"2","2","retrieval","new_objects","143","Staples.jpg","37","1","1527"
"2","2","retrieval","new_objects","144","BicycleWheelRusty.jpg","0","0","2000"
"2","2","retrieval","new_objects","145","Backpack_Suitcase.jpg","37","1","1328"
"2","2","retrieval","new_objects","146","Cat.jpg","36","0","1144"
"2","2","retrieval","old_objects","147","Machine_Bread.jpg","36","1","1043"
"2","2","retrieval","new_objects","148","Clock_Interior.jpg","0","0","2000"
"2","2","retrieval","new_objects","149","Bib.jpg","37","1","1396"
"2","2","retrieval","new_objects","150","Colander.jpg","36","0","1196"
"2","2","retrieval","old_objects","151","PowderProtein.jpg","36","1","969"
"2","2","retrieval","old_objects","152","Toy_Lizard.jpg","36","1","1239"
"2","2","retrieval","new_objects","153","Cup_sippy.jpg","36","0","1042"
"2","2","retrieval","new_objects","154","Box_FirstAid.jpg","37","1","789"
"2","2","retrieval","new_objects","155","Toy_Tractor_1.jpg","36","0","934"
"2","2","retrieval","old_objects","156","Ladder.jpg","36","1","1101"
"2","2","retrieval","new_objects","157","Clothespin_Beige.jpg","36","0","781"
"2","2","retrieval","old_objects","158","Crutches.jpg","36","1","755"
"2","2","retrieval","old_objects","159","ManholeCover.jpg","36","1","677"
"2","2","retrieval","new_objects","160","TestTube_Single.jpg","37","1","926"
"2","2","retrieval","new_objects","161","Door_Blue.jpg","36","0","1249"
"2","2","retrieval","new_objects","162","Thermometer_Room.jpg","37","1","1220"
"2","2","retrieval","old_objects","163","Fortress.jpg","36","1","1016"
"2","2","retrieval","old_objects","164","StringBean.jpg","36","1","1056"
"2","2","retrieval","new_objects","165","ThreeHolePunch.jpg","36","0","1447"
"2","2","retrieval","old_objects","166","House_Rural.jpg","36","1","1393"
"2","2","retrieval","old_objects","167","CookieCutter_Bell.jpg","36","1","998"
"2","2","retrieval","old_objects","168","Ball_Tennis.jpg","36","1","1083"
"2","2","retrieval","old_objects","169","Jug_Wicker.jpg","36","1","1704"
"2","2","retrieval","new_objects","170","Lunchbox.jpg","37","1","985"
"2","2","retrieval","new_objects","171","WaterGun.jpg","37","1","750"
"2","2","retrieval","old_objects","172","NetButterfly.jpg","37","0","921"
"2","2","retrieval","new_objects","173","LicensePlate.jpg","37","1","768"
"2","2","retrieval","new_objects","174","Heater_Outdoor.jpg","37","1","1726"
"2","2","retrieval","new_objects","175","Airplane_Small.jpg","37","1","895"
"2","2","retrieval","old_objects","176","Tray_Muffin.jpg","36","1","751"
"2","2","retrieval","new_objects","177","Tape_Dispenser.jpg","37","1","1281"
"2","2","retrieval","old_objects","178","PlayerFootball.jpg","36","1","991"
"2","2","retrieval","old_objects","179","ButterDish.jpg","37","0","1733"
"2","2","retrieval","new_objects","180","Candy_GummyBear.jpg","37","1","1096"
"2","2","retrieval","old_objects","181","Drink_Cocktail.jpg","36","1","1381"
"2","2","retrieval","old_objects","182","VinylRecord.jpg","0","0","2000"
"2","2","retrieval","new_objects","184","LightHouse.jpg","37","1","1729"
"2","2","retrieval","old_objects","185","HerbsInBag.jpg","36","1","817"
"2","2","retrieval","new_objects","186","Case_WoodenOrnate.jpg","36","0","1237"
"2","2","retrieval","new_objects","187","Goose_Canadian.jpg","37","1","784"
"2","2","retrieval","new_objects","188","Wontons.jpg","37","1","1325"
"2","2","retrieval","new_objects","189","Stapler_Regular.jpg","36","0","869"
"2","2","retrieval","new_objects","190","Bench_Wooden.jpg","36","0","1276"
"2","2","retrieval","new_objects","191","Stick_Drum.jpg","37","1","1449"
"2","2","retrieval","new_objects","192","Guitar_Acoustic.jpg","37","1","1044"
"2","2","retrieval","new_objects","193","Puzzle_Piece.jpg","37","1","966"
"2","2","retrieval","old_objects","194","Stovetop.jpg","36","1","1209"
"2","2","retrieval","old_objects","195","Stick_IceHockey.jpg","36","1","1281"
"2","2","retrieval","new_objects","196","Bird_Eagle.jpg","36","0","778"
"2","2","retrieval","new_objects","197","Nuts_Peanuts.jpg","37","1","1135"
"2","2","retrieval","new_objects","198","InflatableSleepingBag.jpg","37","1","923"
"2","2","retrieval","new_objects","199","Oneholepunch.jpg","36","0","1766"
"2","2","retrieval","old_objects","200","CashRegister_Antique.jpg","36","1","993"
"2","2","retrieval","old_objects","201","Tractor_Yellow.jpg","36","1","906"
"2","2","retrieval","new_objects","202","Sign_OneWay.jpg","37","1","1425"
"2","2","retrieval","new_objects","203","TreeHouse.jpg","37","1","1165"
"2","2","retrieval","old_objects","204","Gum_Pack.jpg","36","1","1027"
"2","2","retrieval","new_objects","205","Statue_Horse.jpg","37","1","1694"
"2","2","retrieval","old_objects","206","Bowl_Chopsticks.jpg","36","1","1836"
"2","2","retrieval","new_objects","207","KeyHook_Empty.jpg","37","1","1052"
"2","2","retrieval","new_objects","208","Peach.jpg","37","1","1618"
"2","2","retrieval","new_objects","209","ChalkboardEraser.jpg","37","1","1335"
"2","2","retrieval","new_objects","210","Tag_Identifier.jpg","37","1","1002"
"2","2","retrieval","old_objects","211","Pacifier.jpg","36","1","979"
"2","2","retrieval","old_objects","212","LifeJacket_Orangejpg.jpg","36","1","1008"
"2","2","retrieval","old_objects","213","Hammer.jpg","36","1","968"
"2","2","retrieval","new_objects","214","Sashimi.jpg","37","1","1142"
"2","2","retrieval","new_objects","215","PostageStamps.jpg","37","1","1521"
"2","2","retrieval","old_objects","216","EspressoMachine.jpg","36","1","1137"
"2","2","retrieval","new_objects","217","FireHydrant.jpg","0","0","2000"
"2","2","retrieval","new_objects","218","Pear_Green.jpg","36","0","1674"
"2","2","retrieval","old_objects","219","TelephoneSwitchboard.jpg","36","1","1056"
"2","2","retrieval","new_objects","220","Waffle.jpg","37","1","1286"
"2","2","retrieval","new_objects","221","Clam.jpg","37","1","1556"
"2","2","retrieval","old_objects","222","Rope_Manila.jpg","36","1","1855"
"2","2","retrieval","old_objects","223","Cooler.jpg","36","1","766"
"2","2","retrieval","old_objects","224","Fencing_HelmetSwords.jpg","36","1","1560"
"2","2","retrieval","new_objects","225","Boot_Rain.jpg","37","1","1042"
"2","2","retrieval","old_objects","226","Nuts_Pecan.jpg","36","1","961"
"2","2","retrieval","old_objects","227","Mug_Travel.jpg","36","1","1107"
"2","2","retrieval","new_objects","228","Thermos_Decorated.jpg","36","0","1423"
"2","2","retrieval","new_objects","229","Pot_TurkishCoffee.jpg","37","1","1935"
"2","2","retrieval","new_objects","230","Hat_Baseball.jpg","36","0","1011"
"2","2","retrieval","old_objects","231","Toy_BlocksWoodenPlain.jpg","36","1","759"
"2","2","retrieval","old_objects","232","Clock_Grandfather.jpg","36","1","1557"
"2","2","retrieval","new_objects","233","Can_Gas.jpg","37","1","1267"
"2","2","retrieval","old_objects","234","Jacks.jpg","36","1","1142"
"2","2","retrieval","new_objects","235","KitchenCloth.jpg","37","1","1149"
"2","2","retrieval","new_objects","236","Clave.jpg","36","0","1108"
"2","2","retrieval","old_objects","237","Toy_Firetruck.jpg","36","1","775"
"2","2","retrieval","old_objects","238","Locomotive.jpg","36","1","1053"
"2","2","retrieval","old_objects","239","Caterpillar.jpg","36","1","867"
"2","2","retrieval","old_objects","240","Toy_TrailerAirport.jpg","36","1","1213"
"2","2","retrieval","new_objects","241","Hat_Feather.jpg","37","1","865"
"2","2","retrieval","old_objects","242","Pretzel_Knot.jpg","36","1","1187"
"2","2","retrieval","old_objects","243","Hat_Hard.jpg","36","1","941"
"2","2","retrieval","old_objects","245","Barbecue_Charcoal.jpg","36","1","1104"
"2","2","retrieval","old_objects","246","Egg_Chocolate.jpg","36","1","865"
"2","2","retrieval","new_objects","247","Jetski.jpg","36","0","1467"
"2","2","retrieval","old_objects","248","Olives.jpg","36","1","905"
"2","2","retrieval","old_objects","249","Stamp.jpg","36","1","881"
"2","2","retrieval","new_objects","250","Ship_Cruise.jpg","37","1","942"
"2","2","retrieval","new_objects","251","HardDrive.jpg","36","0","853"
"2","2","retrieval","new_objects","252","Clock_Radio.jpg","37","1","960"
"2","2","retrieval","new_objects","253","StickyTack.jpg","37","1","985"
"2","2","retrieval","new_objects","254","Basket_Firewood.jpg","37","1","1355"
"2","2","retrieval","new_objects","255","Qtip_Multiple.jpg","37","1","817"
"2","2","retrieval","new_objects","256","Fruit_Cactus.jpg","37","1","889"
"2","2","retrieval","new_objects","257","Drum_Tall.jpg","37","1","842"
"2","2","retrieval","old_objects","258","Suit_Women.jpg","36","1","1140"
"2","2","retrieval","new_objects","259","Camel_Bactrian.jpg","37","1","1683"
"2","2","retrieval","old_objects","260","Hotdog_Weiner.jpg","36","1","1485"
"2","2","retrieval","new_objects","261","Mirror_Dental.jpg","37","1","1215"
"2","2","retrieval","new_objects","262","Battery_Car.jpg","37","1","1291"
"2","2","retrieval","old_objects","263","BumperCar.jpg","36","1","1356"
"2","2","retrieval","old_objects","264","Pillow_Plaid.jpg","36","1","1307"
"2","2","retrieval","new_objects","265","Toy_MrPotatoHeadjpg.jpg","0","0","2000"
"2","2","retrieval","old_objects","266","Vase_Decorative.jpg","36","1","1945"
"2","2","retrieval","new_objects","267","Seal_Toy.jpg","37","1","1508"
"2","2","retrieval","new_objects","268","Garbage_Can.jpg","37","1","1021"
"2","2","retrieval","new_objects","269","Bell_Hand.jpg","37","1","801"
"2","2","retrieval","new_objects","270","Boombox.jpg","36","0","1924"
"2","2","retrieval","new_objects","271","Bench_Concrete.jpg","36","0","1813"
"2","2","retrieval","old_objects","272","Squash_Butternut.jpg","0","0","2000"
"2","2","retrieval","old_objects","273","Glass_Beer.jpg","37","0","1039"
"2","2","retrieval","new_objects","274","HumanSkeleton.jpg","37","1","750"
"2","2","retrieval","new_objects","275","Pepperoni.jpg","37","1","780"
"2","2","retrieval","old_objects","276","Dresser.jpg","36","1","1137"
"2","2","retrieval","new_objects","277","PencilCase.jpg","36","0","1053"
"2","2","retrieval","new_objects","278","OrigamiPaper.jpg","37","1","1015"
"2","2","retrieval","old_objects","279","PeriodicTable.jpg","36","1","1060"
"2","2","retrieval","old_objects","280","FloorTile.jpg","36","1","1073"
"2","2","retrieval","new_objects","281","Mask_VenetianCat.jpg","37","1","1003"
"2","2","retrieval","new_objects","282","Glove_Baseball.jpg","36","0","1063"
"2","2","retrieval","old_objects","283","Barometer_Wood.jpg","36","1","1321"
"2","2","retrieval","old_objects","284","Bag_PaperWithFlour.jpg","36","1","985"
"2","2","retrieval","new_objects","285","Turtle.jpg","36","0","1355"
"2","2","retrieval","new_objects","286","Knife_Hunting.jpg","37","1","865"
"2","2","retrieval","new_objects","287","Cup_Latte.jpg","37","1","1063"
"2","2","retrieval","new_objects","288","SandBagThrowGame.jpg","37","1","893"
"2","2","retrieval","old_objects","289","Cantaloupe.jpg","36","1","1097"
"2","2","retrieval","new_objects","290","Drill.jpg","36","0","1302"
"2","2","retrieval","new_objects","291","Torpedo.jpg","37","1","1151"
"2","2","retrieval","new_objects","292","GranolaBar.jpg","37","1","978"
"2","2","retrieval","new_objects","293","Bucket_Champagne.jpg","37","1","887"
"2","2","retrieval","new_objects","294","Toy_WinnieThePooh.jpg","37","1","1029"
"2","2","retrieval","old_objects","295","PylonTraffic.jpg","36","1","1396"
"2","2","retrieval","new_objects","296","FloppyDisk.jpg","37","1","1925"
"2","2","retrieval","new_objects","297","SpaceShuttle.jpg","0","0","2000"
"2","2","retrieval","old_objects","298","Comb.jpg","36","1","1263"
"2","2","retrieval","new_objects","299","Lighter_Yellow.jpg","37","1","1281"
"2","2","retrieval","old_objects","300","Sandcastle.jpg","36","1","1043"
"2","2","retrieval","old_objects","301","Can_Olives.jpg","36","1","941"
"2","2","retrieval","old_objects","302","Steamer.jpg","36","1","1740"
"2","2","retrieval","old_objects","303","Chair_Dining.jpg","36","1","808"
"2","2","retrieval","old_objects","304","Boat_Dinghy.jpg","0","0","2000"
"2","2","retrieval","old_objects","306","Strainer_Tea.jpg","36","1","1411"
"2","2","retrieval","old_objects","307","Booth_Carnival.jpg","36","1","1584"
"2","2","retrieval","old_objects","308","DoorBell.jpg","36","1","1322"
"2","2","retrieval","new_objects","309","PaintCan.jpg","0","0","2000"
"2","2","retrieval","new_objects","310","CanOpener.jpg","36","0","1587"
"2","2","retrieval","new_objects","311","Truck_Pickup.jpg","37","1","977"
"2","2","retrieval","old_objects","312","Tube_Paint.jpg","36","1","1318"
"2","2","retrieval","old_objects","313","Mat_Door.jpg","36","1","1422"
"2","2","retrieval","old_objects","314","Ferret.jpg","36","1","1631"
"2","2","retrieval","old_objects","315","PumpBreast.jpg","0","0","2000"
"2","2","retrieval","new_objects","316","Keychain_Leather.jpg","37","1","1640"
"2","2","retrieval","old_objects","317","Flower_Tulip.jpg","36","1","1136"
"2","2","retrieval","new_objects","318","Cologne.jpg","37","1","1040"
"2","2","retrieval","new_objects","319","CookieCutter_Tree.jpg","36","0","1542"
"2","2","retrieval","old_objects","320","Megaphone.jpg","36","1","1218"
"2","2","retrieval","old_objects","321","Clothespin_Red.jpg","36","1","1674"
"2","2","retrieval","new_objects","322","Wardrobe.jpg","37","1","836"
"2","2","retrieval","old_objects","323","Sandwich_Ham.jpg","36","1","1523"
"2","2","retrieval","new_objects","324","Chair_Car.jpg","37","1","1539"
"2","2","retrieval","new_objects","325","Wire_Soldering.jpg","36","0","942"
"2","2","retrieval","old_objects","326","Bag_Satchel.jpg","37","0","1813"
"2","2","retrieval","new_objects","327","Flower_Orchid.jpg","37","1","777"
"2","2","retrieval","new_objects","328","Table_Conference.jpg","37","1","1006"
"2","2","retrieval","old_objects","329","ComputerKeyboard.jpg","36","1","1695"
"2","2","retrieval","old_objects","330","Toy_RobotClassic.jpg","36","1","829"
"2","2","retrieval","old_objects","331","Lens_ColourFilter.jpg","36","1","1095"
"2","2","retrieval","old_objects","332","Candy_Toffee.jpg","36","1","1680"
"2","2","retrieval","old_objects","333","Candleholder_LampShaped.jpg","0","0","2000"
"2","2","retrieval","old_objects","334","Toy_DonkeyPlastic.jpg","36","1","1096"
"2","2","retrieval","old_objects","335","Ball_Baseball.jpg","36","1","1065"
"2","2","retrieval","old_objects","336","Generator.jpg","36","1","971"
"2","2","retrieval","old_objects","337","Pot_Cooking.jpg","36","1","949"
"2","2","retrieval","old_objects","338","Kangaroo_WithJoey.jpg","36","1","827"
"2","2","retrieval","old_objects","339","Quartz.jpg","36","1","890"
"2","2","retrieval","old_objects","340","Colosseum.jpg","36","1","859"
"2","2","retrieval","new_objects","341","Syrup_Maple.jpg","36","0","1081"
"2","2","retrieval","new_objects","342","Toy_DonkeyFur.jpg","36","0","1002"
"2","2","retrieval","old_objects","343","Boots_KneeHigh.jpg","36","1","831"
"2","2","retrieval","new_objects","344","Mailbox_Antique.jpg","37","1","1814"
"2","2","retrieval","new_objects","345","Notebook.jpg","37","1","759"
"2","2","retrieval","old_objects","346","Stool_Foot.jpg","36","1","1069"
"2","2","retrieval","new_objects","347","Stone_AncientWriting.jpg","37","1","1167"
"2","2","retrieval","old_objects","348","Camel_Dromedary.jpg","36","1","1257"
"2","2","retrieval","old_objects","349","ChiliFlakes.jpg","36","1","1944"
"2","2","retrieval","old_objects","350","Hippopotamus.jpg","36","1","1623"
"2","2","retrieval","new_objects","351","Jar_Money.jpg","37","1","1331"
"2","2","retrieval","new_objects","352","Chimpanzee.jpg","37","1","1279"
"2","2","retrieval","new_objects","353","Flask_Metal.jpg","0","0","2000"
"2","2","retrieval","old_objects","354","LintRemover.jpg","36","1","1238"
"2","2","retrieval","old_objects","355","Stove_Portable.jpg","36","1","1738"
"2","2","demographics_block","gender","1","Stove_Portable.jpg","Male","1","16545"
"2","2","demographics_block","age","1","Stove_Portable.jpg","37","1","16545"
"2","2","demographics_block","education","1","Stove_Portable.jpg","17","1","16545"
"2","2","demographics_block","left_right_handed","2","Stove_Portable.jpg","Right","1","7243"
"2","2","demographics_block","raceoption1","2","Stove_Portable.jpg","","1","7243"
"2","2","demographics_block","raceoption2","2","Stove_Portable.jpg","","1","7243"
"2","2","demographics_block","raceoption3","2","Stove_Portable.jpg","","1","7243"
"2","2","demographics_block","raceoption4","2","Stove_Portable.jpg","","1","7243"
"2","2","demographics_block","raceoption5","2","Stove_Portable.jpg","","1","7243"
"2","2","demographics_block","raceoption6","2","Stove_Portable.jpg","","1","7243"
"2","2","demographics_block","raceoption7","2","Stove_Portable.jpg","","1","7243"
"2","2","demographics_block","raceoption8","2","Stove_Portable.jpg","7","1","7243"
"2","2","demographics_block","raceoption9","2","Stove_Portable.jpg","","1","7243"
"2","2","demographics_block","raceother","2","Stove_Portable.jpg","","1","7243"
"2","2","demographics_block","raceother","2","Stove_Portable.jpg","","1","7243"
"2","2","demographics_block","english_language","2","Stove_Portable.jpg","Yes","1","7243"
"2","2","demographics_block","english_languageother","2","Stove_Portable.jpg","","1","7243"
"2","2","demographics_block","eyesight","3","Stove_Portable.jpg","Yes","1","4735"
"2","2","demographics_block","colorblind","3","Stove_Portable.jpg","No","1","4735"
"2","2","worker_id_block","worker_id_textbox","1","Stove_Portable.jpg","A1N7O7E8HC03D8","1","14970"
"4","4","encoding","encoding","1","WateringCan_PlasticDarkGreen.jpg","37","0","943"
"4","4","encoding","encoding","2","Domino.jpg","37","0","1118"
"4","4","encoding","encoding","3","Hammer.jpg","37","0","853"
"4","4","encoding","encoding","4","Caterpillar.jpg","37","0","843"
"4","4","encoding","encoding","5","Mug_Travel.jpg","37","0","1082"
"4","4","encoding","encoding","6","Suit_Women.jpg","37","0","1147"
"4","4","encoding","encoding","7","RugRoled.jpg","36","0","1121"
"4","4","encoding","encoding","8","Cake_Cheese.jpg","36","0","896"
"4","4","encoding","encoding","9","Table_Poker.jpg","36","0","1145"
"4","4","encoding","encoding","10","Tray_Metal.jpg","36","0","811"
"4","4","encoding","encoding","11","Stovetop.jpg","36","0","878"
"4","4","encoding","encoding","12","Toy_ElephantPlastic.jpg","36","0","817"
"4","4","encoding","encoding","13","Yarmulke.jpg","36","0","875"
"4","4","encoding","encoding","14","Comb.jpg","36","0","819"
"4","4","encoding","encoding","15","Cane_Metal.jpg","37","0","1243"
"4","4","encoding","encoding","16","Sandcastle.jpg","37","0","822"
"4","4","encoding","encoding","17","EspressoMachine.jpg","36","0","1135"
"4","4","encoding","encoding","18","Stool_Metal.jpg","36","0","944"
"4","4","encoding","encoding","19","Sink_Kitchen.jpg","36","0","783"
"4","4","encoding","encoding","20","Rake_Long.jpg","37","0","673"
"4","4","encoding","encoding","21","Jacks.jpg","36","0","826"
"4","4","encoding","encoding","22","TelephoneSwitchboard.jpg","37","0","970"
"4","4","encoding","encoding","23","Sandwich_Ham.jpg","36","0","683"
"4","4","encoding","encoding","24","Bowl_Chopsticks.jpg","36","0","722"
"4","4","encoding","encoding","25","Bucket_WoodenLight.jpg","37","0","840"
"4","4","encoding","encoding","26","Rope_Manila.jpg","37","0","803"
"4","4","encoding","encoding","27","Hat_Hard.jpg","37","0","722"
"4","4","encoding","encoding","28","GPS.jpg","36","0","689"
"4","4","encoding","encoding","29","Chipmunk.jpg","37","0","777"
"4","4","encoding","encoding","30","Bag_PaperWithFlour.jpg","36","0","896"
"4","4","encoding","encoding","31","Pot_Cooking.jpg","36","0","659"
"4","4","encoding","encoding","32","SledgeHammer.jpg","37","0","762"
"4","4","encoding","encoding","33","Bowl_Sugar.jpg","36","0","776"
"4","4","encoding","encoding","34","Guacamole.jpg","36","0","664"
"4","4","encoding","encoding","35","Nuts_Pecan.jpg","36","0","648"
"4","4","encoding","encoding","36","NetButterfly.jpg","37","0","746"
"4","4","encoding","encoding","37","Jacket_Suit.jpg","37","0","789"
"4","4","encoding","encoding","38","Tube_Paint.jpg","36","0","738"
"4","4","encoding","encoding","39","Locomotive.jpg","37","0","671"
"4","4","encoding","encoding","40","Instrument_African.jpg","36","0","1089"
"4","4","encoding","encoding","41","Pacifier.jpg","36","0","688"
"4","4","encoding","encoding","42","Tray_Medical.jpg","36","0","706"
"4","4","encoding","encoding","43","Helmet_Football.jpg","37","0","650"
"4","4","encoding","encoding","44","Barometer_Wood.jpg","37","0","828"
"4","4","encoding","encoding","45","Stationary.jpg","36","0","667"
"4","4","encoding","encoding","46","Ball_Tennis.jpg","37","0","900"
"4","4","encoding","encoding","47","CookieCutter_Bell.jpg","36","0","1053"
"4","4","encoding","encoding","48","Quartz.jpg","37","0","921"
"4","4","encoding","encoding","49","Artichoke.jpg","37","0","939"
"4","4","encoding","encoding","50","Clock_Grandfather.jpg","37","0","818"
"4","4","encoding","encoding","51","MetalDetector.jpg","37","0","826"
"4","4","encoding","encoding","52","House_Rural.jpg","37","0","689"
"4","4","encoding","encoding","53","Bottle_Oil.jpg","36","0","647"
"4","4","encoding","encoding","54","ChocolateBar_HalfUnwrapped.jpg","36","0","760"
"4","4","encoding","encoding","55","Cantaloupe.jpg","36","0","703"
"4","4","encoding","encoding","56","Steeple.jpg","37","0","661"
"4","4","encoding","encoding","57","HerbsInBag.jpg","37","0","764"
"4","4","encoding","encoding","58","ShinPads.jpg","37","0","837"
"4","4","encoding","encoding","59","PumpBreast.jpg","36","0","835"
"4","4","encoding","encoding","60","Drink_Cocktail.jpg","36","0","653"
"4","4","encoding","encoding","62","LintRemover.jpg","36","0","1140"
"4","4","encoding","encoding","63","CandyDispenser.jpg","36","0","1034"
"4","4","encoding","encoding","64","VacuumHandheld.jpg","36","0","1122"
"4","4","encoding","encoding","65","Pouch_Red.jpg","37","0","1259"
"4","4","encoding","encoding","66","Stool_Foot.jpg","36","0","1217"
"4","4","encoding","encoding","67","Barbecue_Charcoal.jpg","37","0","1078"
"4","4","encoding","encoding","68","Flower_Tulip.jpg","37","0","1072"
"4","4","encoding","encoding","69","Mitt_Oven.jpg","36","0","1081"
"4","4","encoding","encoding","70","Toy_RobotClassic.jpg","36","0","1010"
"4","4","encoding","encoding","71","Bag_Toiletry.jpg","36","0","1134"
"4","4","encoding","encoding","72","Ladder.jpg","37","0","948"
"4","4","encoding","encoding","73","CandleSnuffer.jpg","36","0","1212"
"4","4","encoding","encoding","74","Paddle_Ball.jpg","36","0","910"
"4","4","encoding","encoding","75","Boots_KneeHigh.jpg","37","0","649"
"4","4","encoding","encoding","76","Mat_Door.jpg","36","0","1014"
"4","4","encoding","encoding","77","Olives.jpg","37","0","1022"
"4","4","encoding","encoding","78","Megaphone.jpg","37","0","817"
"4","4","encoding","encoding","79","Chair_Dining.jpg","36","0","865"
"4","4","encoding","encoding","80","ComputerKeyboard.jpg","36","0","761"
"4","4","encoding","encoding","81","Stick_Honey.jpg","36","0","898"
"4","4","encoding","encoding","82","Can_Olives.jpg","36","0","877"
"4","4","encoding","encoding","83","Toy_TrailerAirport.jpg","36","0","749"
"4","4","encoding","encoding","84","Box_WoodenClosed.jpg","36","0","859"
"4","4","encoding","encoding","85","Candy_Lozenge.jpg","36","0","964"
"4","4","encoding","encoding","86","ShoeLace_Flat.jpg","36","0","762"
"4","4","encoding","encoding","87","StringBean.jpg","37","0","771"
"4","4","encoding","encoding","88","Clothespin_Red.jpg","37","0","845"
"4","4","encoding","encoding","89","Horn_French.jpg","37","0","825"
"4","4","encoding","encoding","90","Ball_Baseball.jpg","37","0","824"
"4","4","encoding","encoding","91","DrillBit.jpg","37","0","928"
"4","4","encoding","encoding","92","Glass_Beer.jpg","36","0","747"
"4","4","encoding","encoding","93","TissueBox.jpg","36","0","801"
"4","4","encoding","encoding","94","Steamer.jpg","36","0","1031"
"4","4","encoding","encoding","95","PulleyWooden.jpg","37","0","1170"
"4","4","encoding","encoding","96","Pillow_Plaid.jpg","36","0","939"
"4","4","encoding","encoding","97","Gum_Pack.jpg","36","0","869"
"4","4","encoding","encoding","98","ChiliFlakes.jpg","36","0","768"
"4","4","encoding","encoding","99","Kangaroo_WithJoey.jpg","37","0","687"
"4","4","encoding","encoding","100","Fencing_HelmetSwords.jpg","37","0","896"
"4","4","encoding","encoding","101","Colosseum.jpg","37","0","828"
"4","4","encoding","encoding","102","Booth_Carnival.jpg","36","0","911"
"4","4","encoding","encoding","103","EyeChart.jpg","36","0","965"
"4","4","encoding","encoding","104","BicycleHandleGrip.jpg","37","0","1210"
"4","4","encoding","encoding","105","Fridge.jpg","36","0","909"
"4","4","encoding","encoding","106","PowerDoorPushButton.jpg","36","0","1397"
"4","4","encoding","encoding","107","Hotdog_Weiner.jpg","36","0","768"
"4","4","encoding","encoding","108","Mirror_Handheld.jpg","36","0","737"
"4","4","encoding","encoding","109","Pretzel_Knot.jpg","36","0","941"
"4","4","encoding","encoding","110","CigarCase.jpg","36","0","906"
"4","4","encoding","encoding","111","LifeJacket_Orangejpg.jpg","37","0","1010"
"4","4","encoding","encoding","112","Scroll.jpg","36","0","919"
"4","4","encoding","encoding","113","Cooler.jpg","36","0","763"
"4","4","encoding","encoding","114","Pliers_ViceGrip.jpg","37","0","1178"
"4","4","encoding","encoding","115","RibbonSpool.jpg","36","0","947"
"4","4","encoding","encoding","116","BumperCar.jpg","37","0","912"
"4","4","encoding","encoding","117","Buffalo.jpg","37","0","721"
"4","4","encoding","encoding","118","Hippopotamus.jpg","37","0","900"
"4","4","encoding","encoding","119","Hourglass.jpg","36","0","884"
"4","4","encoding","encoding","120","PeriodicTable.jpg","36","0","1047"
"4","4","encoding","encoding","121","DoorBell.jpg","37","0","1115"
"4","4","encoding","encoding","123","Gloves_Bicycle.jpg","37","0","1184"
"4","4","encoding","encoding","124","Lens_ColourFilter.jpg","36","0","894"
"4","4","encoding","encoding","125","Candleholder_LampShaped.jpg","37","0","993"
"4","4","encoding","encoding","126","Toy_BlocksWoodenPlain.jpg","36","0","866"
"4","4","encoding","encoding","127","Toy_DonkeyPlastic.jpg","37","0","795"
"4","4","encoding","encoding","128","Bottle_Specimen.jpg","36","0","799"
"4","4","encoding","encoding","129","Candy_Toffee.jpg","36","0","1553"
"4","4","encoding","encoding","130","Stick_IceHockey.jpg","37","0","1093"
"4","4","encoding","encoding","131","Boat_Dinghy.jpg","37","0","786"
"4","4","encoding","encoding","132","Generator.jpg","37","0","760"
"4","4","encoding","encoding","133","Jug_Wicker.jpg","36","0","1880"
"4","4","encoding","encoding","134","Scooter.jpg","37","0","1698"
"4","4","encoding","encoding","135","Toy_Firetruck.jpg","36","0","1016"
"4","4","encoding","encoding","136","Puffin.jpg","37","0","741"
"4","4","encoding","encoding","137","Stove_Portable.jpg","37","0","1059"
"4","4","encoding","encoding","138","Tractor_Yellow.jpg","37","0","669"
"4","4","encoding","encoding","139","Toblerone.jpg","36","0","1023"
"4","4","encoding","encoding","140","Fortress.jpg","37","0","742"
"4","4","encoding","encoding","141","Toy_Lizard.jpg","37","0","866"
"4","4","encoding","encoding","142","Toy_Rooster.jpg","36","0","969"
"4","4","encoding","encoding","143","ManholeCover.jpg","37","0","704"
"4","4","encoding","encoding","144","Squash_Butternut.jpg","37","0","918"
"4","4","encoding","encoding","145","Tray_Muffin.jpg","36","0","862"
"4","4","encoding","encoding","146","Box_Jewellery.jpg","36","0","723"
"4","4","encoding","encoding","147","Machine_Bread.jpg","36","0","929"
"4","4","encoding","encoding","148","Camel_Dromedary.jpg","37","0","948"
"4","4","encoding","encoding","149","VinylRecord.jpg","36","0","1072"
"4","4","encoding","encoding","150","PowderProtein.jpg","36","0","801"
"4","4","encoding","encoding","151","ButterDish.jpg","36","0","720"
"4","4","encoding","encoding","152","Hubcap.jpg","37","0","679"
"4","4","encoding","encoding","153","Strainer_Tea.jpg","37","0","1483"
"4","4","encoding","encoding","154","Egg_Chocolate.jpg","36","0","832"
"4","4","encoding","encoding","155","Bag_Satchel.jpg","36","0","676"
"4","4","encoding","encoding","156","Blanket.jpg","36","0","697"
"4","4","encoding","encoding","157","Dragonfly.jpg","37","0","704"
"4","4","encoding","encoding","158","Foam_Accoustic.jpg","36","0","852"
"4","4","encoding","encoding","159","Leaf_Green.jpg","37","0","636"
"4","4","encoding","encoding","160","Toy_Chameleon.jpg","37","0","656"
"4","4","encoding","encoding","161","Cake_Wedding.jpg","36","0","1012"
"4","4","encoding","encoding","162","Statue_Cat.jpg","36","0","907"
"4","4","encoding","encoding","163","Bench_Black.jpg","37","0","685"
"4","4","encoding","encoding","164","FloorTile.jpg","36","0","915"
"4","4","encoding","encoding","165","Stamp.jpg","36","0","733"
"4","4","encoding","encoding","166","Dresser.jpg","36","0","671"
"4","4","encoding","encoding","167","Vase_Decorative.jpg","36","0","650"
"4","4","encoding","encoding","168","Ferret.jpg","37","0","564"
"4","4","encoding","encoding","169","PylonTraffic.jpg","37","0","712"
"4","4","encoding","encoding","170","Sign_TrafficArrow.jpg","37","0","641"
"4","4","encoding","encoding","171","NewspaperStack.jpg","37","0","810"
"4","4","encoding","encoding","172","PlayerFootball.jpg","37","0","703"
"4","4","encoding","encoding","173","Bag_String.jpg","36","0","781"
"4","4","encoding","encoding","174","CashRegister_Antique.jpg","36","0","790"
"4","4","encoding","encoding","175","Bottle_Blue.jpg","36","0","736"
"4","4","encoding","encoding","176","PickupTruck.jpg","37","0","573"
"4","4","encoding","encoding","177","Crutches.jpg","37","0","717"
"4","4","retrieval","old_objects","1","TissueBox.jpg","36","1","1203"
"4","4","retrieval","old_objects","2","Machine_Bread.jpg","36","1","1011"
"4","4","retrieval","old_objects","3","Bottle_Specimen.jpg","36","1","1264"
"4","4","retrieval","old_objects","4","Jacks.jpg","37","0","1017"
"4","4","retrieval","old_objects","5","Tray_Metal.jpg","36","1","1082"
"4","4","retrieval","old_objects","6","Steamer.jpg","36","1","1582"
"4","4","retrieval","new_objects","7","Tree_Fir.jpg","0","0","2000"
"4","4","retrieval","old_objects","8","Crutches.jpg","36","1","1984"
"4","4","retrieval","new_objects","9","Can_Gas.jpg","36","0","1803"
"4","4","retrieval","new_objects","10","Chair_Car.jpg","37","1","1931"
"4","4","retrieval","old_objects","11","Stove_Portable.jpg","37","0","1176"
"4","4","retrieval","new_objects","12","Heater_Outdoor.jpg","36","0","859"
"4","4","retrieval","old_objects","13","ShoeLace_Flat.jpg","37","0","727"
"4","4","retrieval","new_objects","14","Bucket_Champagne.jpg","36","0","1095"
"4","4","retrieval","old_objects","15","Sandwich_Ham.jpg","36","1","1482"
"4","4","retrieval","old_objects","16","Stool_Metal.jpg","37","0","1296"
"4","4","retrieval","old_objects","17","Hubcap.jpg","37","0","1404"
"4","4","retrieval","new_objects","18","OrigamiPaper.jpg","37","1","1237"
"4","4","retrieval","new_objects","19","Clothespin_Beige.jpg","36","0","1041"
"4","4","retrieval","old_objects","20","Toy_RobotClassic.jpg","37","0","959"
"4","4","retrieval","new_objects","21","Clock_Radio.jpg","37","1","1012"
"4","4","retrieval","new_objects","22","Colander.jpg","37","1","944"
"4","4","retrieval","new_objects","23","Thermos_Decorated.jpg","37","1","933"
"4","4","retrieval","old_objects","24","Ball_Baseball.jpg","37","0","920"
"4","4","retrieval","new_objects","25","Boot_Rain.jpg","37","1","1273"
"4","4","retrieval","old_objects","26","Mirror_Handheld.jpg","36","1","908"
"4","4","retrieval","old_objects","27","Tube_Paint.jpg","36","1","1084"
"4","4","retrieval","old_objects","28","Box_Jewellery.jpg","37","0","721"
"4","4","retrieval","old_objects","29","Mug_Travel.jpg","37","0","678"
"4","4","retrieval","old_objects","30","Caterpillar.jpg","37","0","603"
"4","4","retrieval","new_objects","31","Cat.jpg","36","0","640"
"4","4","retrieval","old_objects","32","Domino.jpg","36","1","767"
"4","4","retrieval","old_objects","33","Pouch_Red.jpg","37","0","1774"
"4","4","retrieval","old_objects","34","Rake_Long.jpg","37","0","1024"
"4","4","retrieval","old_objects","35","Cooler.jpg","36","1","977"
"4","4","retrieval","old_objects","36","Toblerone.jpg","37","0","895"
"4","4","retrieval","old_objects","37","Stool_Foot.jpg","37","0","891"
"4","4","retrieval","old_objects","38","CookieCutter_Bell.jpg","37","0","917"
"4","4","retrieval","new_objects","39","BicycleOdometer.jpg","36","0","645"
"4","4","retrieval","new_objects","40","Light_Traffic.jpg","37","1","958"
"4","4","retrieval","old_objects","41","PlayerFootball.jpg","37","0","555"
"4","4","retrieval","new_objects","42","Candle_ChristmasDecor.jpg","36","0","968"
"4","4","retrieval","new_objects","43","DentistOverheadLight.jpg","37","1","906"
"4","4","retrieval","old_objects","44","Toy_Rooster.jpg","37","0","735"
"4","4","retrieval","old_objects","45","TelephoneSwitchboard.jpg","37","0","1123"
"4","4","retrieval","old_objects","46","NetButterfly.jpg","36","1","730"
"4","4","retrieval","old_objects","47","Hammer.jpg","36","1","833"
"4","4","retrieval","old_objects","48","EspressoMachine.jpg","36","1","732"
"4","4","retrieval","new_objects","49","Backpack_Suitcase.jpg","37","1","714"
"4","4","retrieval","new_objects","50","Bowl_Pasta.jpg","37","1","936"
"4","4","retrieval","old_objects","51","Sandcastle.jpg","36","1","879"
"4","4","retrieval","new_objects","52","RamAnimal.jpg","37","1","1092"
"4","4","retrieval","old_objects","53","StringBean.jpg","36","1","986"
"4","4","retrieval","old_objects","54","Nuts_Pecan.jpg","37","0","1034"
"4","4","retrieval","old_objects","55","Boots_KneeHigh.jpg","36","1","832"
"4","4","retrieval","new_objects","56","Pillow_Heart.jpg","36","0","1050"
"4","4","retrieval","new_objects","57","Spatula_1.jpg","37","1","599"
"4","4","retrieval","new_objects","58","Mask_VenetianCat.jpg","37","1","1001"
"4","4","retrieval","old_objects","59","BumperCar.jpg","37","0","729"
"4","4","retrieval","old_objects","60","Scooter.jpg","37","0","1427"
"4","4","retrieval","old_objects","62","Suit_Women.jpg","37","0","218"
"4","4","retrieval","new_objects","63","Basket_Firewood.jpg","37","1","505"
"4","4","retrieval","new_objects","64","Qtip_Multiple.jpg","36","0","417"
"4","4","retrieval","old_objects","65","Tractor_Yellow.jpg","37","0","1534"
"4","4","retrieval","new_objects","66","NailFiles.jpg","37","1","1014"
"4","4","retrieval","new_objects","67","Airplane_Small.jpg","37","1","852"
"4","4","retrieval","new_objects","68","Lunchbox.jpg","36","0","381"
"4","4","retrieval","new_objects","69","DogHouse.jpg","37","1","574"
"4","4","retrieval","new_objects","70","Keychain_Leather.jpg","36","0","527"
"4","4","retrieval","new_objects","71","ShoeLace_Round.jpg","37","1","482"
"4","4","retrieval","new_objects","72","Statue_Horse.jpg","36","0","391"
"4","4","retrieval","old_objects","73","Mat_Door.jpg","37","0","613"
"4","4","retrieval","new_objects","74","AirCompressor.jpg","36","0","591"
"4","4","retrieval","old_objects","75","Candy_Toffee.jpg","37","0","484"
"4","4","retrieval","new_objects","76","Cane_Wooden.jpg","37","1","256"
"4","4","retrieval","new_objects","77","Briefcase_Silver.jpg","36","0","724"
"4","4","retrieval","new_objects","78","SpaceShuttle.jpg","37","1","532"
"4","4","retrieval","new_objects","79","Thermometer_Room.jpg","36","0","769"
"4","4","retrieval","new_objects","80","Jetski.jpg","36","0","1022"
"4","4","retrieval","new_objects","81","Paratrooper.jpg","37","1","861"
"4","4","retrieval","old_objects","82","CandyDispenser.jpg","37","0","544"
"4","4","retrieval","old_objects","83","WateringCan_PlasticDarkGreen.jpg","36","1","726"
"4","4","retrieval","old_objects","84","Yarmulke.jpg","37","0","680"
"4","4","retrieval","new_objects","85","Dynamite.jpg","36","0","812"
"4","4","retrieval","new_objects","86","Camel_Bactrian.jpg","37","1","570"
"4","4","retrieval","old_objects","87","Leaf_Green.jpg","37","0","548"
"4","4","retrieval","new_objects","88","Stapler_Regular.jpg","37","1","746"
"4","4","retrieval","new_objects","89","FloppyDisk.jpg","37","1","674"
"4","4","retrieval","old_objects","90","LintRemover.jpg","37","0","742"
"4","4","retrieval","new_objects","91","TowerEiffel.jpg","36","0","510"
"4","4","retrieval","old_objects","92","PowderProtein.jpg","37","0","652"
"4","4","retrieval","new_objects","93","Fork_Regular.jpg","36","0","511"
"4","4","retrieval","new_objects","94","GatedEntrance.jpg","36","0","543"
"4","4","retrieval","new_objects","95","TreeHouse.jpg","36","0","506"
"4","4","retrieval","old_objects","96","Barometer_Wood.jpg","36","1","563"
"4","4","retrieval","old_objects","97","Tray_Muffin.jpg","37","0","576"
"4","4","retrieval","new_objects","98","Socks_Winter.jpg","37","1","556"
"4","4","retrieval","new_objects","99","CanOpener.jpg","37","1","696"
"4","4","retrieval","new_objects","100","OnionRed.jpg","36","0","569"
"4","4","retrieval","old_objects","101","Cake_Wedding.jpg","37","0","621"
"4","4","retrieval","old_objects","102","Ferret.jpg","37","0","484"
"4","4","retrieval","old_objects","103","Dragonfly.jpg","37","0","542"
"4","4","retrieval","new_objects","104","Table_Conference.jpg","37","1","669"
"4","4","retrieval","old_objects","105","Ball_Tennis.jpg","37","0","638"
"4","4","retrieval","new_objects","106","Boardgame_Chess.jpg","36","0","460"
"4","4","retrieval","old_objects","107","Locomotive.jpg","37","0","553"
"4","4","retrieval","new_objects","108","PillBottle_Closed.jpg","36","0","566"
"4","4","retrieval","new_objects","109","Hook_Ceiling.jpg","36","0","493"
"4","4","retrieval","new_objects","110","Peach.jpg","37","1","586"
"4","4","retrieval","old_objects","111","Booth_Carnival.jpg","37","0","649"
"4","4","retrieval","new_objects","112","WaterFountain.jpg","36","0","462"
"4","4","retrieval","old_objects","113","Toy_ElephantPlastic.jpg","37","0","504"
"4","4","retrieval","new_objects","114","Flask_Metal.jpg","37","1","492"
"4","4","retrieval","old_objects","115","ManholeCover.jpg","36","1","446"
"4","4","retrieval","new_objects","116","Nuts_Peanuts.jpg","37","1","468"
"4","4","retrieval","old_objects","117","ButterDish.jpg","37","0","510"
"4","4","retrieval","new_objects","118","Ship_Model.jpg","36","0","638"
"4","4","retrieval","new_objects","119","Wontons.jpg","36","0","701"
"4","4","retrieval","new_objects","120","Garbage_Can.jpg","36","0","559"
"4","4","retrieval","old_objects","121","Comb.jpg","37","0","482"
"4","4","retrieval","new_objects","123","PortaPotty.jpg","36","0","444"
"4","4","retrieval","old_objects","124","CigarCase.jpg","37","0","547"
"4","4","retrieval","new_objects","125","AmberWithMosquito.jpg","37","1","571"
"4","4","retrieval","old_objects","126","LifeJacket_Orangejpg.jpg","36","1","344"
"4","4","retrieval","old_objects","127","Chipmunk.jpg","36","1","973"
"4","4","retrieval","old_objects","128","Olives.jpg","36","1","743"
"4","4","retrieval","old_objects","129","Gloves_Bicycle.jpg","36","1","496"
"4","4","retrieval","new_objects","130","Drum_Tall.jpg","37","1","504"
"4","4","retrieval","old_objects","131","Bench_Black.jpg","36","1","507"
"4","4","retrieval","new_objects","132","BikiniTop.jpg","37","1","731"
"4","4","retrieval","old_objects","133","Toy_BlocksWoodenPlain.jpg","37","0","712"
"4","4","retrieval","new_objects","134","Tag_Identifier.jpg","36","0","534"
"4","4","retrieval","new_objects","135","Jar_Money.jpg","36","0","782"
"4","4","retrieval","old_objects","136","Bowl_Sugar.jpg","36","1","742"
"4","4","retrieval","new_objects","137","Swing_Porch.jpg","37","1","671"
"4","4","retrieval","new_objects","138","Glove_Baseball.jpg","37","1","750"
"4","4","retrieval","old_objects","139","Boat_Dinghy.jpg","36","1","604"
"4","4","retrieval","old_objects","140","Toy_Firetruck.jpg","37","0","461"
"4","4","retrieval","new_objects","141","Altar.jpg","37","1","781"
"4","4","retrieval","new_objects","142","PanCooking.jpg","37","1","545"
"4","4","retrieval","old_objects","143","Cake_Cheese.jpg","37","0","1254"
"4","4","retrieval","old_objects","144","Statue_Cat.jpg","37","0","435"
"4","4","retrieval","old_objects","145","Fridge.jpg","36","1","1159"
"4","4","retrieval","new_objects","146","Boombox.jpg","36","0","668"
"4","4","retrieval","new_objects","147","Clock_Interior.jpg","36","0","657"
"4","4","retrieval","new_objects","148","CraneMachine.jpg","36","0","621"
"4","4","retrieval","old_objects","149","Bowl_Chopsticks.jpg","36","1","786"
"4","4","retrieval","old_objects","150","Hat_Hard.jpg","36","1","615"
"4","4","retrieval","new_objects","151","Torpedo.jpg","37","1","574"
"4","4","retrieval","new_objects","152","BicycleWheelRusty.jpg","36","0","610"
"4","4","retrieval","old_objects","153","Sink_Kitchen.jpg","36","1","596"
"4","4","retrieval","new_objects","154","Blueberry.jpg","36","0","660"
"4","4","retrieval","new_objects","155","Stone_AncientWriting.jpg","36","0","574"
"4","4","retrieval","new_objects","156","Guitar_Acoustic.jpg","37","1","653"
"4","4","retrieval","new_objects","157","Mirror_Dental.jpg","37","1","607"
"4","4","retrieval","new_objects","158","Chimpanzee.jpg","36","0","571"
"4","4","retrieval","old_objects","159","Clothespin_Red.jpg","36","1","690"
"4","4","retrieval","old_objects","160","Vase_Decorative.jpg","36","1","574"
"4","4","retrieval","old_objects","161","PowerDoorPushButton.jpg","36","1","629"
"4","4","retrieval","old_objects","162","VacuumHandheld.jpg","37","0","671"
"4","4","retrieval","old_objects","163","Horn_French.jpg","36","1","601"
"4","4","retrieval","new_objects","164","Wardrobe.jpg","36","0","544"
"4","4","retrieval","new_objects","165","Jar_Honey.jpg","36","0","508"
"4","4","retrieval","old_objects","166","ComputerKeyboard.jpg","36","1","682"
"4","4","retrieval","old_objects","167","Pot_Cooking.jpg","37","0","566"
"4","4","retrieval","new_objects","168","InflatableSleepingBag.jpg","37","1","635"
"4","4","retrieval","new_objects","169","Puzzle_Piece.jpg","36","0","589"
"4","4","retrieval","new_objects","170","Cup_Latte.jpg","36","0","464"
"4","4","retrieval","old_objects","171","PickupTruck.jpg","37","0","412"
"4","4","retrieval","new_objects","172","Spatula.jpg","36","0","511"
"4","4","retrieval","new_objects","173","HumanSkeleton.jpg","36","0","500"
"4","4","retrieval","new_objects","174","Goose_Canadian.jpg","37","1","518"
"4","4","retrieval","old_objects","175","Bottle_Blue.jpg","37","0","772"
"4","4","retrieval","new_objects","176","GranolaBar.jpg","36","0","402"
"4","4","retrieval","new_objects","177","Nightstand.jpg","37","1","542"
"4","4","retrieval","new_objects","178","Shoe_Pink.jpg","37","1","523"
"4","4","retrieval","old_objects","179","GPS.jpg","36","1","457"
"4","4","retrieval","old_objects","180","ChiliFlakes.jpg","37","0","521"
"4","4","retrieval","new_objects","181","Flower_Orchid.jpg","37","1","449"
"4","4","retrieval","old_objects","182","SledgeHammer.jpg","36","1","1085"
"4","4","retrieval","new_objects","184","Bird_Eagle.jpg","36","0","226"
"4","4","retrieval","old_objects","185","Box_WoodenClosed.jpg","37","0","306"
"4","4","retrieval","new_objects","186","Phone_Flip.jpg","37","1","770"
"4","4","retrieval","old_objects","187","Jug_Wicker.jpg","36","1","825"
"4","4","retrieval","new_objects","188","Lighter_Yellow.jpg","37","1","635"
"4","4","retrieval","new_objects","189","Cologne.jpg","37","1","509"
"4","4","retrieval","new_objects","190","Case_WoodenOrnate.jpg","37","1","798"
"4","4","retrieval","old_objects","191","Chair_Dining.jpg","37","0","539"
"4","4","retrieval","old_objects","192","PumpBreast.jpg","37","0","788"
"4","4","retrieval","old_objects","193","Pacifier.jpg","37","0","1032"
"4","4","retrieval","new_objects","194","LightHouse.jpg","36","0","622"
"4","4","retrieval","old_objects","195","Jacket_Suit.jpg","36","1","763"
"4","4","retrieval","old_objects","196","BicycleHandleGrip.jpg","37","0","692"
"4","4","retrieval","old_objects","197","Mitt_Oven.jpg","36","1","917"
"4","4","retrieval","old_objects","198","Clock_Grandfather.jpg","36","1","667"
"4","4","retrieval","old_objects","199","Pliers_ViceGrip.jpg","37","0","787"
"4","4","retrieval","old_objects","200","ShinPads.jpg","37","0","587"
"4","4","retrieval","old_objects","201","Lens_ColourFilter.jpg","36","1","756"
"4","4","retrieval","new_objects","202","Tape_Dispenser.jpg","37","1","661"
"4","4","retrieval","new_objects","203","Hookah.jpg","37","1","806"
"4","4","retrieval","old_objects","204","Pretzel_Knot.jpg","37","0","580"
"4","4","retrieval","old_objects","205","Stationary.jpg","37","0","1060"
"4","4","retrieval","new_objects","206","Pot_TurkishCoffee.jpg","36","0","671"
"4","4","retrieval","new_objects","207","Mailbox_Antique.jpg","36","0","565"
"4","4","retrieval","old_objects","208","ChocolateBar_HalfUnwrapped.jpg","37","0","584"
"4","4","retrieval","new_objects","209","Seal_Toy.jpg","36","0","588"
"4","4","retrieval","old_objects","210","Kangaroo_WithJoey.jpg","36","1","542"
"4","4","retrieval","new_objects","211","Cup_sippy.jpg","37","1","722"
"4","4","retrieval","new_objects","212","Sign_OneWay.jpg","37","1","556"
"4","4","retrieval","old_objects","213","Toy_Lizard.jpg","36","1","556"
"4","4","retrieval","new_objects","214","Bench_Concrete.jpg","36","0","545"
"4","4","retrieval","new_objects","215","Pliers_SlipJoint.jpg","37","1","590"
"4","4","retrieval","new_objects","216","Drill.jpg","37","1","624"
"4","4","retrieval","old_objects","217","Stick_IceHockey.jpg","36","1","593"
"4","4","retrieval","old_objects","218","VinylRecord.jpg","36","1","757"
"4","4","retrieval","new_objects","219","House_Wooden.jpg","36","0","682"
"4","4","retrieval","old_objects","220","Bucket_WoodenLight.jpg","37","0","552"
"4","4","retrieval","old_objects","221","Colosseum.jpg","36","1","496"
"4","4","retrieval","old_objects","222","Tray_Medical.jpg","37","0","575"
"4","4","retrieval","new_objects","223","Toy_WinnieThePooh.jpg","36","0","470"
"4","4","retrieval","old_objects","224","Bag_Satchel.jpg","37","0","614"
"4","4","retrieval","old_objects","225","DoorBell.jpg","37","0","528"
"4","4","retrieval","new_objects","226","ScannerShoplifting.jpg","36","0","533"
"4","4","retrieval","new_objects","227","Toy_MrPotatoHeadjpg.jpg","36","0","487"
"4","4","retrieval","old_objects","228","Bag_String.jpg","36","1","621"
"4","4","retrieval","old_objects","229","Stamp.jpg","36","1","562"
"4","4","retrieval","new_objects","230","Notebook.jpg","36","0","545"
"4","4","retrieval","old_objects","231","Hourglass.jpg","36","1","644"
"4","4","retrieval","old_objects","232","Hotdog_Weiner.jpg","36","1","660"
"4","4","retrieval","old_objects","233","Bag_PaperWithFlour.jpg","37","0","568"
"4","4","retrieval","new_objects","234","Fruit_Cactus.jpg","36","0","598"
"4","4","retrieval","new_objects","235","Hat_Baseball.jpg","37","1","527"
"4","4","retrieval","new_objects","236","Switch_LightBlack.jpg","37","1","551"
"4","4","retrieval","old_objects","237","EyeChart.jpg","36","1","641"
"4","4","retrieval","old_objects","238","Egg_Chocolate.jpg","37","0","831"
"4","4","retrieval","new_objects","239","Turtle.jpg","36","0","590"
"4","4","retrieval","new_objects","240","PencilCase.jpg","37","1","515"
"4","4","retrieval","new_objects","241","ChalkboardEraser.jpg","37","1","734"
"4","4","retrieval","old_objects","242","Generator.jpg","37","0","509"
"4","4","retrieval","old_objects","243","Toy_Chameleon.jpg","37","0","539"
"4","4","retrieval","old_objects","245","Scroll.jpg","37","0","677"
"4","4","retrieval","new_objects","246","LeatherPuncherTool.jpg","37","1","787"
"4","4","retrieval","new_objects","247","Hat_Beret.jpg","36","0","802"
"4","4","retrieval","new_objects","248","SandBagThrowGame.jpg","36","0","637"
"4","4","retrieval","old_objects","249","Cantaloupe.jpg","37","0","778"
"4","4","retrieval","old_objects","250","Fortress.jpg","36","1","828"
"4","4","retrieval","old_objects","251","Quartz.jpg","36","1","1032"
"4","4","retrieval","new_objects","252","Knife_Hunting.jpg","37","1","739"
"4","4","retrieval","new_objects","253","Door_Blue.jpg","36","0","710"
"4","4","retrieval","old_objects","254","FloorTile.jpg","36","1","709"
"4","4","retrieval","new_objects","255","Box_FirstAid.jpg","36","0","730"
"4","4","retrieval","new_objects","256","PostageStamps.jpg","36","0","740"
"4","4","retrieval","old_objects","257","Flower_Tulip.jpg","36","1","638"
"4","4","retrieval","new_objects","258","Pear_Green.jpg","37","1","776"
"4","4","retrieval","new_objects","259","Truck_Pickup.jpg","37","1","781"
"4","4","retrieval","old_objects","260","Drink_Cocktail.jpg","37","0","920"
"4","4","retrieval","new_objects","261","Candy_GummyBear.jpg","36","0","722"
"4","4","retrieval","old_objects","262","RugRoled.jpg","36","1","662"
"4","4","retrieval","old_objects","263","Guacamole.jpg","37","0","707"
"4","4","retrieval","new_objects","264","MoneyBill50.jpg","36","0","682"
"4","4","retrieval","new_objects","265","WaterGun.jpg","37","1","497"
"4","4","retrieval","new_objects","266","Bench_Wooden.jpg","36","0","617"
"4","4","retrieval","old_objects","267","CashRegister_Antique.jpg","36","1","696"
"4","4","retrieval","old_objects","268","Sign_TrafficArrow.jpg","37","0","561"
"4","4","retrieval","new_objects","269","Hat_Feather.jpg","37","1","581"
"4","4","retrieval","old_objects","270","Candleholder_LampShaped.jpg","36","1","565"
"4","4","retrieval","old_objects","271","Hippopotamus.jpg","37","0","487"
"4","4","retrieval","new_objects","272","Clam.jpg","37","1","475"
"4","4","retrieval","new_objects","273","Sashimi.jpg","36","0","479"
"4","4","retrieval","new_objects","274","CookieCutter_Tree.jpg","36","0","489"
"4","4","retrieval","old_objects","275","HerbsInBag.jpg","36","1","604"
"4","4","retrieval","old_objects","276","Table_Poker.jpg","36","1","583"
"4","4","retrieval","old_objects","277","Stick_Honey.jpg","36","1","493"
"4","4","retrieval","new_objects","278","Toy_DonkeyFur.jpg","36","0","478"
"4","4","retrieval","new_objects","279","Mask_Buddhist.jpg","36","0","547"
"4","4","retrieval","old_objects","280","Rope_Manila.jpg","37","0","497"
"4","4","retrieval","new_objects","281","Windmill_Building.jpg","36","0","446"
"4","4","retrieval","new_objects","282","HardDrive.jpg","36","0","586"
"4","4","retrieval","old_objects","283","Gum_Pack.jpg","37","0","530"
"4","4","retrieval","new_objects","284","Syrup_Maple.jpg","37","1","530"
"4","4","retrieval","new_objects","285","StickyTack.jpg","37","1","595"
"4","4","retrieval","old_objects","286","Dresser.jpg","36","1","500"
"4","4","retrieval","new_objects","287","Makeup_Foundation.jpg","36","0","534"
"4","4","retrieval","old_objects","288","Toy_DonkeyPlastic.jpg","36","1","620"
"4","4","retrieval","new_objects","289","LicensePlate.jpg","36","0","509"
"4","4","retrieval","new_objects","290","Snorkle.jpg","37","1","599"
"4","4","retrieval","old_objects","291","DrillBit.jpg","36","1","484"
"4","4","retrieval","old_objects","292","Instrument_African.jpg","36","1","561"
"4","4","retrieval","new_objects","293","Fan_Blades.jpg","37","1","433"
"4","4","retrieval","old_objects","294","Cane_Metal.jpg","37","0","638"
"4","4","retrieval","old_objects","295","Helmet_Football.jpg","37","0","488"
"4","4","retrieval","new_objects","296","Clave.jpg","36","0","478"
"4","4","retrieval","old_objects","297","Glass_Beer.jpg","37","0","527"
"4","4","retrieval","new_objects","298","Pepperoni.jpg","36","0","522"
"4","4","retrieval","old_objects","299","Fencing_HelmetSwords.jpg","37","0","542"
"4","4","retrieval","new_objects","300","Birdhouse.jpg","36","0","533"
"4","4","retrieval","new_objects","301","Kiwi.jpg","36","0","1046"
"4","4","retrieval","old_objects","302","Buffalo.jpg","36","1","697"
"4","4","retrieval","new_objects","303","Toy_TableSet.jpg","36","0","768"
"4","4","retrieval","old_objects","304","Megaphone.jpg","37","0","669"
"4","4","retrieval","new_objects","306","Necklace_Pearl.jpg","36","0","897"
"4","4","retrieval","new_objects","307","Brush_Makeup.jpg","36","0","700"
"4","4","retrieval","new_objects","308","Waffle.jpg","37","1","1004"
"4","4","retrieval","old_objects","309","House_Rural.jpg","36","1","595"
"4","4","retrieval","old_objects","310","Camel_Dromedary.jpg","36","1","695"
"4","4","retrieval","old_objects","311","RibbonSpool.jpg","37","0","720"
"4","4","retrieval","new_objects","312","Ship_Cruise.jpg","36","0","716"
"4","4","retrieval","old_objects","313","CandleSnuffer.jpg","37","0","786"
"4","4","retrieval","new_objects","314","Stick_Drum.jpg","36","0","1367"
"4","4","retrieval","old_objects","315","PylonTraffic.jpg","37","0","689"
"4","4","retrieval","new_objects","316","Bib.jpg","37","1","725"
"4","4","retrieval","old_objects","317","Blanket.jpg","37","0","569"
"4","4","retrieval","new_objects","318","CertificateFramed.jpg","36","0","744"
"4","4","retrieval","new_objects","319","PhoneJack.jpg","37","1","620"
"4","4","retrieval","old_objects","320","Bag_Toiletry.jpg","37","0","615"
"4","4","retrieval","new_objects","321","Bell_Hand.jpg","37","1","903"
"4","4","retrieval","old_objects","322","Ladder.jpg","36","1","762"
"4","4","retrieval","new_objects","323","FireAlarm.jpg","36","0","707"
"4","4","retrieval","old_objects","324","Puffin.jpg","36","1","624"
"4","4","retrieval","new_objects","325","Staples.jpg","37","1","908"
"4","4","retrieval","new_objects","326","PaintCan.jpg","37","1","699"
"4","4","retrieval","new_objects","327","TestTube_Single.jpg","37","1","690"
"4","4","retrieval","old_objects","328","Toy_TrailerAirport.jpg","37","0","625"
"4","4","retrieval","old_objects","329","Steeple.jpg","36","1","616"
"4","4","retrieval","new_objects","330","Wire_Soldering.jpg","36","0","735"
"4","4","retrieval","old_objects","331","Barbecue_Charcoal.jpg","36","1","736"
"4","4","retrieval","old_objects","332","Paddle_Ball.jpg","36","1","752"
"4","4","retrieval","old_objects","333","Bottle_Oil.jpg","37","0","707"
"4","4","retrieval","old_objects","334","Artichoke.jpg","36","1","618"
"4","4","retrieval","old_objects","335","Stovetop.jpg","36","1","693"
"4","4","retrieval","old_objects","336","NewspaperStack.jpg","36","1","729"
"4","4","retrieval","new_objects","337","Toy_Tractor_1.jpg","37","1","569"
"4","4","retrieval","new_objects","338","Stamper.jpg","37","1","640"
"4","4","retrieval","old_objects","339","Pillow_Plaid.jpg","37","0","615"
"4","4","retrieval","new_objects","340","FireHydrant.jpg","36","0","630"
"4","4","retrieval","new_objects","341","Oneholepunch.jpg","37","1","570"
"4","4","retrieval","old_objects","342","Squash_Butternut.jpg","36","1","546"
"4","4","retrieval","old_objects","343","PulleyWooden.jpg","36","1","701"
"4","4","retrieval","old_objects","344","Candy_Lozenge.jpg","37","0","677"
"4","4","retrieval","new_objects","345","ThreeHolePunch.jpg","37","1","642"
"4","4","retrieval","new_objects","346","KitchenCloth.jpg","37","1","692"
"4","4","retrieval","new_objects","347","Toy_DollOffice.jpg","37","1","608"
"4","4","retrieval","new_objects","348","KeyHook_Empty.jpg","36","0","739"
"4","4","retrieval","old_objects","349","PeriodicTable.jpg","36","1","814"
"4","4","retrieval","old_objects","350","Foam_Accoustic.jpg","36","1","674"
"4","4","retrieval","old_objects","351","Can_Olives.jpg","36","1","650"
"4","4","retrieval","old_objects","352","MetalDetector.jpg","37","0","551"
"4","4","retrieval","old_objects","353","Strainer_Tea.jpg","37","0","495"
"4","4","retrieval","new_objects","354","Battery_Car.jpg","37","1","725"
"4","4","retrieval","new_objects","355","Sign_Airport.jpg","37","1","621"
"4","4","demographics_block","gender","1","Sign_Airport.jpg","Male","1","20605"
"4","4","demographics_block","age","1","Sign_Airport.jpg","42","1","20605"
"4","4","demographics_block","education","1","Sign_Airport.jpg","16","1","20605"
"4","4","demographics_block","left_right_handed","2","Sign_Airport.jpg","Right","1","13439"
"4","4","demographics_block","raceoption1","2","Sign_Airport.jpg","0","1","13439"
"4","4","demographics_block","raceoption2","2","Sign_Airport.jpg","","1","13439"
"4","4","demographics_block","raceoption3","2","Sign_Airport.jpg","","1","13439"
"4","4","demographics_block","raceoption4","2","Sign_Airport.jpg","","1","13439"
"4","4","demographics_block","raceoption5","2","Sign_Airport.jpg","","1","13439"
"4","4","demographics_block","raceoption6","2","Sign_Airport.jpg","","1","13439"
"4","4","demographics_block","raceoption7","2","Sign_Airport.jpg","","1","13439"
"4","4","demographics_block","raceoption8","2","Sign_Airport.jpg","","1","13439"
"4","4","demographics_block","raceoption9","2","Sign_Airport.jpg","","1","13439"
"4","4","demographics_block","raceother","2","Sign_Airport.jpg","","1","13439"
"4","4","demographics_block","raceother","2","Sign_Airport.jpg","","1","13439"
"4","4","demographics_block","english_language","2","Sign_Airport.jpg","Yes","1","13439"
"4","4","demographics_block","english_languageother","2","Sign_Airport.jpg","","1","13439"
"4","4","demographics_block","eyesight","3","Sign_Airport.jpg","Yes","1","11498"
"4","4","demographics_block","colorblind","3","Sign_Airport.jpg","No","1","11498"
"4","4","worker_id_block","worker_id_textbox","1","Sign_Airport.jpg","A1ZRKPQ04HU08B","1","20220"
"6","6","encoding","encoding","1","Stovetop.jpg","36","0","84"
"6","6","encoding","encoding","2","ChocolateBar_HalfUnwrapped.jpg","36","0","14"
"6","6","encoding","encoding","3","Tray_Muffin.jpg","36","0","151"
"6","6","encoding","encoding","4","Toy_BlocksWoodenPlain.jpg","36","0","35"
"6","6","encoding","encoding","5","Candy_Lozenge.jpg","37","0","185"
"6","6","encoding","encoding","6","TelephoneSwitchboard.jpg","36","0","99"
"6","6","encoding","encoding","7","Yarmulke.jpg","36","0","125"
"6","6","encoding","encoding","8","CigarCase.jpg","36","0","105"
"6","6","encoding","encoding","9","ButterDish.jpg","0","0","2000"
"6","6","encoding","encoding","10","Puffin.jpg","0","0","2000"
"6","6","encoding","encoding","11","Hat_Hard.jpg","0","0","2000"
"6","6","encoding","encoding","12","Fencing_HelmetSwords.jpg","0","0","2000"
"6","6","encoding","encoding","13","Steamer.jpg","0","0","2000"
"6","6","encoding","encoding","14","Toy_Rooster.jpg","0","0","2000"
"6","6","encoding","encoding","15","Stamp.jpg","0","0","2000"
"6","6","encoding","encoding","16","Lens_ColourFilter.jpg","0","0","2000"
"6","6","encoding","encoding","17","Machine_Bread.jpg","0","0","2000"
"6","6","encoding","encoding","18","Locomotive.jpg","0","0","2000"
"6","6","encoding","encoding","19","Box_Jewellery.jpg","0","0","2000"
"6","6","encoding","encoding","20","Caterpillar.jpg","36","0","315"
"6","6","encoding","encoding","21","Scroll.jpg","36","0","1501"
"6","6","encoding","encoding","22","HerbsInBag.jpg","36","0","91"
"6","6","encoding","encoding","23","Guacamole.jpg","36","0","82"
"6","6","encoding","encoding","24","Blanket.jpg","36","0","102"
"6","6","encoding","encoding","25","Buffalo.jpg","36","0","53"
"6","6","encoding","encoding","26","Comb.jpg","36","0","51"
"6","6","encoding","encoding","27","SledgeHammer.jpg","36","0","25"
"6","6","encoding","encoding","28","Horn_French.jpg","37","0","122"
"6","6","encoding","encoding","29","Generator.jpg","37","0","2"
"6","6","encoding","encoding","30","Tray_Metal.jpg","36","0","130"
"6","6","encoding","encoding","31","Stove_Portable.jpg","36","0","81"
"6","6","encoding","encoding","32","Mitt_Oven.jpg","0","0","2000"
"6","6","encoding","encoding","33","Bag_PaperWithFlour.jpg","0","0","2000"
"6","6","encoding","encoding","34","MetalDetector.jpg","0","0","2000"
"6","6","encoding","encoding","35","Barometer_Wood.jpg","0","0","2000"
"6","6","encoding","encoding","36","Booth_Carnival.jpg","0","0","2000"
"6","6","encoding","encoding","37","PlayerFootball.jpg","0","0","2000"
"6","6","encoding","encoding","38","Cake_Wedding.jpg","37","0","208"
"6","6","encoding","encoding","39","Paddle_Ball.jpg","36","0","94"
"6","6","encoding","encoding","40","Clock_Grandfather.jpg","36","0","123"
"6","6","encoding","encoding","41","PeriodicTable.jpg","37","0","297"
"6","6","encoding","encoding","42","CandyDispenser.jpg","37","0","86"
"6","6","encoding","encoding","43","Toy_Chameleon.jpg","37","0","15"
"6","6","encoding","encoding","44","Megaphone.jpg","37","0","12"
"6","6","encoding","encoding","45","Hammer.jpg","36","0","87"
"6","6","encoding","encoding","46","LifeJacket_Orangejpg.jpg","37","0","118"
"6","6","encoding","encoding","47","Vase_Decorative.jpg","37","0","77"
"6","6","encoding","encoding","48","Sink_Kitchen.jpg","37","0","93"
"6","6","encoding","encoding","49","Mirror_Handheld.jpg","36","0","10"
"6","6","encoding","encoding","50","PumpBreast.jpg","36","0","53"
"6","6","encoding","encoding","51","Quartz.jpg","36","0","99"
"6","6","encoding","encoding","52","BicycleHandleGrip.jpg","37","0","1"
"6","6","encoding","encoding","53","Bucket_WoodenLight.jpg","37","0","178"
"6","6","encoding","encoding","54","WateringCan_PlasticDarkGreen.jpg","36","0","149"
"6","6","encoding","encoding","55","Gum_Pack.jpg","36","0","68"
"6","6","encoding","encoding","56","Candleholder_LampShaped.jpg","36","0","93"
"6","6","encoding","encoding","57","NewspaperStack.jpg","37","0","100"
"6","6","encoding","encoding","58","PylonTraffic.jpg","36","0","107"
"6","6","encoding","encoding","59","Stool_Metal.jpg","36","0","110"
"6","6","encoding","encoding","60","BumperCar.jpg","37","0","74"
"6","6","encoding","encoding","62","Clothespin_Red.jpg","37","0","1810"
"6","6","encoding","encoding","63","Boat_Dinghy.jpg","37","0","63"
"6","6","encoding","encoding","64","Pouch_Red.jpg","37","0","71"
"6","6","encoding","encoding","65","Sandwich_Ham.jpg","36","0","18"
"6","6","encoding","encoding","66","Camel_Dromedary.jpg","37","0","8"
"6","6","encoding","encoding","67","Sandcastle.jpg","36","0","7"
"6","6","encoding","encoding","68","Jacket_Suit.jpg","36","0","160"
"6","6","encoding","encoding","69","Crutches.jpg","36","0","154"
"6","6","encoding","encoding","70","Cane_Metal.jpg","36","0","108"
"6","6","encoding","encoding","71","Cake_Cheese.jpg","37","0","156"
"6","6","encoding","encoding","72","Foam_Accoustic.jpg","37","0","93"
"6","6","encoding","encoding","73","Toy_DonkeyPlastic.jpg","36","0","30"
"6","6","encoding","encoding","74","Ball_Tennis.jpg","36","0","168"
"6","6","encoding","encoding","75","Chipmunk.jpg","36","0","80"
"6","6","encoding","encoding","76","Pot_Cooking.jpg","36","0","106"
"6","6","encoding","encoding","77","Bag_Satchel.jpg","36","0","51"
"6","6","encoding","encoding","78","Hubcap.jpg","37","0","63"
"6","6","encoding","encoding","79","Flower_Tulip.jpg","36","0","109"
"6","6","encoding","encoding","80","EyeChart.jpg","36","0","111"
"6","6","encoding","encoding","81","Mat_Door.jpg","37","0","55"
"6","6","encoding","encoding","82","Mug_Travel.jpg","36","0","475"
"6","6","encoding","encoding","83","PowerDoorPushButton.jpg","36","0","103"
"6","6","encoding","encoding","84","Candy_Toffee.jpg","36","0","74"
"6","6","encoding","encoding","85","GPS.jpg","37","0","105"
"6","6","encoding","encoding","86","Bottle_Specimen.jpg","36","0","68"
"6","6","encoding","encoding","87","Jacks.jpg","37","0","6"
"6","6","encoding","encoding","88","ManholeCover.jpg","37","0","32"
"6","6","encoding","encoding","89","Dragonfly.jpg","36","0","111"
"6","6","encoding","encoding","90","Toy_TrailerAirport.jpg","36","0","160"
"6","6","encoding","encoding","91","Toy_RobotClassic.jpg","37","0","90"
"6","6","encoding","encoding","92","CandleSnuffer.jpg","37","0","151"
"6","6","encoding","encoding","93","Hotdog_Weiner.jpg","37","0","54"
"6","6","encoding","encoding","94","Suit_Women.jpg","37","0","38"
"6","6","encoding","encoding","95","NetButterfly.jpg","36","0","45"
"6","6","encoding","encoding","96","Gloves_Bicycle.jpg","36","0","69"
"6","6","encoding","encoding","97","Tractor_Yellow.jpg","36","0","117"
"6","6","encoding","encoding","98","Artichoke.jpg","36","0","780"
"6","6","encoding","encoding","99","Nuts_Pecan.jpg","36","0","63"
"6","6","encoding","encoding","100","Ferret.jpg","37","0","19"
"6","6","encoding","encoding","101","StringBean.jpg","37","0","77"
"6","6","encoding","encoding","102","Tray_Medical.jpg","0","0","2000"
"6","6","encoding","encoding","103","Jug_Wicker.jpg","36","0","10"
"6","6","encoding","encoding","104","Bottle_Oil.jpg","37","0","208"
"6","6","encoding","encoding","105","Scooter.jpg","37","0","10"
"6","6","encoding","encoding","106","Barbecue_Charcoal.jpg","37","0","5"
"6","6","encoding","encoding","107","Toblerone.jpg","36","0","140"
"6","6","encoding","encoding","108","CookieCutter_Bell.jpg","37","0","165"
"6","6","encoding","encoding","109","Domino.jpg","36","0","92"
"6","6","encoding","encoding","110","Pacifier.jpg","36","0","141"
"6","6","encoding","encoding","111","RibbonSpool.jpg","36","0","118"
"6","6","encoding","encoding","112","Bowl_Chopsticks.jpg","37","0","43"
"6","6","encoding","encoding","113","PickupTruck.jpg","37","0","58"
"6","6","encoding","encoding","114","Chair_Dining.jpg","37","0","150"
"6","6","encoding","encoding","115","Colosseum.jpg","36","0","45"
"6","6","encoding","encoding","116","VacuumHandheld.jpg","36","0","117"
"6","6","encoding","encoding","117","ChiliFlakes.jpg","36","0","163"
"6","6","encoding","encoding","118","RugRoled.jpg","37","0","69"
"6","6","encoding","encoding","119","Glass_Beer.jpg","0","0","2000"
"6","6","encoding","encoding","120","Olives.jpg","37","0","14"
"6","6","encoding","encoding","121","Steeple.jpg","37","0","228"
"6","6","encoding","encoding","123","PowderProtein.jpg","36","0","663"
"6","6","encoding","encoding","124","ShoeLace_Flat.jpg","36","0","87"
"6","6","encoding","encoding","125","Sign_TrafficArrow.jpg","37","0","312"
"6","6","encoding","encoding","126","Bench_Black.jpg","37","0","55"
"6","6","encoding","encoding","127","Instrument_African.jpg","37","0","93"
"6","6","encoding","encoding","128","Bottle_Blue.jpg","36","0","114"
"6","6","encoding","encoding","129","Bag_String.jpg","36","0","110"
"6","6","encoding","encoding","130","Fridge.jpg","37","0","103"
"6","6","encoding","encoding","131","Pretzel_Knot.jpg","37","0","45"
"6","6","encoding","encoding","132","Stationary.jpg","37","0","39"
"6","6","encoding","encoding","133","Rope_Manila.jpg","36","0","212"
"6","6","encoding","encoding","134","Toy_Lizard.jpg","36","0","189"
"6","6","encoding","encoding","135","Ball_Baseball.jpg","37","0","10"
"6","6","encoding","encoding","136","Bowl_Sugar.jpg","36","0","15"
"6","6","encoding","encoding","137","Ladder.jpg","37","0","143"
"6","6","encoding","encoding","138","FloorTile.jpg","36","0","141"
"6","6","encoding","encoding","139","Rake_Long.jpg","37","0","119"
"6","6","encoding","encoding","140","Stick_Honey.jpg","37","0","79"
"6","6","encoding","encoding","141","Dresser.jpg","37","0","43"
"6","6","encoding","encoding","142","CashRegister_Antique.jpg","37","0","28"
"6","6","encoding","encoding","143","EspressoMachine.jpg","36","0","104"
"6","6","encoding","encoding","144","LintRemover.jpg","37","0","93"
"6","6","encoding","encoding","145","Egg_Chocolate.jpg","37","0","35"
"6","6","encoding","encoding","146","Pillow_Plaid.jpg","37","0","203"
"6","6","encoding","encoding","147","Bag_Toiletry.jpg","37","0","131"
"6","6","encoding","encoding","148","Cantaloupe.jpg","36","0","178"
"6","6","encoding","encoding","149","Helmet_Football.jpg","37","0","16"
"6","6","encoding","encoding","150","Strainer_Tea.jpg","36","0","119"
"6","6","encoding","encoding","151","VinylRecord.jpg","37","0","111"
"6","6","encoding","encoding","152","Toy_ElephantPlastic.jpg","37","0","103"
"6","6","encoding","encoding","153","Can_Olives.jpg","37","0","67"
"6","6","encoding","encoding","154","Boots_KneeHigh.jpg","36","0","95"
"6","6","encoding","encoding","155","Stick_IceHockey.jpg","37","0","72"
"6","6","encoding","encoding","156","ShinPads.jpg","36","0","69"
"6","6","encoding","encoding","157","ComputerKeyboard.jpg","36","0","43"
"6","6","encoding","encoding","158","Box_WoodenClosed.jpg","36","0","306"
"6","6","encoding","encoding","159","Toy_Firetruck.jpg","36","0","94"
"6","6","encoding","encoding","160","Hippopotamus.jpg","36","0","78"
"6","6","encoding","encoding","161","Tube_Paint.jpg","36","0","9"
"6","6","encoding","encoding","162","Statue_Cat.jpg","36","0","115"
"6","6","encoding","encoding","163","Squash_Butternut.jpg","36","0","72"
"6","6","encoding","encoding","164","PulleyWooden.jpg","37","0","70"
"6","6","encoding","encoding","165","TissueBox.jpg","36","0","51"
"6","6","encoding","encoding","166","Stool_Foot.jpg","36","0","103"
"6","6","encoding","encoding","167","Pliers_ViceGrip.jpg","36","0","96"
"6","6","encoding","encoding","168","DrillBit.jpg","37","0","20"
"6","6","encoding","encoding","169","House_Rural.jpg","36","0","264"
"6","6","encoding","encoding","170","Kangaroo_WithJoey.jpg","37","0","93"
"6","6","encoding","encoding","171","Hourglass.jpg","36","0","107"
"6","6","encoding","encoding","172","Table_Poker.jpg","36","0","180"
"6","6","encoding","encoding","173","Cooler.jpg","37","0","40"
"6","6","encoding","encoding","174","DoorBell.jpg","36","0","127"
"6","6","encoding","encoding","175","Drink_Cocktail.jpg","37","0","29"
"6","6","encoding","encoding","176","Fortress.jpg","36","0","33"
"6","6","encoding","encoding","177","Leaf_Green.jpg","36","0","61"
"6","6","retrieval","new_objects","1","Sashimi.jpg","37","1","1084"
"6","6","retrieval","old_objects","2","Ball_Tennis.jpg","36","1","111"
"6","6","retrieval","new_objects","3","StickyTack.jpg","37","1","99"
"6","6","retrieval","old_objects","4","Horn_French.jpg","37","0","36"
"6","6","retrieval","old_objects","5","Hammer.jpg","36","1","92"
"6","6","retrieval","new_objects","6","Makeup_Foundation.jpg","36","0","40"
"6","6","retrieval","new_objects","7","Mirror_Dental.jpg","37","1","100"
"6","6","retrieval","old_objects","8","Ladder.jpg","37","0","28"
"6","6","retrieval","new_objects","9","TestTube_Single.jpg","36","0","17"
"6","6","retrieval","new_objects","10","AirCompressor.jpg","36","0","27"
"6","6","retrieval","new_objects","11","House_Wooden.jpg","36","0","178"
"6","6","retrieval","new_objects","12","Blueberry.jpg","37","1","91"
"6","6","retrieval","old_objects","13","Bottle_Oil.jpg","36","1","51"
"6","6","retrieval","new_objects","14","Stick_Drum.jpg","36","0","29"
"6","6","retrieval","old_objects","15","Steeple.jpg","36","1","109"
"6","6","retrieval","new_objects","16","Drill.jpg","36","0","184"
"6","6","retrieval","new_objects","17","Switch_LightBlack.jpg","36","0","108"
"6","6","retrieval","old_objects","18","Chipmunk.jpg","37","0","92"
"6","6","retrieval","new_objects","19","Nightstand.jpg","37","1","48"
"6","6","retrieval","new_objects","20","ThreeHolePunch.jpg","36","0","9"
"6","6","retrieval","new_objects","21","Kiwi.jpg","36","0","45"
"6","6","retrieval","new_objects","22","Clock_Interior.jpg","36","0","100"
"6","6","retrieval","new_objects","23","Candy_GummyBear.jpg","36","0","91"
"6","6","retrieval","old_objects","24","Stamp.jpg","36","1","169"
"6","6","retrieval","old_objects","25","Tube_Paint.jpg","37","0","17"
"6","6","retrieval","old_objects","26","Yarmulke.jpg","37","0","133"
"6","6","retrieval","old_objects","27","Sandcastle.jpg","36","1","88"
"6","6","retrieval","new_objects","28","Waffle.jpg","36","0","66"
"6","6","retrieval","old_objects","29","SledgeHammer.jpg","36","1","99"
"6","6","retrieval","new_objects","30","DentistOverheadLight.jpg","36","0","118"
"6","6","retrieval","old_objects","31","Jacks.jpg","36","1","85"
"6","6","retrieval","old_objects","32","CandyDispenser.jpg","36","1","174"
"6","6","retrieval","new_objects","33","Flask_Metal.jpg","36","0","261"
"6","6","retrieval","new_objects","34","AmberWithMosquito.jpg","36","0","88"
"6","6","retrieval","old_objects","35","Bench_Black.jpg","37","0","84"
"6","6","retrieval","old_objects","36","GPS.jpg","37","0","226"
"6","6","retrieval","old_objects","37","Puffin.jpg","36","1","109"
"6","6","retrieval","new_objects","38","Pillow_Heart.jpg","37","1","54"
"6","6","retrieval","old_objects","39","Tray_Muffin.jpg","36","1","130"
"6","6","retrieval","new_objects","40","Toy_WinnieThePooh.jpg","36","0","111"
"6","6","retrieval","new_objects","41","PaintCan.jpg","37","1","105"
"6","6","retrieval","old_objects","42","Guacamole.jpg","37","0","76"
"6","6","retrieval","new_objects","43","Spatula.jpg","37","1","90"
"6","6","retrieval","new_objects","44","Birdhouse.jpg","36","0","128"
"6","6","retrieval","old_objects","45","WateringCan_PlasticDarkGreen.jpg","37","0","69"
"6","6","retrieval","old_objects","46","Cooler.jpg","36","1","121"
"6","6","retrieval","new_objects","47","Torpedo.jpg","37","1","97"
"6","6","retrieval","old_objects","48","Fortress.jpg","36","1","57"
"6","6","retrieval","new_objects","49","Bird_Eagle.jpg","36","0","100"
"6","6","retrieval","new_objects","50","Toy_Tractor_1.jpg","37","1","111"
"6","6","retrieval","new_objects","51","Thermometer_Room.jpg","37","1","3"
"6","6","retrieval","new_objects","52","FireAlarm.jpg","36","0","175"
"6","6","retrieval","new_objects","53","Bell_Hand.jpg","36","0","93"
"6","6","retrieval","old_objects","54","ManholeCover.jpg","36","1","74"
"6","6","retrieval","old_objects","55","Megaphone.jpg","36","1","179"
"6","6","retrieval","new_objects","56","LeatherPuncherTool.jpg","37","1","155"
"6","6","retrieval","new_objects","57","Jar_Honey.jpg","37","1","16"
"6","6","retrieval","new_objects","58","Pepperoni.jpg","37","1","103"
"6","6","retrieval","old_objects","59","Toy_Chameleon.jpg","36","1","681"
"6","6","retrieval","old_objects","60","Pot_Cooking.jpg","36","1","44"
"6","6","retrieval","new_objects","62","Cologne.jpg","36","0","1348"
"6","6","retrieval","old_objects","63","RibbonSpool.jpg","37","0","80"
"6","6","retrieval","old_objects","64","Sandwich_Ham.jpg","37","0","165"
"6","6","retrieval","new_objects","65","TowerEiffel.jpg","36","0","17"
"6","6","retrieval","new_objects","66","WaterFountain.jpg","37","1","99"
"6","6","retrieval","new_objects","67","Pot_TurkishCoffee.jpg","36","0","71"
"6","6","retrieval","old_objects","68","DoorBell.jpg","37","0","61"
"6","6","retrieval","old_objects","69","PumpBreast.jpg","37","0","31"
"6","6","retrieval","old_objects","70","Toy_Lizard.jpg","36","1","144"
"6","6","retrieval","old_objects","71","Buffalo.jpg","37","0","162"
"6","6","retrieval","new_objects","72","CertificateFramed.jpg","37","1","36"
"6","6","retrieval","new_objects","73","Necklace_Pearl.jpg","36","0","18"
"6","6","retrieval","new_objects","74","Hook_Ceiling.jpg","36","0","131"
"6","6","retrieval","old_objects","75","Toblerone.jpg","36","1","86"
"6","6","retrieval","old_objects","76","Bowl_Sugar.jpg","36","1","4"
"6","6","retrieval","new_objects","77","SpaceShuttle.jpg","37","1","10"
"6","6","retrieval","new_objects","78","TreeHouse.jpg","36","0","104"
"6","6","retrieval","old_objects","79","Candleholder_LampShaped.jpg","36","1","24"
"6","6","retrieval","old_objects","80","Hippopotamus.jpg","36","1","19"
"6","6","retrieval","new_objects","81","Cup_sippy.jpg","36","0","0"
"6","6","retrieval","old_objects","82","Cantaloupe.jpg","36","1","21"
"6","6","retrieval","old_objects","83","Ball_Baseball.jpg","37","0","101"
"6","6","retrieval","new_objects","84","Puzzle_Piece.jpg","36","0","119"
"6","6","retrieval","new_objects","85","Phone_Flip.jpg","37","1","158"
"6","6","retrieval","new_objects","86","Peach.jpg","36","0","77"
"6","6","retrieval","new_objects","87","Clave.jpg","36","0","56"
"6","6","retrieval","old_objects","88","Stationary.jpg","36","1","9"
"6","6","retrieval","old_objects","89","VacuumHandheld.jpg","36","1","23"
"6","6","retrieval","old_objects","90","CookieCutter_Bell.jpg","36","1","72"
"6","6","retrieval","new_objects","91","Bench_Wooden.jpg","37","1","79"
"6","6","retrieval","old_objects","92","VinylRecord.jpg","36","1","42"
"6","6","retrieval","old_objects","93","Statue_Cat.jpg","36","1","43"
"6","6","retrieval","new_objects","94","GranolaBar.jpg","37","1","73"
"6","6","retrieval","new_objects","95","Lunchbox.jpg","0","0","2000"
"6","6","retrieval","new_objects","96","Drum_Tall.jpg","0","0","2000"
"6","6","retrieval","old_objects","97","ShinPads.jpg","0","0","2000"
"6","6","retrieval","old_objects","98","Pouch_Red.jpg","0","0","2000"
"6","6","retrieval","new_objects","99","Hat_Baseball.jpg","0","0","2000"
"6","6","retrieval","new_objects","100","Seal_Toy.jpg","0","0","2000"
"6","6","retrieval","old_objects","101","Artichoke.jpg","0","0","2000"
"6","6","retrieval","old_objects","102","Domino.jpg","0","0","2000"
"6","6","retrieval","new_objects","103","Sign_Airport.jpg","0","0","2000"
