"group","subject","blockcode","trialcode","trialnum","values.stimulus","response","correct","latency"
"3","3","encoding","encoding","1","NintendoWii.jpg","36","0","1797"
"3","3","encoding","encoding","2","Pickle.jpg","36","0","808"
"3","3","encoding","encoding","3","Card_QueenSpade.jpg","36","0","604"
"3","3","encoding","encoding","4","Hedgehog.jpg","37","0","983"
"3","3","encoding","encoding","5","VacuumHead.jpg","36","0","891"
"3","3","encoding","encoding","6","AnsweringMachine.jpg","36","0","901"
"3","3","encoding","encoding","7","Bird_Peacock.jpg","37","0","721"
"3","3","encoding","encoding","8","AllTerrain.jpg","37","0","971"
"3","3","encoding","encoding","9","Whip.jpg","36","0","1109"
"3","3","encoding","encoding","10","WashRack.jpg","36","0","1068"
"3","3","encoding","encoding","11","Case_DVD.jpg","36","0","916"
"3","3","encoding","encoding","12","Sign_Wetfloor.jpg","37","0","941"
"3","3","encoding","encoding","13","Skates.jpg","37","0","946"
"3","3","encoding","encoding","14","Brace_Leg.jpg","36","0","984"
"3","3","encoding","encoding","15","Case_Pencil.jpg","36","0","994"
"3","3","encoding","encoding","16","Bag_Diaper.jpg","36","0","681"
"3","3","encoding","encoding","17","Butterfly.jpg","37","0","1261"
"3","3","encoding","encoding","18","Truck_Box.jpg","37","0","967"
"3","3","encoding","encoding","19","DVDPlayer.jpg","36","0","985"
"3","3","encoding","encoding","20","Spoon_Baby.jpg","36","0","786"
"3","3","encoding","encoding","21","SoundMixer_White.jpg","36","0","714"
"3","3","encoding","encoding","22","Pot_CastIron.jpg","37","0","1411"
"3","3","encoding","encoding","23","RickShaw.jpg","37","0","927"
"3","3","encoding","encoding","24","PaintRoller.jpg","36","0","1387"
"3","3","encoding","encoding","25","Cauliflower.jpg","37","0","1115"
"3","3","encoding","encoding","26","BakingDish.jpg","36","0","669"
"3","3","encoding","encoding","27","Wreath.jpg","36","0","1044"
"3","3","encoding","encoding","28","Mirror_Carside.jpg","37","0","1045"
"3","3","encoding","encoding","29","ChewingGum.jpg","36","0","760"
"3","3","encoding","encoding","30","Arm.jpg","36","0","989"
"3","3","encoding","encoding","31","HairCurler.jpg","36","0","833"
"3","3","encoding","encoding","32","Glass_Ball.jpg","0","0","2000"
"3","3","encoding","encoding","33","TelephoneJack.jpg","36","0","1549"
"3","3","encoding","encoding","34","Toy_Wooden rings.jpg","36","0","759"
"3","3","encoding","encoding","35","Clock_Radioalarm.jpg","36","0","1302"
"3","3","encoding","encoding","36","BicycleWheel.jpg","37","0","1094"
"3","3","encoding","encoding","37","PoliceTape.jpg","37","0","942"
"3","3","encoding","encoding","38","Sheep.jpg","36","0","869"
"3","3","encoding","encoding","39","TotemPole.jpg","37","0","947"
"3","3","encoding","encoding","40","Inukshuk.jpg","37","0","701"
"3","3","encoding","encoding","41","Carrot.jpg","0","0","2000"
"3","3","encoding","encoding","42","Bicycle_Kids.jpg","37","0","1000"
"3","3","encoding","encoding","43","Bowl_Flour.jpg","36","0","932"
"3","3","encoding","encoding","44","Light_Fixtures.jpg","36","0","1029"
"3","3","encoding","encoding","45","LitterScoop.jpg","0","0","2000"
"3","3","encoding","encoding","46","Toy_Alien.jpg","36","0","775"
"3","3","encoding","encoding","47","IceCream_Chocolate.jpg","36","0","734"
"3","3","encoding","encoding","48","Origami_Ox.jpg","37","0","777"
"3","3","encoding","encoding","49","Bread_Melon.jpg","36","0","685"
"3","3","encoding","encoding","50","BusStop.jpg","36","0","857"
"3","3","encoding","encoding","51","Headset.jpg","36","0","697"
"3","3","encoding","encoding","52","BicyclePedal.jpg","36","0","662"
"3","3","encoding","encoding","53","Syringe_Blunt.jpg","36","0","898"
"3","3","encoding","encoding","54","Iron_Antique.jpg","36","0","754"
"3","3","encoding","encoding","55","Drum_Brazilan.jpg","36","0","562"
"3","3","encoding","encoding","56","Lobster.jpg","37","0","855"
"3","3","encoding","encoding","57","Chicken_Dinner.jpg","36","0","737"
"3","3","encoding","encoding","58","Neckrest.jpg","36","0","727"
"3","3","encoding","encoding","59","Mat_Bamboo.jpg","36","0","506"
"3","3","encoding","encoding","60","Heelpad.jpg","36","0","810"
"3","3","encoding","encoding","62","RiceCooker.jpg","36","0","801"
"3","3","encoding","encoding","63","Basket_Straw.jpg","36","0","926"
"3","3","encoding","encoding","64","Beater_Electric.jpg","36","0","701"
"3","3","encoding","encoding","65","Bowl_Cereal.jpg","36","0","779"
"3","3","encoding","encoding","66","Camera_Digital.jpg","36","0","758"
"3","3","encoding","encoding","67","Toy_FigurineEngineer.jpg","37","0","842"
"3","3","encoding","encoding","68","Bleachers.jpg","37","0","1110"
"3","3","encoding","encoding","69","Shoes_Snow.jpg","0","0","2000"
"3","3","encoding","encoding","70","Gun_Nerf.jpg","37","0","1186"
"3","3","encoding","encoding","71","Peeler.jpg","36","0","1196"
"3","3","encoding","encoding","72","Ring_Plain.jpg","36","0","861"
"3","3","encoding","encoding","73","BinRecycling.jpg","36","0","1246"
"3","3","encoding","encoding","74","ShearsGarden.jpg","37","0","844"
"3","3","encoding","encoding","75","ControlPanel.jpg","36","0","926"
"3","3","encoding","encoding","76","SafetyPin.jpg","36","0","877"
"3","3","encoding","encoding","77","PaintBrushAndPallette.jpg","36","0","822"
"3","3","encoding","encoding","78","Machine_EKG.jpg","36","0","967"
"3","3","encoding","encoding","79","MeasuringTape.jpg","37","0","1204"
"3","3","encoding","encoding","80","Bag_Hand.jpg","37","0","1649"
"3","3","encoding","encoding","81","ColumnMarble.jpg","37","0","825"
"3","3","encoding","encoding","82","BoxTrailer.jpg","37","0","891"
"3","3","encoding","encoding","83","Crate_Wine.jpg","36","0","707"
"3","3","encoding","encoding","84","ChocolateBar_Unwrapped.jpg","36","0","643"
"3","3","encoding","encoding","85","Thumbtack.jpg","36","0","1135"
"3","3","encoding","encoding","86","Bottle_Plastic.jpg","36","0","1358"
"3","3","encoding","encoding","87","ProcessorFood_Old.jpg","36","0","1276"
"3","3","encoding","encoding","88","BadgeSpecialAgent.jpg","0","0","2000"
"3","3","encoding","encoding","89","Missile.jpg","36","0","854"
"3","3","encoding","encoding","90","Handcuffs.jpg","36","0","739"
"3","3","encoding","encoding","91","Toy_DinosaurTRex.jpg","37","0","1208"
"3","3","encoding","encoding","92","Cord_usb.jpg","0","0","2000"
"3","3","encoding","encoding","93","PyramidWooden.jpg","37","0","744"
"3","3","encoding","encoding","94","SewingMachine.jpg","36","0","676"
"3","3","encoding","encoding","95","WatermelonSlice.jpg","37","0","1164"
"3","3","encoding","encoding","96","Harmonica.jpg","36","0","885"
"3","3","encoding","encoding","97","Car_Vintage.jpg","37","0","871"
"3","3","encoding","encoding","98","Compressor.jpg","0","0","2000"
"3","3","encoding","encoding","99","AlarmSystem.jpg","36","0","1064"
"3","3","encoding","encoding","100","Ladybug.jpg","37","0","1070"
"3","3","encoding","encoding","101","Dresser_1.jpg","36","0","913"
"3","3","encoding","encoding","102","Booties_Blue.jpg","36","0","645"
"3","3","encoding","encoding","103","Toy_Truck.jpg","37","0","1110"
"3","3","encoding","encoding","104","CigarCutter.jpg","36","0","739"
"3","3","encoding","encoding","105","Bird_Cardinal.jpg","37","0","943"
"3","3","encoding","encoding","106","Container_Tupperware.jpg","36","0","876"
"3","3","encoding","encoding","107","Television.jpg","37","0","833"
"3","3","encoding","encoding","108","Makeup_Eyeshadow.jpg","36","0","981"
"3","3","encoding","encoding","109","Celery.jpg","37","0","1332"
"3","3","encoding","encoding","110","Scoop_Flour.jpg","36","0","852"
"3","3","encoding","encoding","111","Bucket_Rusty.jpg","37","0","1187"
"3","3","encoding","encoding","112","Pasta_Spaghetti.jpg","36","0","869"
"3","3","encoding","encoding","113","Leg.jpg","36","0","867"
"3","3","encoding","encoding","114","Broom_Long.jpg","36","0","1426"
"3","3","encoding","encoding","115","SlideViewer.jpg","36","0","662"
"3","3","encoding","encoding","116","Condom.jpg","37","0","1333"
"3","3","encoding","encoding","117","Wheel_Steering.jpg","36","0","1808"
"3","3","encoding","encoding","118","Toy_Slide.jpg","36","0","1458"
"3","3","encoding","encoding","119","Shorts_Sports.jpg","37","0","922"
"3","3","encoding","encoding","120","Leaf_Clover.jpg","37","0","1593"
"3","3","encoding","encoding","121","Fossil.jpg","37","0","946"
"3","3","encoding","encoding","123","RemoteControl.jpg","0","0","2000"
"3","3","encoding","encoding","124","Toy_Motorcycle.jpg","0","0","2000"
"3","3","encoding","encoding","125","Flowers_DryBouquet.jpg","0","0","2000"
"3","3","encoding","encoding","126","Book_Paper.jpg","0","0","2000"
"3","3","encoding","encoding","127","Hazelnut.jpg","36","0","869"
"3","3","encoding","encoding","128","Lips_Wax.jpg","37","0","389"
"3","3","encoding","encoding","129","Hangar.jpg","37","0","690"
"3","3","encoding","encoding","130","Crown.jpg","36","0","783"
"3","3","encoding","encoding","131","Kettle.jpg","36","0","674"
"3","3","encoding","encoding","132","Donut.jpg","36","0","1039"
"3","3","encoding","encoding","133","Statue_SouthAmerican.jpg","37","0","744"
"3","3","encoding","encoding","134","Toy_Car.jpg","37","0","1379"
"3","3","encoding","encoding","135","Bed_QueenSize.jpg","36","0","855"
"3","3","encoding","encoding","136","Milkshake_Strawberry.jpg","36","0","1005"
"3","3","encoding","encoding","137","Pig.jpg","37","0","915"
"3","3","encoding","encoding","138","Hottub.jpg","37","0","931"
"3","3","encoding","encoding","139","Brush_BathBack.jpg","36","0","674"
"3","3","encoding","encoding","140","Bench_Park.jpg","37","0","1058"
"3","3","encoding","encoding","141","Popcorn.jpg","36","0","837"
"3","3","encoding","encoding","142","GrillRack.jpg","37","0","888"
"3","3","encoding","encoding","143","Pretzel_Sticks.jpg","36","0","1899"
"3","3","encoding","encoding","144","HorseshoeCrab.jpg","37","0","1040"
"3","3","encoding","encoding","145","ProcessorFood_Modern.jpg","36","0","745"
"3","3","encoding","encoding","146","Cart_Wooden.jpg","37","0","865"
"3","3","encoding","encoding","147","Scissors.jpg","36","0","750"
"3","3","encoding","encoding","148","Toy_DogBall.jpg","36","0","1323"
"3","3","encoding","encoding","149","Lighter_Black.jpg","36","0","1655"
"3","3","encoding","encoding","150","TailLight.jpg","37","0","904"
"3","3","encoding","encoding","151","GuineaPig.jpg","36","0","1088"
"3","3","encoding","encoding","152","Pickaxe.jpg","37","0","1123"
"3","3","encoding","encoding","153","Stone_Mill.jpg","36","0","1132"
"3","3","encoding","encoding","154","Mixer_Cement.jpg","36","0","970"
"3","3","encoding","encoding","155","Bucket_Ice.jpg","36","0","631"
"3","3","encoding","encoding","156","BicycleGear.jpg","36","0","891"
"3","3","encoding","encoding","157","Table_Magazine.jpg","36","0","709"
"3","3","encoding","encoding","158","DogToy.jpg","36","0","984"
"3","3","encoding","encoding","159","Toy_Moose.jpg","37","0","1170"
"3","3","encoding","encoding","160","ElectricSwitchboard.jpg","36","0","929"
"3","3","encoding","encoding","161","FireExtinguisher.jpg","37","0","1185"
"3","3","encoding","encoding","162","Ball_Squashball.jpg","37","0","1385"
"3","3","encoding","encoding","163","Toy_SandRake.jpg","36","0","784"
"3","3","encoding","encoding","164","Chair_Office.jpg","37","0","912"
"3","3","encoding","encoding","165","Kebab_Vegetables.jpg","36","0","882"
"3","3","encoding","encoding","166","Phone_Military.jpg","36","0","914"
"3","3","encoding","encoding","167","StampAndSeal.jpg","36","0","1054"
"3","3","encoding","encoding","168","Flower_Hibiscus.jpg","37","0","950"
"3","3","encoding","encoding","169","Table_PingPong.jpg","36","0","1032"
"3","3","encoding","encoding","170","Peppermill.jpg","36","0","700"
"3","3","encoding","encoding","171","Car_Totalled.jpg","37","0","1200"
"3","3","encoding","encoding","172","Toy_RaceTrack.jpg","37","0","1010"
"3","3","encoding","encoding","173","Photocopier.jpg","36","0","740"
"3","3","encoding","encoding","174","Dice.jpg","36","0","827"
"3","3","encoding","encoding","175","Suitcase.jpg","36","0","1152"
"3","3","encoding","encoding","176","Cake_Birthday.jpg","36","0","776"
"3","3","encoding","encoding","177","Heater_ElectricUpright.jpg","37","0","1186"
"3","3","retrieval","new_objects","1","SpaceRover.jpg","37","1","1004"
"3","3","retrieval","new_objects","2","Truck_VintageBlue.jpg","36","0","1191"
"3","3","retrieval","old_objects","3","Peeler.jpg","37","0","1342"
"3","3","retrieval","old_objects","4","Bicycle_Kids.jpg","37","0","880"
"3","3","retrieval","old_objects","5","MeasuringTape.jpg","37","0","971"
"3","3","retrieval","new_objects","6","Cast.jpg","36","0","1187"
"3","3","retrieval","new_objects","7","SoapBottle.jpg","36","0","843"
"3","3","retrieval","old_objects","8","Container_Tupperware.jpg","36","1","857"
"3","3","retrieval","new_objects","9","Golf_Bag.jpg","37","1","761"
"3","3","retrieval","new_objects","10","Hook_Fishing.jpg","37","1","719"
"3","3","retrieval","old_objects","11","Ladybug.jpg","36","1","895"
"3","3","retrieval","old_objects","12","WashRack.jpg","36","1","932"
"3","3","retrieval","old_objects","13","Pickle.jpg","36","1","885"
"3","3","retrieval","new_objects","14","Paddle_PingPong.jpg","37","1","917"
"3","3","retrieval","new_objects","15","Snowboard.jpg","37","1","749"
"3","3","retrieval","new_objects","16","Ambulance.jpg","37","1","766"
"3","3","retrieval","new_objects","17","BicycleBrake.jpg","36","0","772"
"3","3","retrieval","old_objects","18","Carrot.jpg","36","1","998"
"3","3","retrieval","new_objects","19","Jar_Cookie.jpg","37","1","1036"
"3","3","retrieval","new_objects","20","Pasta_Fettuccine.jpg","37","1","712"
"3","3","retrieval","old_objects","21","SewingMachine.jpg","37","0","623"
"3","3","retrieval","old_objects","22","PyramidWooden.jpg","37","0","719"
"3","3","retrieval","new_objects","23","Chair_Rocking.jpg","36","0","757"
"3","3","retrieval","new_objects","24","Croissant.jpg","37","1","656"
"3","3","retrieval","old_objects","25","BoxTrailer.jpg","37","0","788"
"3","3","retrieval","new_objects","26","AngleGrinder.jpg","37","1","635"
"3","3","retrieval","new_objects","27","Seahorse.jpg","36","0","916"
"3","3","retrieval","new_objects","28","Ginger.jpg","37","1","946"
"3","3","retrieval","new_objects","29","DoorHandle.jpg","37","1","427"
"3","3","retrieval","new_objects","30","Coin.jpg","37","1","444"
"3","3","retrieval","old_objects","31","Bucket_Ice.jpg","37","0","528"
"3","3","retrieval","old_objects","32","Bag_Hand.jpg","36","1","587"
"3","3","retrieval","old_objects","33","BadgeSpecialAgent.jpg","37","0","559"
"3","3","retrieval","new_objects","34","LetterMail.jpg","37","1","444"
"3","3","retrieval","new_objects","35","HDMIConnector.jpg","37","1","398"
"3","3","retrieval","old_objects","36","Ring_Plain.jpg","36","1","696"
"3","3","retrieval","old_objects","37","SoundMixer_White.jpg","37","0","671"
"3","3","retrieval","new_objects","38","Hanger.jpg","37","1","638"
"3","3","retrieval","old_objects","39","Bleachers.jpg","37","0","749"
"3","3","retrieval","old_objects","40","Crown.jpg","36","1","659"
"3","3","retrieval","new_objects","41","Chair_BeanBag.jpg","37","1","766"
"3","3","retrieval","new_objects","42","Candleholder_Tall.jpg","36","0","614"
"3","3","retrieval","old_objects","43","Kettle.jpg","37","0","679"
"3","3","retrieval","new_objects","44","Garbage_GreenBin.jpg","36","0","688"
"3","3","retrieval","old_objects","45","ColumnMarble.jpg","36","1","615"
"3","3","retrieval","old_objects","46","Dice.jpg","37","0","679"
"3","3","retrieval","new_objects","47","CarSuspension.jpg","37","1","808"
"3","3","retrieval","new_objects","48","Purse.jpg","37","1","427"
"3","3","retrieval","old_objects","49","Leg.jpg","36","1","477"
"3","3","retrieval","old_objects","50","HairCurler.jpg","37","0","625"
"3","3","retrieval","old_objects","51","Toy_DinosaurTRex.jpg","37","0","559"
"3","3","retrieval","new_objects","52","PaperTowel_Kitchen.jpg","37","1","281"
"3","3","retrieval","new_objects","53","Film_Roll.jpg","37","1","571"
"3","3","retrieval","old_objects","54","Brace_Leg.jpg","36","1","681"
"3","3","retrieval","old_objects","55","Table_Magazine.jpg","37","0","563"
"3","3","retrieval","new_objects","56","TowelRack_Brown.jpg","36","0","550"
"3","3","retrieval","old_objects","57","Headset.jpg","37","0","711"
"3","3","retrieval","new_objects","58","Binoculars.jpg","37","1","442"
"3","3","retrieval","new_objects","59","Barometer.jpg","37","1","493"
"3","3","retrieval","old_objects","60","Arm.jpg","36","1","559"
"3","3","retrieval","old_objects","62","Cake_Birthday.jpg","37","0","516"
"3","3","retrieval","old_objects","63","Sign_Wetfloor.jpg","37","0","683"
"3","3","retrieval","old_objects","64","Makeup_Eyeshadow.jpg","37","0","683"
"3","3","retrieval","new_objects","65","TeethModel.jpg","36","0","593"
"3","3","retrieval","new_objects","66","Toy_SeeSaw.jpg","37","1","557"
"3","3","retrieval","new_objects","67","Bamboo.jpg","36","0","734"
"3","3","retrieval","old_objects","68","BinRecycling.jpg","37","0","882"
"3","3","retrieval","old_objects","69","ProcessorFood_Old.jpg","36","1","780"
"3","3","retrieval","old_objects","70","IceCream_Chocolate.jpg","37","0","738"
"3","3","retrieval","old_objects","71","Truck_Box.jpg","37","0","767"
"3","3","retrieval","new_objects","72","Jacket_Jean.jpg","37","1","563"
"3","3","retrieval","new_objects","73","Car_Ferrari.jpg","37","1","568"
"3","3","retrieval","new_objects","74","Sock_Ankle.jpg","36","0","629"
"3","3","retrieval","new_objects","75","Headphones.jpg","37","1","792"
"3","3","retrieval","new_objects","76","Saw.jpg","36","0","1112"
"3","3","retrieval","old_objects","77","Wreath.jpg","36","1","951"
"3","3","retrieval","new_objects","78","Goat.jpg","36","0","792"
"3","3","retrieval","new_objects","79","Bolt.jpg","36","0","916"
"3","3","retrieval","old_objects","80","Bottle_Plastic.jpg","36","1","694"
"3","3","retrieval","new_objects","81","Joystick.jpg","37","1","667"
"3","3","retrieval","old_objects","82","TailLight.jpg","37","0","784"
"3","3","retrieval","new_objects","83","Milkshake_Chocolate.jpg","37","1","788"
"3","3","retrieval","new_objects","84","Clamp.jpg","37","1","824"
"3","3","retrieval","new_objects","85","Microphone.jpg","37","1","815"
"3","3","retrieval","old_objects","86","Lobster.jpg","36","1","556"
"3","3","retrieval","old_objects","87","ControlPanel.jpg","36","1","842"
"3","3","retrieval","old_objects","88","Case_DVD.jpg","37","0","565"
"3","3","retrieval","old_objects","89","PaintBrushAndPallette.jpg","36","1","697"
"3","3","retrieval","new_objects","90","BasketballHoop.jpg","37","1","511"
"3","3","retrieval","new_objects","91","PuppetTheatre_BlueRed.jpg","37","1","787"
"3","3","retrieval","old_objects","92","Phone_Military.jpg","37","0","633"
"3","3","retrieval","new_objects","93","Plunger.jpg","36","0","541"
"3","3","retrieval","old_objects","94","CigarCutter.jpg","36","1","762"
"3","3","retrieval","new_objects","95","Candy_Heart.jpg","37","1","669"
"3","3","retrieval","new_objects","96","RollingPin.jpg","37","1","643"
"3","3","retrieval","old_objects","97","Iron_Antique.jpg","36","1","820"
"3","3","retrieval","new_objects","98","Tie.jpg","37","1","646"
"3","3","retrieval","old_objects","99","Condom.jpg","36","1","537"
"3","3","retrieval","old_objects","100","Leaf_Clover.jpg","36","1","592"
"3","3","retrieval","old_objects","101","Toy_Truck.jpg","37","0","540"
"3","3","retrieval","new_objects","102","PagodaModel.jpg","37","1","526"
"3","3","retrieval","old_objects","103","HorseshoeCrab.jpg","36","1","560"
"3","3","retrieval","old_objects","104","Scoop_Flour.jpg","36","1","670"
"3","3","retrieval","new_objects","105","CoffeePot.jpg","37","1","670"
"3","3","retrieval","old_objects","106","Bench_Park.jpg","36","1","643"
"3","3","retrieval","old_objects","107","LitterScoop.jpg","37","0","639"
"3","3","retrieval","new_objects","108","RecordPlayer.jpg","37","1","616"
"3","3","retrieval","new_objects","109","Paddle_Beach.jpg","37","1","532"
"3","3","retrieval","old_objects","110","Handcuffs.jpg","36","1","681"
"3","3","retrieval","old_objects","111","Shorts_Sports.jpg","37","0","649"
"3","3","retrieval","new_objects","112","OrangeBlood.jpg","36","0","714"
"3","3","retrieval","new_objects","113","Crackers_Ritz.jpg","37","1","776"
"3","3","retrieval","old_objects","114","Mixer_Cement.jpg","36","1","637"
"3","3","retrieval","new_objects","115","CompassCardinal.jpg","37","1","624"
"3","3","retrieval","old_objects","116","Car_Vintage.jpg","36","1","640"
"3","3","retrieval","old_objects","117","Bag_Diaper.jpg","37","0","792"
"3","3","retrieval","old_objects","118","Cart_Wooden.jpg","36","1","718"
"3","3","retrieval","new_objects","119","Toy_Turtle.jpg","37","1","756"
"3","3","retrieval","new_objects","120","IceScraper.jpg","37","1","570"
"3","3","retrieval","old_objects","121","Photocopier.jpg","37","0","568"
"3","3","retrieval","new_objects","123","Exercise_Stepper.jpg","37","1","658"
"3","3","retrieval","new_objects","124","MousepadAndMouse.jpg","37","1","528"
"3","3","retrieval","new_objects","125","Light_Studio.jpg","37","1","518"
"3","3","retrieval","new_objects","126","VialLab.jpg","37","1","528"
"3","3","retrieval","old_objects","127","Bowl_Flour.jpg","36","1","602"
"3","3","retrieval","old_objects","128","Shoes_Snow.jpg","36","1","587"
"3","3","retrieval","old_objects","129","StampAndSeal.jpg","36","1","595"
"3","3","retrieval","old_objects","130","Glass_Ball.jpg","37","0","527"
"3","3","retrieval","new_objects","131","Shoes_Pumps.jpg","37","1","491"
"3","3","retrieval","old_objects","132","Skates.jpg","37","0","493"
"3","3","retrieval","new_objects","133","Iguana.jpg","36","0","604"
"3","3","retrieval","new_objects","134","WalkieTalkie_Red.jpg","36","0","673"
"3","3","retrieval","new_objects","135","ReindeerHeadband.jpg","37","1","745"
"3","3","retrieval","old_objects","136","ShearsGarden.jpg","36","1","590"
"3","3","retrieval","old_objects","137","RiceCooker.jpg","37","0","578"
"3","3","retrieval","new_objects","138","Flower_Crane.jpg","37","1","532"
"3","3","retrieval","new_objects","139","Fruit_Orange.jpg","37","1","710"
"3","3","retrieval","new_objects","140","Handbag.jpg","36","0","602"
"3","3","retrieval","old_objects","141","Pickaxe.jpg","37","0","727"
"3","3","retrieval","new_objects","142","Battery_AA.jpg","36","0","624"
"3","3","retrieval","old_objects","143","Whip.jpg","36","1","530"
"3","3","retrieval","old_objects","144","Book_Paper.jpg","37","0","568"
"3","3","retrieval","old_objects","145","BicycleWheel.jpg","37","0","558"
"3","3","retrieval","old_objects","146","AlarmSystem.jpg","37","0","710"
"3","3","retrieval","old_objects","147","SafetyPin.jpg","37","0","658"
"3","3","retrieval","old_objects","148","Wheel_Steering.jpg","37","0","630"
"3","3","retrieval","old_objects","149","BakingDish.jpg","37","0","729"
"3","3","retrieval","old_objects","150","PoliceTape.jpg","37","0","717"
"3","3","retrieval","old_objects","151","ProcessorFood_Modern.jpg","37","0","512"
"3","3","retrieval","old_objects","152","Bucket_Rusty.jpg","36","1","500"
"3","3","retrieval","new_objects","153","ButterChurn.jpg","36","0","482"
"3","3","retrieval","old_objects","154","Spoon_Baby.jpg","37","0","544"
"3","3","retrieval","new_objects","155","Button.jpg","37","1","475"
"3","3","retrieval","old_objects","156","Basket_Straw.jpg","36","1","614"
"3","3","retrieval","old_objects","157","WatermelonSlice.jpg","37","0","429"
"3","3","retrieval","old_objects","158","AllTerrain.jpg","37","0","627"
"3","3","retrieval","old_objects","159","Broom_Long.jpg","36","1","737"
"3","3","retrieval","old_objects","160","Toy_Moose.jpg","36","1","561"
"3","3","retrieval","old_objects","161","Chicken_Dinner.jpg","37","0","557"
"3","3","retrieval","new_objects","162","Tape_Clear.jpg","37","1","841"
"3","3","retrieval","new_objects","163","Brooch_Fish.jpg","37","1","584"
"3","3","retrieval","new_objects","164","Can_MilkAntique.jpg","36","0","537"
"3","3","retrieval","new_objects","165","Stroller.jpg","37","1","517"
"3","3","retrieval","new_objects","166","Bottle_BubbleBlower.jpg","37","1","488"
"3","3","retrieval","old_objects","167","Hottub.jpg","37","0","610"
"3","3","retrieval","old_objects","168","GuineaPig.jpg","37","0","509"
"3","3","retrieval","old_objects","169","Heelpad.jpg","36","1","617"
"3","3","retrieval","new_objects","170","Bowtie.jpg","37","1","372"
"3","3","retrieval","new_objects","171","Seashell_AlternateTellin.jpg","37","1","405"
"3","3","retrieval","old_objects","172","Lips_Wax.jpg","36","1","724"
"3","3","retrieval","old_objects","173","Butterfly.jpg","36","1","758"
"3","3","retrieval","old_objects","174","Scissors.jpg","36","1","930"
"3","3","retrieval","new_objects","175","Egg_Cup.jpg","36","0","612"
"3","3","retrieval","old_objects","176","Peppermill.jpg","36","1","533"
"3","3","retrieval","new_objects","177","Mask_CPR.jpg","37","1","675"
"3","3","retrieval","old_objects","178","ChocolateBar_Unwrapped.jpg","37","0","478"
"3","3","retrieval","new_objects","179","WorldMap.jpg","36","0","789"
"3","3","retrieval","old_objects","180","Flowers_DryBouquet.jpg","36","1","832"
"3","3","retrieval","new_objects","181","Trash_Medical.jpg","37","1","869"
"3","3","retrieval","old_objects","182","RickShaw.jpg","36","1","717"
"3","3","retrieval","new_objects","184","BearPolar.jpg","36","0","665"
"3","3","retrieval","old_objects","185","Car_Totalled.jpg","37","0","606"
"3","3","retrieval","old_objects","186","Suitcase.jpg","36","1","730"
"3","3","retrieval","new_objects","187","ComputerKey_Escape.jpg","36","0","1057"
"3","3","retrieval","old_objects","188","Ball_Squashball.jpg","36","1","668"
"3","3","retrieval","old_objects","189","Brush_BathBack.jpg","37","0","565"
"3","3","retrieval","old_objects","190","Bowl_Cereal.jpg","36","1","612"
"3","3","retrieval","new_objects","191","Guitar_Electric.jpg","37","1","813"
"3","3","retrieval","new_objects","192","Cactus.jpg","36","0","841"
"3","3","retrieval","new_objects","193","Pliers_NeedleNose.jpg","37","1","925"
"3","3","retrieval","old_objects","194","Syringe_Blunt.jpg","37","0","1397"
"3","3","retrieval","new_objects","195","Instrument_Nyckelharpa.jpg","36","0","730"
"3","3","retrieval","new_objects","196","Apple_RedAndGreen.jpg","36","0","699"
"3","3","retrieval","new_objects","197","Radio_Antique.jpg","36","0","674"
"3","3","retrieval","old_objects","198","BicyclePedal.jpg","37","0","784"
"3","3","retrieval","new_objects","199","Lemon.jpg","36","0","943"
"3","3","retrieval","old_objects","200","Toy_RaceTrack.jpg","37","0","753"
"3","3","retrieval","old_objects","201","TelephoneJack.jpg","36","1","1074"
"3","3","retrieval","new_objects","202","Pipe.jpg","36","0","702"
"3","3","retrieval","new_objects","203","Jar_Canopic.jpg","36","0","614"
"3","3","retrieval","new_objects","204","Table_Picnic.jpg","36","0","629"
"3","3","retrieval","new_objects","205","LaundryHamper.jpg","36","0","656"
"3","3","retrieval","new_objects","206","Zucchini.jpg","37","1","811"
"3","3","retrieval","old_objects","207","Popcorn.jpg","37","0","573"
"3","3","retrieval","old_objects","208","Cord_usb.jpg","37","0","561"
"3","3","retrieval","old_objects","209","RemoteControl.jpg","37","0","574"
"3","3","retrieval","new_objects","210","HandMixer.jpg","37","1","891"
"3","3","retrieval","new_objects","211","Jars_PetFood.jpg","37","1","916"
"3","3","retrieval","new_objects","212","Toy_Helicopter.jpg","36","0","895"
"3","3","retrieval","old_objects","213","Bread_Melon.jpg","37","0","635"
"3","3","retrieval","new_objects","214","Bag_Saline.jpg","36","0","918"
"3","3","retrieval","old_objects","215","VacuumHead.jpg","37","0","501"
"3","3","retrieval","old_objects","216","Compressor.jpg","37","0","481"
"3","3","retrieval","old_objects","217","Bird_Peacock.jpg","37","0","240"
"3","3","retrieval","new_objects","218","Carousel copy.jpg","36","0","123"
"3","3","retrieval","old_objects","219","Pot_CastIron.jpg","37","0","207"
"3","3","retrieval","old_objects","220","PaintRoller.jpg","37","0","307"
"3","3","retrieval","new_objects","221","ToothBrush.jpg","36","0","464"
"3","3","retrieval","old_objects","222","BicycleGear.jpg","36","1","427"
"3","3","retrieval","new_objects","223","Baster.jpg","37","1","443"
"3","3","retrieval","old_objects","224","Pig.jpg","36","1","589"
"3","3","retrieval","old_objects","225","Fossil.jpg","36","1","548"
"3","3","retrieval","new_objects","226","Candy_Cane.jpg","36","0","422"
"3","3","retrieval","old_objects","227","Bird_Cardinal.jpg","36","1","484"
"3","3","retrieval","new_objects","228","KitchenTools.jpg","37","1","477"
"3","3","retrieval","new_objects","229","Scrabble.jpg","36","0","673"
"3","3","retrieval","new_objects","230","Chinchilla.jpg","36","0","579"
"3","3","retrieval","new_objects","231","Giraffe.jpg","37","1","669"
"3","3","retrieval","new_objects","232","MilkJug.jpg","37","1","515"
"3","3","retrieval","old_objects","233","Chair_Office.jpg","37","0","615"
"3","3","retrieval","old_objects","234","Toy_FigurineEngineer.jpg","36","1","677"
"3","3","retrieval","old_objects","235","Card_QueenSpade.jpg","36","1","589"
"3","3","retrieval","old_objects","236","Harmonica.jpg","36","1","627"
"3","3","retrieval","old_objects","237","SlideViewer.jpg","36","1","817"
"3","3","retrieval","new_objects","238","Glasses_Reading.jpg","37","1","827"
"3","3","retrieval","new_objects","239","House_Stone.jpg","36","0","471"
"3","3","retrieval","new_objects","240","DogLeash.jpg","37","1","633"
"3","3","retrieval","new_objects","241","SpiderWeb.jpg","36","0","807"
"3","3","retrieval","old_objects","242","Toy_Alien.jpg","36","1","834"
"3","3","retrieval","new_objects","243","Tube.jpg","36","0","727"
"3","3","retrieval","old_objects","245","Flower_Hibiscus.jpg","36","1","709"
"3","3","retrieval","old_objects","246","Hedgehog.jpg","37","0","679"
"3","3","retrieval","old_objects","247","Toy_DogBall.jpg","37","0","679"
"3","3","retrieval","old_objects","248","AnsweringMachine.jpg","37","0","787"
"3","3","retrieval","new_objects","249","Taco.jpg","37","1","801"
"3","3","retrieval","old_objects","250","Neckrest.jpg","36","1","798"
"3","3","retrieval","old_objects","251","ElectricSwitchboard.jpg","37","0","750"
"3","3","retrieval","old_objects","252","DogToy.jpg","36","1","725"
"3","3","retrieval","new_objects","253","FlintIgniter.jpg","37","1","647"
"3","3","retrieval","old_objects","254","Case_Pencil.jpg","36","1","636"
"3","3","retrieval","new_objects","255","Bindings_Snowboard.jpg","37","1","524"
"3","3","retrieval","old_objects","256","ChewingGum.jpg","36","1","557"
"3","3","retrieval","new_objects","257","Gorilla.jpg","36","0","402"
"3","3","retrieval","new_objects","258","MagazineRoll.jpg","37","1","545"
"3","3","retrieval","new_objects","259","DormerWindow.jpg","36","0","560"
"3","3","retrieval","new_objects","260","Hulahoop.jpg","37","1","475"
"3","3","retrieval","old_objects","261","Pasta_Spaghetti.jpg","37","0","555"
"3","3","retrieval","new_objects","262","DartBoard.jpg","36","0","694"
"3","3","retrieval","new_objects","263","CheeseSlicer.jpg","36","0","404"
"3","3","retrieval","old_objects","264","Kebab_Vegetables.jpg","37","0","225"
"3","3","retrieval","new_objects","265","Sign_SpeedLimit25.jpg","37","1","119"
"3","3","retrieval","new_objects","266","Lettuce_Iceberg.jpg","37","1","20"
"3","3","retrieval","old_objects","267","Mirror_Carside.jpg","37","0","5"
"3","3","retrieval","old_objects","268","Machine_EKG.jpg","37","0","13"
"3","3","retrieval","old_objects","269","Celery.jpg","36","1","337"
"3","3","retrieval","new_objects","270","Fruit_Carambola.jpg","37","1","220"
"3","3","retrieval","new_objects","271","Arch_Triomphe.jpg","36","0","375"
"3","3","retrieval","new_objects","272","AmpMeter.jpg","37","1","198"
"3","3","retrieval","old_objects","273","Sheep.jpg","36","1","350"
"3","3","retrieval","old_objects","274","DVDPlayer.jpg","37","0","341"
"3","3","retrieval","new_objects","275","PedestalGreek.jpg","36","0","486"
"3","3","retrieval","old_objects","276","Missile.jpg","37","0","485"
"3","3","retrieval","old_objects","277","FireExtinguisher.jpg","37","0","465"
"3","3","retrieval","new_objects","278","WindowBlinds.jpg","37","1","561"
"3","3","retrieval","old_objects","279","Cauliflower.jpg","37","0","243"
"3","3","retrieval","new_objects","280","Mug_Ceramic.jpg","37","1","335"
"3","3","retrieval","old_objects","281","Light_Fixtures.jpg","36","1","322"
"3","3","retrieval","new_objects","282","CrepeMaker.jpg","37","1","489"
"3","3","retrieval","new_objects","283","Van.jpg","37","1","425"
"3","3","retrieval","old_objects","284","Toy_SandRake.jpg","37","0","575"
"3","3","retrieval","old_objects","285","Origami_Ox.jpg","37","0","373"
"3","3","retrieval","new_objects","286","Cup_Bathroom.jpg","37","1","590"
"3","3","retrieval","new_objects","287","ToothPaste.jpg","37","1","634"
"3","3","retrieval","old_objects","288","Toy_Wooden rings.jpg","37","0","552"
"3","3","retrieval","old_objects","289","Inukshuk.jpg","36","1","545"
"3","3","retrieval","old_objects","290","Thumbtack.jpg","36","1","1632"
"3","3","retrieval","new_objects","291","Shoe_Men.jpg","36","0","858"
"3","3","retrieval","new_objects","292","Hook_Double.jpg","37","1","624"
"3","3","retrieval","old_objects","293","Drum_Brazilan.jpg","36","1","877"
"3","3","retrieval","old_objects","294","Stone_Mill.jpg","36","1","1003"
"3","3","retrieval","old_objects","295","Television.jpg","37","0","503"
"3","3","retrieval","new_objects","296","Helmet_Motorcycle.jpg","37","1","192"
"3","3","retrieval","new_objects","297","Bowl_Wooden.jpg","37","1","200"
"3","3","retrieval","new_objects","298","Guitarcase.jpg","36","0","305"
"3","3","retrieval","old_objects","299","Camera_Digital.jpg","36","1","396"
"3","3","retrieval","old_objects","300","Statue_SouthAmerican.jpg","37","0","225"
"3","3","retrieval","old_objects","301","Hangar.jpg","37","0","327"
"3","3","retrieval","old_objects","302","Dresser_1.jpg","37","0","497"
"3","3","retrieval","old_objects","303","Booties_Blue.jpg","36","1","525"
"3","3","retrieval","old_objects","304","GrillRack.jpg","36","1","503"
"3","3","retrieval","old_objects","306","Beater_Electric.jpg","37","0","565"
"3","3","retrieval","old_objects","307","Mat_Bamboo.jpg","37","0","476"
"3","3","retrieval","new_objects","308","SetSquare.jpg","37","1","394"
"3","3","retrieval","new_objects","309","Jug_GallonRed.jpg","37","1","404"
"3","3","retrieval","old_objects","310","Donut.jpg","37","0","304"
"3","3","retrieval","new_objects","311","Boar.jpg","36","0","462"
"3","3","retrieval","old_objects","312","BusStop.jpg","36","1","451"
"3","3","retrieval","old_objects","313","Gun_Nerf.jpg","37","0","521"
"3","3","retrieval","new_objects","314","Box_Floral.jpg","37","1","351"
"3","3","retrieval","new_objects","315","FoodMill.jpg","37","1","362"
"3","3","retrieval","new_objects","316","Amp.jpg","37","1","391"
"3","3","retrieval","new_objects","317","RollerCoaster.jpg","36","0","420"
"3","3","retrieval","old_objects","318","Toy_Car.jpg","36","1","419"
"3","3","retrieval","new_objects","319","Pants.jpg","37","1","474"
"3","3","retrieval","old_objects","320","Clock_Radioalarm.jpg","37","0","391"
"3","3","retrieval","new_objects","321","NailClipper.jpg","37","1","590"
"3","3","retrieval","old_objects","322","Crate_Wine.jpg","36","1","389"
"3","3","retrieval","new_objects","323","Cheeseburger.jpg","37","1","473"
"3","3","retrieval","old_objects","324","Table_PingPong.jpg","36","1","443"
"3","3","retrieval","new_objects","325","Sign_SpeedLimit30.jpg","37","1","603"
"3","3","retrieval","old_objects","326","Pretzel_Sticks.jpg","37","0","494"
"3","3","retrieval","new_objects","327","ScaleWeighing.jpg","36","0","613"
"3","3","retrieval","new_objects","328","Brace_Back.jpg","37","1","472"
"3","3","retrieval","new_objects","329","Sandwich_Egg.jpg","37","1","199"
"3","3","retrieval","new_objects","330","Tractor_Orange.jpg","37","1","457"
"3","3","retrieval","old_objects","331","Bed_QueenSize.jpg","37","0","423"
"3","3","retrieval","old_objects","332","Lighter_Black.jpg","37","0","455"
"3","3","retrieval","new_objects","333","Box_Wine.jpg","37","1","19"
"3","3","retrieval","new_objects","334","ShotGlassTray.jpg","37","1","202"
"3","3","retrieval","old_objects","335","NintendoWii.jpg","37","0","0"
"3","3","retrieval","new_objects","336","Dog_SaintBernard.jpg","36","0","42"
"3","3","retrieval","old_objects","337","TotemPole.jpg","37","0","121"
"3","3","retrieval","new_objects","338","Loveseat.jpg","37","1","113"
"3","3","retrieval","new_objects","339","HairBand.jpg","37","1","48"
"3","3","retrieval","old_objects","340","Hazelnut.jpg","37","0","118"
"3","3","retrieval","new_objects","341","PillBottle_Spilled.jpg","37","1","212"
"3","3","retrieval","old_objects","342","Toy_Slide.jpg","37","0","484"
"3","3","retrieval","new_objects","343","MobilityScooter.jpg","37","1","382"
"3","3","retrieval","new_objects","344","Mask_Gas.jpg","37","1","326"
"3","3","retrieval","new_objects","345","MeatGrinder.jpg","36","0","770"
"3","3","retrieval","new_objects","346","Glass_Wine.jpg","36","0","495"
"3","3","retrieval","new_objects","347","Binder.jpg","37","1","340"
"3","3","retrieval","new_objects","348","WireStripper.jpg","37","1","164"
"3","3","retrieval","old_objects","349","Toy_Motorcycle.jpg","37","0","259"
"3","3","retrieval","old_objects","350","Milkshake_Strawberry.jpg","37","0","206"
"3","3","retrieval","new_objects","351","Ball_Disco.jpg","37","1","215"
"3","3","retrieval","old_objects","352","Heater_ElectricUpright.jpg","36","1","292"
"3","3","retrieval","new_objects","353","Bat_Baseball.jpg","37","1","71"
"3","3","retrieval","new_objects","354","Basket_Bread.jpg","36","0","96"
"3","3","retrieval","new_objects","355","Heater_Infrared.jpg","37","1","100"
"3","3","demographics_block","gender","1","Heater_Infrared.jpg","male","1","9710"
"3","3","demographics_block","age","1","Heater_Infrared.jpg","33","1","9710"
"3","3","demographics_block","education","1","Heater_Infrared.jpg","some college","1","9710"
"3","3","demographics_block","left_right_handed","2","Heater_Infrared.jpg","Right","1","5787"
"3","3","demographics_block","raceoption1","2","Heater_Infrared.jpg","0","1","5787"
"3","3","demographics_block","raceoption2","2","Heater_Infrared.jpg","","1","5787"
"3","3","demographics_block","raceoption3","2","Heater_Infrared.jpg","","1","5787"
"3","3","demographics_block","raceoption4","2","Heater_Infrared.jpg","","1","5787"
"3","3","demographics_block","raceoption5","2","Heater_Infrared.jpg","","1","5787"
"3","3","demographics_block","raceoption6","2","Heater_Infrared.jpg","","1","5787"
"3","3","demographics_block","raceoption7","2","Heater_Infrared.jpg","","1","5787"
"3","3","demographics_block","raceoption8","2","Heater_Infrared.jpg","","1","5787"
"3","3","demographics_block","raceoption9","2","Heater_Infrared.jpg","","1","5787"
"3","3","demographics_block","raceother","2","Heater_Infrared.jpg","","1","5787"
"3","3","demographics_block","raceother","2","Heater_Infrared.jpg","","1","5787"
"3","3","demographics_block","english_language","2","Heater_Infrared.jpg","Yes","1","5787"
"3","3","demographics_block","english_languageother","2","Heater_Infrared.jpg","","1","5787"
"3","3","demographics_block","eyesight","3","Heater_Infrared.jpg","Yes","1","4884"
"3","3","demographics_block","colorblind","3","Heater_Infrared.jpg","No","1","4884"
"3","3","worker_id_block","worker_id_textbox","1","Heater_Infrared.jpg","A3KK1BNF5H0N1Z","1","141773"
"1","1","encoding","encoding","1","GuineaPig.jpg","37","0","1307"
"1","1","encoding","encoding","2","Dresser_1.jpg","36","0","1014"
"1","1","encoding","encoding","3","Photocopier.jpg","36","0","1093"
"1","1","encoding","encoding","4","Donut.jpg","36","0","978"
"1","1","encoding","encoding","5","Glass_Ball.jpg","37","0","1065"
"1","1","encoding","encoding","6","Cord_usb.jpg","36","0","1147"
"1","1","encoding","encoding","7","BakingDish.jpg","36","0","925"
"1","1","encoding","encoding","8","SoundMixer_White.jpg","36","0","1461"
"1","1","encoding","encoding","9","Car_Vintage.jpg","37","0","701"
"1","1","encoding","encoding","10","Bag_Diaper.jpg","36","0","905"
"1","1","encoding","encoding","11","Fossil.jpg","37","0","993"
"1","1","encoding","encoding","12","Bleachers.jpg","37","0","1051"
"1","1","encoding","encoding","13","RickShaw.jpg","37","0","946"
"1","1","encoding","encoding","14","NintendoWii.jpg","36","0","1109"
"1","1","encoding","encoding","15","Carrot.jpg","36","0","1056"
"1","1","encoding","encoding","16","Bowl_Cereal.jpg","36","0","885"
"1","1","encoding","encoding","17","ControlPanel.jpg","36","0","1017"
"1","1","encoding","encoding","18","Headset.jpg","36","0","861"
"1","1","encoding","encoding","19","Scissors.jpg","36","0","815"
"1","1","encoding","encoding","20","Toy_SandRake.jpg","37","0","852"
"1","1","encoding","encoding","21","AllTerrain.jpg","37","0","725"
"1","1","encoding","encoding","22","Bottle_Plastic.jpg","36","0","753"
"1","1","encoding","encoding","23","Shorts_Sports.jpg","36","0","841"
"1","1","encoding","encoding","24","Heelpad.jpg","37","0","1435"
"1","1","encoding","encoding","25","VacuumHead.jpg","37","0","1403"
"1","1","encoding","encoding","26","Cake_Birthday.jpg","36","0","918"
"1","1","encoding","encoding","27","Crate_Wine.jpg","37","0","957"
"1","1","encoding","encoding","28","Hedgehog.jpg","37","0","811"
"1","1","encoding","encoding","29","ChocolateBar_Unwrapped.jpg","36","0","1267"
"1","1","encoding","encoding","30","Arm.jpg","36","0","1443"
"1","1","encoding","encoding","31","Toy_Wooden rings.jpg","36","0","1121"
"1","1","encoding","encoding","32","Basket_Straw.jpg","36","0","1106"
"1","1","encoding","encoding","33","AlarmSystem.jpg","36","0","1065"
"1","1","encoding","encoding","34","Crown.jpg","36","0","801"
"1","1","encoding","encoding","35","Case_Pencil.jpg","36","0","746"
"1","1","encoding","encoding","36","Booties_Blue.jpg","36","0","872"
"1","1","encoding","encoding","37","HorseshoeCrab.jpg","36","0","1494"
"1","1","encoding","encoding","38","Container_Tupperware.jpg","36","0","637"
"1","1","encoding","encoding","39","Bicycle_Kids.jpg","37","0","645"
"1","1","encoding","encoding","40","Dice.jpg","36","0","970"
"1","1","encoding","encoding","41","Cauliflower.jpg","37","0","863"
"1","1","encoding","encoding","42","Syringe_Blunt.jpg","36","0","906"
"1","1","encoding","encoding","43","Butterfly.jpg","37","0","810"
"1","1","encoding","encoding","44","RiceCooker.jpg","36","0","755"
"1","1","encoding","encoding","45","PaintRoller.jpg","36","0","827"
"1","1","encoding","encoding","46","PaintBrushAndPallette.jpg","36","0","720"
"1","1","encoding","encoding","47","Beater_Electric.jpg","36","0","668"
"1","1","encoding","encoding","48","PyramidWooden.jpg","36","0","624"
"1","1","encoding","encoding","49","TelephoneJack.jpg","36","0","749"
"1","1","encoding","encoding","50","Bowl_Flour.jpg","36","0","528"
"1","1","encoding","encoding","51","Gun_Nerf.jpg","36","0","654"
"1","1","encoding","encoding","52","Skates.jpg","36","0","1358"
"1","1","encoding","encoding","53","Compressor.jpg","37","0","1038"
"1","1","encoding","encoding","54","Whip.jpg","36","0","1173"
"1","1","encoding","encoding","55","Ring_Plain.jpg","36","0","868"
"1","1","encoding","encoding","56","TotemPole.jpg","36","0","759"
"1","1","encoding","encoding","57","Harmonica.jpg","36","0","633"
"1","1","encoding","encoding","58","Hangar.jpg","37","0","742"
"1","1","encoding","encoding","59","Toy_RaceTrack.jpg","36","0","1021"
"1","1","encoding","encoding","60","Makeup_Eyeshadow.jpg","36","0","640"
"1","1","encoding","encoding","62","Machine_EKG.jpg","36","0","1159"
"1","1","encoding","encoding","63","Toy_Car.jpg","37","0","663"
"1","1","encoding","encoding","64","Toy_FigurineEngineer.jpg","36","0","1412"
"1","1","encoding","encoding","65","Inukshuk.jpg","37","0","966"
"1","1","encoding","encoding","66","WashRack.jpg","37","0","1621"
"1","1","encoding","encoding","67","Flower_Hibiscus.jpg","37","0","904"
"1","1","encoding","encoding","68","FireExtinguisher.jpg","36","0","1098"
"1","1","encoding","encoding","69","Card_QueenSpade.jpg","36","0","756"
"1","1","encoding","encoding","70","Missile.jpg","36","0","1046"
"1","1","encoding","encoding","71","Origami_Ox.jpg","36","0","795"
"1","1","encoding","encoding","72","Bench_Park.jpg","37","0","588"
"1","1","encoding","encoding","73","Kettle.jpg","36","0","689"
"1","1","encoding","encoding","74","Pasta_Spaghetti.jpg","36","0","857"
"1","1","encoding","encoding","75","Bird_Peacock.jpg","37","0","1098"
"1","1","encoding","encoding","76","IceCream_Chocolate.jpg","36","0","779"
"1","1","encoding","encoding","77","Toy_Alien.jpg","36","0","622"
"1","1","encoding","encoding","78","Popcorn.jpg","36","0","1036"
"1","1","encoding","encoding","79","ElectricSwitchboard.jpg","36","0","1089"
"1","1","encoding","encoding","80","Mirror_Carside.jpg","36","0","1334"
"1","1","encoding","encoding","81","SewingMachine.jpg","36","0","918"
"1","1","encoding","encoding","82","Car_Totalled.jpg","37","0","609"
"1","1","encoding","encoding","83","Stone_Mill.jpg","37","0","1197"
"1","1","encoding","encoding","84","Bag_Hand.jpg","36","0","951"
"1","1","encoding","encoding","85","Lighter_Black.jpg","36","0","1079"
"1","1","encoding","encoding","86","Wheel_Steering.jpg","37","0","802"
"1","1","encoding","encoding","87","Pot_CastIron.jpg","36","0","638"
"1","1","encoding","encoding","88","Shoes_Snow.jpg","36","0","1386"
"1","1","encoding","encoding","89","ChewingGum.jpg","36","0","1272"
"1","1","encoding","encoding","90","BicycleWheel.jpg","37","0","978"
"1","1","encoding","encoding","91","Pig.jpg","37","0","729"
"1","1","encoding","encoding","92","Leg.jpg","36","0","874"
"1","1","encoding","encoding","93","Drum_Brazilan.jpg","37","0","1239"
"1","1","encoding","encoding","94","Statue_SouthAmerican.jpg","37","0","1265"
"1","1","encoding","encoding","95","Bucket_Rusty.jpg","37","0","1838"
"1","1","encoding","encoding","96","Bed_QueenSize.jpg","36","0","861"
"1","1","encoding","encoding","97","Truck_Box.jpg","37","0","733"
"1","1","encoding","encoding","98","Book_Paper.jpg","37","0","1863"
"1","1","encoding","encoding","99","SafetyPin.jpg","36","0","847"
"1","1","encoding","encoding","100","Table_PingPong.jpg","37","0","1404"
"1","1","encoding","encoding","101","Wreath.jpg","37","0","1150"
"1","1","encoding","encoding","102","DVDPlayer.jpg","36","0","1363"
"1","1","encoding","encoding","103","Ball_Squashball.jpg","36","0","1230"
"1","1","encoding","encoding","104","TailLight.jpg","37","0","1159"
"1","1","encoding","encoding","105","BicyclePedal.jpg","37","0","1819"
"1","1","encoding","encoding","106","Leaf_Clover.jpg","37","0","797"
"1","1","encoding","encoding","107","HairCurler.jpg","36","0","902"
"1","1","encoding","encoding","108","Bread_Melon.jpg","36","0","1601"
"1","1","encoding","encoding","109","Phone_Military.jpg","36","0","1075"
"1","1","encoding","encoding","110","Spoon_Baby.jpg","36","0","1458"
"1","1","encoding","encoding","111","Brush_BathBack.jpg","36","0","770"
"1","1","encoding","encoding","112","ProcessorFood_Modern.jpg","36","0","718"
"1","1","encoding","encoding","113","Ladybug.jpg","37","0","950"
"1","1","encoding","encoding","114","ShearsGarden.jpg","36","0","1298"
"1","1","encoding","encoding","115","Peppermill.jpg","36","0","1178"
"1","1","encoding","encoding","116","Pickle.jpg","36","0","929"
"1","1","encoding","encoding","117","Chicken_Dinner.jpg","36","0","862"
"1","1","encoding","encoding","118","Broom_Long.jpg","36","0","832"
"1","1","encoding","encoding","119","BinRecycling.jpg","36","0","1112"
"1","1","encoding","encoding","120","BicycleGear.jpg","37","0","623"
"1","1","encoding","encoding","121","CigarCutter.jpg","37","0","1290"
"1","1","encoding","encoding","123","Kebab_Vegetables.jpg","36","0","998"
"1","1","encoding","encoding","124","Case_DVD.jpg","36","0","1594"
"1","1","encoding","encoding","125","WatermelonSlice.jpg","36","0","713"
"1","1","encoding","encoding","126","Table_Magazine.jpg","36","0","1042"
"1","1","encoding","encoding","127","LitterScoop.jpg","37","0","1098"
"1","1","encoding","encoding","128","Mat_Bamboo.jpg","36","0","984"
"1","1","encoding","encoding","129","Hazelnut.jpg","37","0","1630"
"1","1","encoding","encoding","130","Heater_ElectricUpright.jpg","36","0","916"
"1","1","encoding","encoding","131","Celery.jpg","36","0","702"
"1","1","encoding","encoding","132","Camera_Digital.jpg","36","0","866"
"1","1","encoding","encoding","133","BusStop.jpg","36","0","1323"
"1","1","encoding","encoding","134","PoliceTape.jpg","37","0","1013"
"1","1","encoding","encoding","135","Thumbtack.jpg","37","0","1836"
"1","1","encoding","encoding","136","Toy_Moose.jpg","37","0","1682"
"1","1","encoding","encoding","137","Toy_Motorcycle.jpg","37","0","904"
"1","1","encoding","encoding","138","Hottub.jpg","37","0","1349"
"1","1","encoding","encoding","139","Toy_Truck.jpg","37","0","1102"
"1","1","encoding","encoding","140","Handcuffs.jpg","36","0","1152"
"1","1","encoding","encoding","141","RemoteControl.jpg","36","0","941"
"1","1","encoding","encoding","142","Pretzel_Sticks.jpg","36","0","806"
"1","1","encoding","encoding","143","GrillRack.jpg","36","0","1365"
"1","1","encoding","encoding","144","Scoop_Flour.jpg","37","0","1081"
"1","1","encoding","encoding","145","Cart_Wooden.jpg","37","0","1179"
"1","1","encoding","encoding","146","SlideViewer.jpg","37","0","1262"
"1","1","encoding","encoding","147","Flowers_DryBouquet.jpg","36","0","1377"
"1","1","encoding","encoding","148","ProcessorFood_Old.jpg","36","0","1566"
"1","1","encoding","encoding","149","DogToy.jpg","36","0","1472"
"1","1","encoding","encoding","150","Television.jpg","36","0","1359"
"1","1","encoding","encoding","151","Pickaxe.jpg","37","0","1070"
"1","1","encoding","encoding","152","Sign_Wetfloor.jpg","36","0","1398"
"1","1","encoding","encoding","153","Peeler.jpg","0","0","2000"
"1","1","encoding","encoding","154","Bird_Cardinal.jpg","37","0","614"
"1","1","encoding","encoding","155","Brace_Leg.jpg","36","0","921"
"1","1","encoding","encoding","156","Condom.jpg","36","0","1212"
"1","1","encoding","encoding","157","Toy_Slide.jpg","37","0","672"
"1","1","encoding","encoding","158","Chair_Office.jpg","36","0","763"
"1","1","encoding","encoding","159","AnsweringMachine.jpg","36","0","934"
"1","1","encoding","encoding","160","Milkshake_Strawberry.jpg","36","0","865"
"1","1","encoding","encoding","161","Lips_Wax.jpg","36","0","1260"
"1","1","encoding","encoding","162","Clock_Radioalarm.jpg","36","0","910"
"1","1","encoding","encoding","163","BadgeSpecialAgent.jpg","36","0","880"
"1","1","encoding","encoding","164","ColumnMarble.jpg","37","0","1207"
"1","1","encoding","encoding","165","BoxTrailer.jpg","37","0","731"
"1","1","encoding","encoding","166","StampAndSeal.jpg","36","0","1090"
"1","1","encoding","encoding","167","Lobster.jpg","37","0","1296"
"1","1","encoding","encoding","168","Iron_Antique.jpg","36","0","1304"
"1","1","encoding","encoding","169","Toy_DogBall.jpg","36","0","1096"
"1","1","encoding","encoding","170","Neckrest.jpg","36","0","922"
"1","1","encoding","encoding","171","Light_Fixtures.jpg","36","0","1499"
"1","1","encoding","encoding","172","Suitcase.jpg","36","0","1245"
"1","1","encoding","encoding","173","Toy_DinosaurTRex.jpg","37","0","1101"
"1","1","encoding","encoding","174","Mixer_Cement.jpg","37","0","830"
"1","1","encoding","encoding","175","Sheep.jpg","37","0","798"
"1","1","encoding","encoding","176","Bucket_Ice.jpg","36","0","776"
"1","1","encoding","encoding","177","MeasuringTape.jpg","36","0","917"
"1","1","retrieval","new_objects","1","Bowtie.jpg","37","1","1870"
"1","1","retrieval","new_objects","2","Egg_Cup.jpg","37","1","1190"
"1","1","retrieval","new_objects","3","Chinchilla.jpg","37","1","1423"
"1","1","retrieval","old_objects","4","Whip.jpg","36","1","863"
"1","1","retrieval","old_objects","5","Makeup_Eyeshadow.jpg","37","0","778"
"1","1","retrieval","new_objects","6","RecordPlayer.jpg","37","1","1062"
"1","1","retrieval","new_objects","7","Paddle_Beach.jpg","37","1","717"
"1","1","retrieval","old_objects","8","Gun_Nerf.jpg","37","0","840"
"1","1","retrieval","new_objects","9","Hanger.jpg","37","1","876"
"1","1","retrieval","old_objects","10","VacuumHead.jpg","36","1","741"
"1","1","retrieval","old_objects","11","Donut.jpg","36","1","853"
"1","1","retrieval","old_objects","12","ProcessorFood_Old.jpg","36","1","640"
"1","1","retrieval","old_objects","13","SafetyPin.jpg","36","1","604"
"1","1","retrieval","new_objects","14","HDMIConnector.jpg","37","1","1386"
"1","1","retrieval","new_objects","15","Seahorse.jpg","36","0","1041"
"1","1","retrieval","old_objects","16","BicyclePedal.jpg","36","1","808"
"1","1","retrieval","new_objects","17","Croissant.jpg","37","1","950"
"1","1","retrieval","new_objects","18","Can_MilkAntique.jpg","37","1","931"
"1","1","retrieval","new_objects","19","Chair_Rocking.jpg","37","1","862"
"1","1","retrieval","old_objects","20","Milkshake_Strawberry.jpg","36","1","834"
"1","1","retrieval","new_objects","21","PillBottle_Spilled.jpg","37","1","1281"
"1","1","retrieval","old_objects","22","NintendoWii.jpg","36","1","817"
"1","1","retrieval","new_objects","23","TowelRack_Brown.jpg","37","1","990"
"1","1","retrieval","old_objects","24","Bowl_Cereal.jpg","36","1","1250"
"1","1","retrieval","new_objects","25","Tube.jpg","37","1","633"
"1","1","retrieval","old_objects","26","Lips_Wax.jpg","36","1","858"
"1","1","retrieval","old_objects","27","Mixer_Cement.jpg","36","1","1156"
"1","1","retrieval","new_objects","28","Instrument_Nyckelharpa.jpg","37","1","646"
"1","1","retrieval","old_objects","29","Bench_Park.jpg","36","1","659"
"1","1","retrieval","new_objects","30","FlintIgniter.jpg","37","1","761"
"1","1","retrieval","new_objects","31","HairBand.jpg","37","1","674"
"1","1","retrieval","old_objects","32","Leaf_Clover.jpg","36","1","734"
"1","1","retrieval","new_objects","33","ButterChurn.jpg","37","1","985"
"1","1","retrieval","old_objects","34","Toy_Wooden rings.jpg","37","0","698"
"1","1","retrieval","old_objects","35","HairCurler.jpg","36","1","914"
"1","1","retrieval","old_objects","36","Glass_Ball.jpg","36","1","793"
"1","1","retrieval","old_objects","37","Handcuffs.jpg","36","1","695"
"1","1","retrieval","old_objects","38","Carrot.jpg","37","0","1206"
"1","1","retrieval","old_objects","39","Toy_Moose.jpg","36","1","797"
"1","1","retrieval","new_objects","40","Box_Wine.jpg","37","1","757"
"1","1","retrieval","new_objects","41","SoapBottle.jpg","37","1","647"
"1","1","retrieval","old_objects","42","Bird_Cardinal.jpg","36","1","910"
"1","1","retrieval","new_objects","43","House_Stone.jpg","37","1","703"
"1","1","retrieval","new_objects","44","MilkJug.jpg","36","0","1023"
"1","1","retrieval","old_objects","45","Toy_Alien.jpg","37","0","688"
"1","1","retrieval","new_objects","46","HandMixer.jpg","37","1","1082"
"1","1","retrieval","old_objects","47","Pretzel_Sticks.jpg","36","1","631"
"1","1","retrieval","new_objects","48","Iguana.jpg","36","0","776"
"1","1","retrieval","new_objects","49","ToothBrush.jpg","37","1","689"
"1","1","retrieval","old_objects","50","Camera_Digital.jpg","37","0","983"
"1","1","retrieval","old_objects","51","GrillRack.jpg","36","1","1548"
"1","1","retrieval","new_objects","52","Ginger.jpg","36","0","1380"
"1","1","retrieval","new_objects","53","BicycleBrake.jpg","37","1","1144"
"1","1","retrieval","old_objects","54","ShearsGarden.jpg","36","1","1401"
"1","1","retrieval","old_objects","55","BoxTrailer.jpg","36","1","905"
"1","1","retrieval","old_objects","56","Pig.jpg","36","1","1835"
"1","1","retrieval","old_objects","57","Harmonica.jpg","36","1","1297"
"1","1","retrieval","new_objects","58","PagodaModel.jpg","37","1","597"
"1","1","retrieval","old_objects","59","Clock_Radioalarm.jpg","37","0","998"
"1","1","retrieval","new_objects","60","CompassCardinal.jpg","37","1","692"
"1","1","retrieval","old_objects","62","Toy_Motorcycle.jpg","37","0","582"
"1","1","retrieval","new_objects","63","Light_Studio.jpg","37","1","780"
"1","1","retrieval","new_objects","64","Toy_Helicopter.jpg","37","1","768"
"1","1","retrieval","old_objects","65","Toy_SandRake.jpg","36","1","638"
"1","1","retrieval","new_objects","66","KitchenTools.jpg","37","1","677"
"1","1","retrieval","new_objects","67","Binoculars.jpg","37","1","660"
"1","1","retrieval","old_objects","68","RiceCooker.jpg","37","0","733"
"1","1","retrieval","old_objects","69","Kettle.jpg","36","1","610"
"1","1","retrieval","new_objects","70","WorldMap.jpg","37","1","645"
"1","1","retrieval","new_objects","71","AngleGrinder.jpg","37","1","593"
"1","1","retrieval","new_objects","72","Jars_PetFood.jpg","37","1","671"
"1","1","retrieval","new_objects","73","Bowl_Wooden.jpg","37","1","507"
"1","1","retrieval","new_objects","74","RollingPin.jpg","36","0","797"
"1","1","retrieval","new_objects","75","ScaleWeighing.jpg","37","1","623"
"1","1","retrieval","old_objects","76","Brush_BathBack.jpg","36","1","886"
"1","1","retrieval","new_objects","77","Garbage_GreenBin.jpg","37","1","743"
"1","1","retrieval","old_objects","78","Bottle_Plastic.jpg","37","0","646"
"1","1","retrieval","new_objects","79","Candy_Cane.jpg","37","1","617"
"1","1","retrieval","new_objects","80","Battery_AA.jpg","37","1","706"
"1","1","retrieval","new_objects","81","DoorHandle.jpg","37","1","484"
"1","1","retrieval","new_objects","82","Shoes_Pumps.jpg","37","1","487"
"1","1","retrieval","old_objects","83","Popcorn.jpg","36","1","1057"
"1","1","retrieval","old_objects","84","Iron_Antique.jpg","37","0","729"
"1","1","retrieval","old_objects","85","Peppermill.jpg","37","0","1242"
"1","1","retrieval","old_objects","86","Cauliflower.jpg","36","1","1108"
"1","1","retrieval","new_objects","87","NailClipper.jpg","37","1","720"
"1","1","retrieval","new_objects","88","OrangeBlood.jpg","37","1","644"
"1","1","retrieval","new_objects","89","Plunger.jpg","37","1","701"
"1","1","retrieval","new_objects","90","Bag_Saline.jpg","37","1","860"
"1","1","retrieval","new_objects","91","Purse.jpg","37","1","1043"
"1","1","retrieval","old_objects","92","Toy_Truck.jpg","36","1","913"
"1","1","retrieval","new_objects","93","Pasta_Fettuccine.jpg","36","0","778"
"1","1","retrieval","old_objects","94","Crate_Wine.jpg","37","0","785"
"1","1","retrieval","old_objects","95","Dice.jpg","36","1","646"
"1","1","retrieval","new_objects","96","Clamp.jpg","37","1","799"
"1","1","retrieval","old_objects","97","RemoteControl.jpg","36","1","701"
"1","1","retrieval","new_objects","98","Jar_Cookie.jpg","37","1","790"
"1","1","retrieval","old_objects","99","RickShaw.jpg","36","1","774"
"1","1","retrieval","new_objects","100","Candy_Heart.jpg","37","1","919"
"1","1","retrieval","new_objects","101","Mask_Gas.jpg","37","1","835"
"1","1","retrieval","old_objects","102","Skates.jpg","36","1","638"
"1","1","retrieval","new_objects","103","Guitarcase.jpg","37","1","717"
"1","1","retrieval","new_objects","104","Mask_CPR.jpg","37","1","912"
"1","1","retrieval","new_objects","105","Ambulance.jpg","37","1","729"
"1","1","retrieval","new_objects","106","Tie.jpg","37","1","688"
"1","1","retrieval","new_objects","107","Sandwich_Egg.jpg","37","1","710"
"1","1","retrieval","old_objects","108","Dresser_1.jpg","37","0","977"
"1","1","retrieval","old_objects","109","AllTerrain.jpg","36","1","1057"
"1","1","retrieval","new_objects","110","Cup_Bathroom.jpg","36","0","1208"
"1","1","retrieval","new_objects","111","Taco.jpg","37","1","700"
"1","1","retrieval","old_objects","112","Celery.jpg","36","1","867"
"1","1","retrieval","old_objects","113","GuineaPig.jpg","36","1","765"
"1","1","retrieval","new_objects","114","VialLab.jpg","37","1","626"
"1","1","retrieval","old_objects","115","Heater_ElectricUpright.jpg","36","1","866"
"1","1","retrieval","new_objects","116","MagazineRoll.jpg","37","1","689"
"1","1","retrieval","old_objects","117","Bucket_Ice.jpg","36","1","1178"
"1","1","retrieval","old_objects","118","Inukshuk.jpg","36","1","857"
"1","1","retrieval","new_objects","119","CarSuspension.jpg","37","1","848"
"1","1","retrieval","old_objects","120","BusStop.jpg","36","1","841"
"1","1","retrieval","old_objects","121","Photocopier.jpg","36","1","778"
"1","1","retrieval","new_objects","123","Glass_Wine.jpg","37","1","698"
"1","1","retrieval","old_objects","124","Cart_Wooden.jpg","37","0","1003"
"1","1","retrieval","new_objects","125","SpaceRover.jpg","37","1","789"
"1","1","retrieval","old_objects","126","Book_Paper.jpg","37","0","650"
"1","1","retrieval","new_objects","127","Helmet_Motorcycle.jpg","37","1","767"
"1","1","retrieval","old_objects","128","Lighter_Black.jpg","36","1","831"
"1","1","retrieval","new_objects","129","Headphones.jpg","36","0","734"
"1","1","retrieval","old_objects","130","Basket_Straw.jpg","36","1","681"
"1","1","retrieval","new_objects","131","Cheeseburger.jpg","37","1","749"
"1","1","retrieval","old_objects","132","Stone_Mill.jpg","37","0","863"
"1","1","retrieval","old_objects","133","Syringe_Blunt.jpg","36","1","894"
"1","1","retrieval","new_objects","134","Loveseat.jpg","37","1","682"
"1","1","retrieval","new_objects","135","AmpMeter.jpg","37","1","585"
"1","1","retrieval","old_objects","136","BadgeSpecialAgent.jpg","36","1","659"
"1","1","retrieval","old_objects","137","Bag_Diaper.jpg","36","1","714"
"1","1","retrieval","new_objects","138","Button.jpg","37","1","668"
"1","1","retrieval","old_objects","139","PaintRoller.jpg","37","0","757"
"1","1","retrieval","old_objects","140","Thumbtack.jpg","36","1","818"
"1","1","retrieval","old_objects","141","TailLight.jpg","36","1","924"
"1","1","retrieval","new_objects","142","DartBoard.jpg","37","1","631"
"1","1","retrieval","new_objects","143","LaundryHamper.jpg","37","1","742"
"1","1","retrieval","old_objects","144","StampAndSeal.jpg","37","0","684"
"1","1","retrieval","old_objects","145","Ball_Squashball.jpg","36","1","785"
"1","1","retrieval","old_objects","146","Bucket_Rusty.jpg","37","0","875"
"1","1","retrieval","old_objects","147","Table_Magazine.jpg","36","1","1488"
"1","1","retrieval","new_objects","148","Mug_Ceramic.jpg","37","1","1225"
"1","1","retrieval","old_objects","149","Bowl_Flour.jpg","37","0","615"
"1","1","retrieval","new_objects","150","ToothPaste.jpg","37","1","601"
"1","1","retrieval","new_objects","151","Snowboard.jpg","37","1","767"
"1","1","retrieval","old_objects","152","BicycleWheel.jpg","36","1","926"
"1","1","retrieval","new_objects","153","MobilityScooter.jpg","36","0","801"
"1","1","retrieval","new_objects","154","Truck_VintageBlue.jpg","36","0","999"
"1","1","retrieval","new_objects","155","Flower_Crane.jpg","37","1","609"
"1","1","retrieval","old_objects","156","DVDPlayer.jpg","36","1","708"
"1","1","retrieval","new_objects","157","Cast.jpg","37","1","914"
"1","1","retrieval","old_objects","158","WashRack.jpg","36","1","602"
"1","1","retrieval","old_objects","159","Kebab_Vegetables.jpg","36","1","812"
"1","1","retrieval","old_objects","160","FireExtinguisher.jpg","36","1","726"
"1","1","retrieval","new_objects","161","CoffeePot.jpg","36","0","876"
"1","1","retrieval","new_objects","162","ShotGlassTray.jpg","37","1","692"
"1","1","retrieval","old_objects","163","Origami_Ox.jpg","36","1","834"
"1","1","retrieval","new_objects","164","FoodMill.jpg","37","1","822"
"1","1","retrieval","old_objects","165","PoliceTape.jpg","36","1","719"
"1","1","retrieval","new_objects","166","MeatGrinder.jpg","37","1","690"
"1","1","retrieval","old_objects","167","BinRecycling.jpg","0","0","2000"
"1","1","retrieval","new_objects","168","Giraffe.jpg","36","0","718"
"1","1","retrieval","old_objects","169","Container_Tupperware.jpg","37","0","853"
"1","1","retrieval","old_objects","170","Fossil.jpg","36","1","653"
"1","1","retrieval","new_objects","171","Goat.jpg","37","1","892"
"1","1","retrieval","new_objects","172","Jacket_Jean.jpg","37","1","727"
"1","1","retrieval","old_objects","173","Wheel_Steering.jpg","36","1","774"
"1","1","retrieval","old_objects","174","Flowers_DryBouquet.jpg","37","0","506"
"1","1","retrieval","new_objects","175","Dog_SaintBernard.jpg","37","1","1003"
"1","1","retrieval","old_objects","176","Case_Pencil.jpg","37","0","730"
"1","1","retrieval","new_objects","177","Toy_Turtle.jpg","37","1","765"
"1","1","retrieval","old_objects","178","ControlPanel.jpg","36","1","1065"
"1","1","retrieval","new_objects","179","Sign_SpeedLimit25.jpg","37","1","759"
"1","1","retrieval","new_objects","180","Fruit_Orange.jpg","37","1","655"
"1","1","retrieval","new_objects","181","Brace_Back.jpg","37","1","704"
"1","1","retrieval","old_objects","182","Sign_Wetfloor.jpg","36","1","704"
"1","1","retrieval","old_objects","184","Shorts_Sports.jpg","37","0","590"
"1","1","retrieval","old_objects","185","Pot_CastIron.jpg","37","0","1177"
"1","1","retrieval","new_objects","186","Fruit_Carambola.jpg","37","1","566"
"1","1","retrieval","old_objects","187","Truck_Box.jpg","36","1","686"
"1","1","retrieval","old_objects","188","Ring_Plain.jpg","36","1","722"
"1","1","retrieval","new_objects","189","Coin.jpg","37","1","655"
"1","1","retrieval","new_objects","190","Bat_Baseball.jpg","36","0","1041"
"1","1","retrieval","new_objects","191","Car_Ferrari.jpg","37","1","738"
"1","1","retrieval","old_objects","192","Car_Totalled.jpg","36","1","998"
"1","1","retrieval","new_objects","193","WalkieTalkie_Red.jpg","37","1","638"
"1","1","retrieval","new_objects","194","Milkshake_Chocolate.jpg","36","0","920"
"1","1","retrieval","old_objects","195","Butterfly.jpg","36","1","867"
"1","1","retrieval","old_objects","196","Mat_Bamboo.jpg","37","0","679"
"1","1","retrieval","old_objects","197","Spoon_Baby.jpg","37","0","1071"
"1","1","retrieval","old_objects","198","Crown.jpg","36","1","654"
"1","1","retrieval","old_objects","199","Wreath.jpg","36","1","688"
"1","1","retrieval","old_objects","200","MeasuringTape.jpg","36","1","840"
"1","1","retrieval","new_objects","201","SetSquare.jpg","37","1","840"
"1","1","retrieval","new_objects","202","Van.jpg","37","1","690"
"1","1","retrieval","new_objects","203","Shoe_Men.jpg","37","1","649"
"1","1","retrieval","old_objects","204","Toy_RaceTrack.jpg","37","0","688"
"1","1","retrieval","new_objects","205","Handbag.jpg","37","1","710"
"1","1","retrieval","new_objects","206","WireStripper.jpg","37","1","1361"
"1","1","retrieval","old_objects","207","Hottub.jpg","36","1","763"
"1","1","retrieval","old_objects","208","TelephoneJack.jpg","37","0","952"
"1","1","retrieval","new_objects","209","Bindings_Snowboard.jpg","37","1","675"
"1","1","retrieval","old_objects","210","Compressor.jpg","36","1","1066"
"1","1","retrieval","new_objects","211","Heater_Infrared.jpg","37","1","701"
"1","1","retrieval","old_objects","212","Heelpad.jpg","36","1","1189"
"1","1","retrieval","new_objects","213","Exercise_Stepper.jpg","37","1","696"
"1","1","retrieval","new_objects","214","Golf_Bag.jpg","37","1","763"
"1","1","retrieval","old_objects","215","ProcessorFood_Modern.jpg","36","1","854"
"1","1","retrieval","old_objects","216","SlideViewer.jpg","37","0","666"
"1","1","retrieval","old_objects","217","Beater_Electric.jpg","37","0","984"
"1","1","retrieval","new_objects","218","Chair_BeanBag.jpg","36","0","869"
"1","1","retrieval","old_objects","219","Cake_Birthday.jpg","36","1","718"
"1","1","retrieval","new_objects","220","Jar_Canopic.jpg","37","1","947"
"1","1","retrieval","old_objects","221","Neckrest.jpg","36","1","851"
"1","1","retrieval","old_objects","222","DogToy.jpg","37","0","788"
"1","1","retrieval","old_objects","223","Toy_DogBall.jpg","37","0","859"
"1","1","retrieval","new_objects","224","Pants.jpg","37","1","1521"
"1","1","retrieval","old_objects","225","Pasta_Spaghetti.jpg","36","1","816"
"1","1","retrieval","new_objects","226","Bottle_BubbleBlower.jpg","37","1","748"
"1","1","retrieval","old_objects","227","AnsweringMachine.jpg","36","1","819"
"1","1","retrieval","old_objects","228","Pickaxe.jpg","36","1","872"
"1","1","retrieval","old_objects","229","Leg.jpg","37","0","1388"
"1","1","retrieval","new_objects","230","Guitar_Electric.jpg","37","1","689"
"1","1","retrieval","old_objects","231","Card_QueenSpade.jpg","36","1","1224"
"1","1","retrieval","old_objects","232","Toy_Slide.jpg","36","1","767"
"1","1","retrieval","new_objects","233","Glasses_Reading.jpg","37","1","655"
"1","1","retrieval","new_objects","234","IceScraper.jpg","37","1","744"
"1","1","retrieval","old_objects","235","Bag_Hand.jpg","36","1","885"
"1","1","retrieval","new_objects","236","Ball_Disco.jpg","37","1","574"
"1","1","retrieval","new_objects","237","Carousel copy.jpg","37","1","563"
"1","1","retrieval","old_objects","238","PyramidWooden.jpg","37","0","650"
"1","1","retrieval","new_objects","239","Joystick.jpg","37","1","905"
"1","1","retrieval","old_objects","240","Toy_DinosaurTRex.jpg","36","1","750"
"1","1","retrieval","new_objects","241","Sign_SpeedLimit30.jpg","36","0","1144"
"1","1","retrieval","new_objects","242","Brooch_Fish.jpg","37","1","488"
"1","1","retrieval","old_objects","243","Machine_EKG.jpg","36","1","1237"
"1","1","retrieval","old_objects","245","AlarmSystem.jpg","37","0","1780"
"1","1","retrieval","old_objects","246","Drum_Brazilan.jpg","37","0","631"
"1","1","retrieval","old_objects","247","Bed_QueenSize.jpg","37","0","706"
"1","1","retrieval","new_objects","248","Baster.jpg","36","0","1694"
"1","1","retrieval","old_objects","249","IceCream_Chocolate.jpg","37","0","887"
"1","1","retrieval","new_objects","250","Table_Picnic.jpg","36","0","874"
"1","1","retrieval","new_objects","251","DogLeash.jpg","37","1","804"
"1","1","retrieval","new_objects","252","Hook_Fishing.jpg","37","1","1042"
"1","1","retrieval","old_objects","253","Hangar.jpg","36","1","837"
"1","1","retrieval","new_objects","254","MousepadAndMouse.jpg","37","1","670"
"1","1","retrieval","new_objects","255","TeethModel.jpg","37","1","623"
"1","1","retrieval","new_objects","256","Sock_Ankle.jpg","37","1","727"
"1","1","retrieval","old_objects","257","Case_DVD.jpg","37","0","635"
"1","1","retrieval","old_objects","258","Phone_Military.jpg","37","0","932"
"1","1","retrieval","new_objects","259","PedestalGreek.jpg","37","1","827"
"1","1","retrieval","new_objects","260","PuppetTheatre_BlueRed.jpg","37","1","629"
"1","1","retrieval","old_objects","261","Shoes_Snow.jpg","36","1","910"
"1","1","retrieval","old_objects","262","Car_Vintage.jpg","37","0","1992"
"1","1","retrieval","old_objects","263","Statue_SouthAmerican.jpg","36","1","755"
"1","1","retrieval","new_objects","264","Pliers_NeedleNose.jpg","36","0","677"
"1","1","retrieval","old_objects","265","ChewingGum.jpg","36","1","645"
"1","1","retrieval","new_objects","266","LetterMail.jpg","37","1","642"
"1","1","retrieval","new_objects","267","Tape_Clear.jpg","37","1","890"
"1","1","retrieval","new_objects","268","Hook_Double.jpg","37","1","714"
"1","1","retrieval","old_objects","269","Bleachers.jpg","36","1","661"
"1","1","retrieval","old_objects","270","Brace_Leg.jpg","37","0","820"
"1","1","retrieval","new_objects","271","Jug_GallonRed.jpg","37","1","715"
"1","1","retrieval","new_objects","272","Film_Roll.jpg","37","1","1157"
"1","1","retrieval","old_objects","273","ColumnMarble.jpg","37","0","737"
"1","1","retrieval","new_objects","274","Candleholder_Tall.jpg","36","0","1042"
"1","1","retrieval","new_objects","275","Scrabble.jpg","37","1","596"
"1","1","retrieval","old_objects","276","BicycleGear.jpg","36","1","742"
"1","1","retrieval","new_objects","277","WindowBlinds.jpg","37","1","1336"
"1","1","retrieval","new_objects","278","Trash_Medical.jpg","37","1","551"
"1","1","retrieval","new_objects","279","Stroller.jpg","37","1","651"
"1","1","retrieval","old_objects","280","WatermelonSlice.jpg","36","1","639"
"1","1","retrieval","new_objects","281","Toy_SeeSaw.jpg","37","1","940"
"1","1","retrieval","new_objects","282","ComputerKey_Escape.jpg","37","1","593"
"1","1","retrieval","new_objects","283","Zucchini.jpg","37","1","1042"
"1","1","retrieval","new_objects","284","CheeseSlicer.jpg","37","1","506"
"1","1","retrieval","new_objects","285","SpiderWeb.jpg","37","1","476"
"1","1","retrieval","new_objects","286","Cactus.jpg","37","1","144"
"1","1","retrieval","old_objects","287","Table_PingPong.jpg","36","1","801"
"1","1","retrieval","new_objects","288","Lemon.jpg","37","1","743"
"1","1","retrieval","new_objects","289","Basket_Bread.jpg","37","1","726"
"1","1","retrieval","new_objects","290","BearPolar.jpg","37","1","696"
"1","1","retrieval","new_objects","291","BasketballHoop.jpg","37","1","639"
"1","1","retrieval","old_objects","292","Scissors.jpg","36","1","900"
"1","1","retrieval","old_objects","293","Pickle.jpg","36","1","856"
"1","1","retrieval","new_objects","294","Seashell_AlternateTellin.jpg","37","1","669"
"1","1","retrieval","new_objects","295","Bolt.jpg","37","1","835"
"1","1","retrieval","old_objects","296","Scoop_Flour.jpg","37","0","568"
"1","1","retrieval","old_objects","297","Ladybug.jpg","36","1","1134"
"1","1","retrieval","old_objects","298","TotemPole.jpg","37","0","467"
"1","1","retrieval","new_objects","299","Barometer.jpg","37","1","609"
"1","1","retrieval","old_objects","300","PaintBrushAndPallette.jpg","37","0","509"
"1","1","retrieval","old_objects","301","Cord_usb.jpg","36","1","1254"
"1","1","retrieval","old_objects","302","Toy_Car.jpg","36","1","801"
"1","1","retrieval","new_objects","303","Radio_Antique.jpg","37","1","599"
"1","1","retrieval","old_objects","304","Bicycle_Kids.jpg","36","1","779"
"1","1","retrieval","new_objects","306","Paddle_PingPong.jpg","37","1","1373"
"1","1","retrieval","new_objects","307","Boar.jpg","37","1","908"
"1","1","retrieval","new_objects","308","Saw.jpg","36","0","1258"
"1","1","retrieval","new_objects","309","Hulahoop.jpg","37","1","656"
"1","1","retrieval","old_objects","310","Light_Fixtures.jpg","37","0","596"
"1","1","retrieval","old_objects","311","Toy_FigurineEngineer.jpg","37","0","579"
"1","1","retrieval","old_objects","312","Booties_Blue.jpg","37","0","570"
"1","1","retrieval","old_objects","313","ChocolateBar_Unwrapped.jpg","36","1","575"
"1","1","retrieval","new_objects","314","Amp.jpg","37","1","939"
"1","1","retrieval","new_objects","315","Microphone.jpg","37","1","664"
"1","1","retrieval","old_objects","316","Missile.jpg","36","1","825"
"1","1","retrieval","new_objects","317","Bamboo.jpg","37","1","664"
"1","1","retrieval","old_objects","318","Chair_Office.jpg","36","1","753"
"1","1","retrieval","old_objects","319","Broom_Long.jpg","36","1","614"
"1","1","retrieval","old_objects","320","Suitcase.jpg","36","1","864"
"1","1","retrieval","new_objects","321","Pipe.jpg","37","1","557"
"1","1","retrieval","old_objects","322","Television.jpg","36","1","701"
"1","1","retrieval","new_objects","323","ReindeerHeadband.jpg","37","1","490"
"1","1","retrieval","old_objects","324","SoundMixer_White.jpg","37","0","566"
"1","1","retrieval","new_objects","325","Gorilla.jpg","37","1","970"
"1","1","retrieval","old_objects","326","Condom.jpg","36","1","741"
"1","1","retrieval","new_objects","327","Crackers_Ritz.jpg","37","1","643"
"1","1","retrieval","new_objects","328","Lettuce_Iceberg.jpg","37","1","1232"
"1","1","retrieval","old_objects","329","Bird_Peacock.jpg","36","1","720"
"1","1","retrieval","old_objects","330","Headset.jpg","36","1","766"
"1","1","retrieval","old_objects","331","Mirror_Carside.jpg","36","1","791"
"1","1","retrieval","new_objects","332","PaperTowel_Kitchen.jpg","37","1","580"
"1","1","retrieval","old_objects","333","SewingMachine.jpg","37","0","900"
"1","1","retrieval","old_objects","334","BakingDish.jpg","37","0","634"
"1","1","retrieval","old_objects","335","Peeler.jpg","37","0","813"
"1","1","retrieval","old_objects","336","Chicken_Dinner.jpg","36","1","791"
"1","1","retrieval","old_objects","337","Bread_Melon.jpg","36","1","1266"
"1","1","retrieval","old_objects","338","Hazelnut.jpg","37","0","557"
"1","1","retrieval","old_objects","339","CigarCutter.jpg","37","0","663"
"1","1","retrieval","old_objects","340","LitterScoop.jpg","37","0","1004"
"1","1","retrieval","old_objects","341","Flower_Hibiscus.jpg","37","0","838"
"1","1","retrieval","new_objects","342","Box_Floral.jpg","37","1","806"
"1","1","retrieval","old_objects","343","Lobster.jpg","36","1","1265"
"1","1","retrieval","old_objects","344","Arm.jpg","36","1","1229"
"1","1","retrieval","new_objects","345","Apple_RedAndGreen.jpg","37","1","1403"
"1","1","retrieval","old_objects","346","HorseshoeCrab.jpg","37","0","561"
"1","1","retrieval","new_objects","347","RollerCoaster.jpg","37","1","562"
"1","1","retrieval","old_objects","348","Sheep.jpg","37","0","736"
"1","1","retrieval","new_objects","349","Binder.jpg","37","1","628"
"1","1","retrieval","new_objects","350","DormerWindow.jpg","37","1","553"
"1","1","retrieval","new_objects","351","Tractor_Orange.jpg","37","1","841"
"1","1","retrieval","old_objects","352","Hedgehog.jpg","36","1","1025"
"1","1","retrieval","new_objects","353","Arch_Triomphe.jpg","37","1","882"
"1","1","retrieval","old_objects","354","ElectricSwitchboard.jpg","37","0","703"
"1","1","retrieval","new_objects","355","CrepeMaker.jpg","37","1","616"
"1","1","demographics_block","gender","1","CrepeMaker.jpg","Female","1","11453"
"1","1","demographics_block","age","1","CrepeMaker.jpg","33","1","11453"
"1","1","demographics_block","education","1","CrepeMaker.jpg","14","1","11453"
"1","1","demographics_block","left_right_handed","2","CrepeMaker.jpg","Left","1","5594"
"1","1","demographics_block","raceoption1","2","CrepeMaker.jpg","","1","5594"
"1","1","demographics_block","raceoption2","2","CrepeMaker.jpg","","1","5594"
"1","1","demographics_block","raceoption3","2","CrepeMaker.jpg","","1","5594"
"1","1","demographics_block","raceoption4","2","CrepeMaker.jpg","3","1","5594"
"1","1","demographics_block","raceoption5","2","CrepeMaker.jpg","","1","5594"
"1","1","demographics_block","raceoption6","2","CrepeMaker.jpg","","1","5594"
"1","1","demographics_block","raceoption7","2","CrepeMaker.jpg","","1","5594"
"1","1","demographics_block","raceoption8","2","CrepeMaker.jpg","","1","5594"
"1","1","demographics_block","raceoption9","2","CrepeMaker.jpg","","1","5594"
"1","1","demographics_block","raceother","2","CrepeMaker.jpg","","1","5594"
"1","1","demographics_block","raceother","2","CrepeMaker.jpg","","1","5594"
"1","1","demographics_block","english_language","2","CrepeMaker.jpg","Yes","1","5594"
"1","1","demographics_block","english_languageother","2","CrepeMaker.jpg","","1","5594"
"1","1","demographics_block","eyesight","3","CrepeMaker.jpg","Yes","1","5060"
"1","1","demographics_block","colorblind","3","CrepeMaker.jpg","No","1","5060"
"1","1","worker_id_block","worker_id_textbox","1","CrepeMaker.jpg","AAHZCL4LIPCBQ","1","9496"
"4","4","encoding","encoding","1","Bird_Peacock.jpg","37","0","733"
"4","4","encoding","encoding","2","Gun_Nerf.jpg","36","0","1156"
"4","4","encoding","encoding","3","Syringe_Blunt.jpg","36","0","1043"
"4","4","encoding","encoding","4","Book_Paper.jpg","36","0","1057"
"4","4","encoding","encoding","5","Cauliflower.jpg","36","0","895"
"4","4","encoding","encoding","6","Suitcase.jpg","36","0","686"
"4","4","encoding","encoding","7","BicyclePedal.jpg","37","0","1004"
"4","4","encoding","encoding","8","Bucket_Ice.jpg","36","0","899"
"4","4","encoding","encoding","9","Crate_Wine.jpg","36","0","745"
"4","4","encoding","encoding","10","Lobster.jpg","36","0","744"
"4","4","encoding","encoding","11","ElectricSwitchboard.jpg","36","0","1134"
"4","4","encoding","encoding","12","Pasta_Spaghetti.jpg","36","0","821"
"4","4","encoding","encoding","13","Handcuffs.jpg","37","0","1537"
"4","4","encoding","encoding","14","Chicken_Dinner.jpg","36","0","1226"
"4","4","encoding","encoding","15","ChewingGum.jpg","36","0","872"
"4","4","encoding","encoding","16","Pickaxe.jpg","37","0","1071"
"4","4","encoding","encoding","17","FireExtinguisher.jpg","36","0","989"
"4","4","encoding","encoding","18","Popcorn.jpg","36","0","996"
"4","4","encoding","encoding","19","Toy_DogBall.jpg","37","0","970"
"4","4","encoding","encoding","20","Hazelnut.jpg","37","0","1169"
"4","4","encoding","encoding","21","Peppermill.jpg","36","0","792"
"4","4","encoding","encoding","22","ProcessorFood_Old.jpg","36","0","910"
"4","4","encoding","encoding","23","ShearsGarden.jpg","37","0","1077"
"4","4","encoding","encoding","24","Bucket_Rusty.jpg","37","0","1179"
"4","4","encoding","encoding","25","Bowl_Flour.jpg","36","0","826"
"4","4","encoding","encoding","26","PyramidWooden.jpg","36","0","1128"
"4","4","encoding","encoding","27","Car_Vintage.jpg","37","0","598"
"4","4","encoding","encoding","28","Leaf_Clover.jpg","37","0","781"
"4","4","encoding","encoding","29","BakingDish.jpg","36","0","1052"
"4","4","encoding","encoding","30","Toy_DinosaurTRex.jpg","36","0","778"
"4","4","encoding","encoding","31","LitterScoop.jpg","36","0","889"
"4","4","encoding","encoding","32","HorseshoeCrab.jpg","37","0","927"
"4","4","encoding","encoding","33","Drum_Brazilan.jpg","36","0","1398"
"4","4","encoding","encoding","34","Booties_Blue.jpg","36","0","636"
"4","4","encoding","encoding","35","Table_PingPong.jpg","36","0","1531"
"4","4","encoding","encoding","36","Dice.jpg","36","0","793"
"4","4","encoding","encoding","37","Toy_SandRake.jpg","37","0","1008"
"4","4","encoding","encoding","38","Makeup_Eyeshadow.jpg","36","0","726"
"4","4","encoding","encoding","39","StampAndSeal.jpg","36","0","1124"
"4","4","encoding","encoding","40","Ladybug.jpg","37","0","971"
"4","4","encoding","encoding","41","Cake_Birthday.jpg","36","0","962"
"4","4","encoding","encoding","42","Bench_Park.jpg","37","0","1024"
"4","4","encoding","encoding","43","Sheep.jpg","37","0","1279"
"4","4","encoding","encoding","44","DogToy.jpg","37","0","997"
"4","4","encoding","encoding","45","Photocopier.jpg","37","0","1651"
"4","4","encoding","encoding","46","BadgeSpecialAgent.jpg","37","0","1195"
"4","4","encoding","encoding","47","Missile.jpg","37","0","1145"
"4","4","encoding","encoding","48","CigarCutter.jpg","37","0","1503"
"4","4","encoding","encoding","49","Toy_Alien.jpg","36","0","1486"
"4","4","encoding","encoding","50","Heater_ElectricUpright.jpg","36","0","892"
"4","4","encoding","encoding","51","WatermelonSlice.jpg","36","0","1059"
"4","4","encoding","encoding","52","Shoes_Snow.jpg","37","0","1042"
"4","4","encoding","encoding","53","Toy_Car.jpg","36","0","856"
"4","4","encoding","encoding","54","Whip.jpg","36","0","1166"
"4","4","encoding","encoding","55","NintendoWii.jpg","36","0","837"
"4","4","encoding","encoding","56","Shorts_Sports.jpg","36","0","1171"
"4","4","encoding","encoding","57","Bread_Melon.jpg","36","0","1018"
"4","4","encoding","encoding","58","Butterfly.jpg","37","0","992"
"4","4","encoding","encoding","59","Crown.jpg","36","0","815"
"4","4","encoding","encoding","60","Ball_Squashball.jpg","37","0","1182"
"4","4","encoding","encoding","62","BoxTrailer.jpg","37","0","804"
"4","4","encoding","encoding","63","MeasuringTape.jpg","36","0","1946"
"4","4","encoding","encoding","64","Cord_usb.jpg","36","0","1128"
"4","4","encoding","encoding","65","Wreath.jpg","37","0","1111"
"4","4","encoding","encoding","66","Dresser_1.jpg","36","0","965"
"4","4","encoding","encoding","67","BusStop.jpg","37","0","948"
"4","4","encoding","encoding","68","WashRack.jpg","36","0","811"
"4","4","encoding","encoding","69","Case_DVD.jpg","36","0","785"
"4","4","encoding","encoding","70","Brace_Leg.jpg","36","0","863"
"4","4","encoding","encoding","71","Kebab_Vegetables.jpg","36","0","1430"
"4","4","encoding","encoding","72","Toy_Motorcycle.jpg","36","0","789"
"4","4","encoding","encoding","73","Donut.jpg","36","0","763"
"4","4","encoding","encoding","74","BicycleGear.jpg","36","0","1786"
"4","4","encoding","encoding","75","Bird_Cardinal.jpg","37","0","712"
"4","4","encoding","encoding","76","Television.jpg","36","0","774"
"4","4","encoding","encoding","77","Thumbtack.jpg","36","0","693"
"4","4","encoding","encoding","78","Bed_QueenSize.jpg","36","0","1220"
"4","4","encoding","encoding","79","Heelpad.jpg","36","0","1298"
"4","4","encoding","encoding","80","Fossil.jpg","37","0","1017"
"4","4","encoding","encoding","81","Bicycle_Kids.jpg","37","0","1351"
"4","4","encoding","encoding","82","RiceCooker.jpg","36","0","1453"
"4","4","encoding","encoding","83","Clock_Radioalarm.jpg","36","0","1660"
"4","4","encoding","encoding","84","Lips_Wax.jpg","36","0","1283"
"4","4","encoding","encoding","85","Flowers_DryBouquet.jpg","36","0","865"
"4","4","encoding","encoding","86","SewingMachine.jpg","36","0","712"
"4","4","encoding","encoding","87","Harmonica.jpg","36","0","1134"
"4","4","encoding","encoding","88","Case_Pencil.jpg","36","0","1396"
"4","4","encoding","encoding","89","TotemPole.jpg","37","0","771"
"4","4","encoding","encoding","90","Machine_EKG.jpg","36","0","898"
"4","4","encoding","encoding","91","ChocolateBar_Unwrapped.jpg","36","0","784"
"4","4","encoding","encoding","92","GrillRack.jpg","36","0","1055"
"4","4","encoding","encoding","93","Mirror_Carside.jpg","37","0","1189"
"4","4","encoding","encoding","94","Basket_Straw.jpg","37","0","1371"
"4","4","encoding","encoding","95","Compressor.jpg","37","0","810"
"4","4","encoding","encoding","96","Bleachers.jpg","37","0","905"
"4","4","encoding","encoding","97","ControlPanel.jpg","37","0","776"
"4","4","encoding","encoding","98","Pot_CastIron.jpg","36","0","646"
"4","4","encoding","encoding","99","Toy_RaceTrack.jpg","36","0","892"
"4","4","encoding","encoding","100","IceCream_Chocolate.jpg","36","0","707"
"4","4","encoding","encoding","101","Origami_Ox.jpg","36","0","897"
"4","4","encoding","encoding","102","BinRecycling.jpg","37","0","1016"
"4","4","encoding","encoding","103","SafetyPin.jpg","36","0","1206"
"4","4","encoding","encoding","104","Card_QueenSpade.jpg","36","0","1117"
"4","4","encoding","encoding","105","AnsweringMachine.jpg","36","0","1372"
"4","4","encoding","encoding","106","Hottub.jpg","37","0","746"
"4","4","encoding","encoding","107","Stone_Mill.jpg","37","0","1289"
"4","4","encoding","encoding","108","Wheel_Steering.jpg","36","0","1287"
"4","4","encoding","encoding","109","Pretzel_Sticks.jpg","36","0","782"
"4","4","encoding","encoding","110","Camera_Digital.jpg","36","0","876"
"4","4","encoding","encoding","111","Bottle_Plastic.jpg","36","0","891"
"4","4","encoding","encoding","112","BicycleWheel.jpg","37","0","833"
"4","4","encoding","encoding","113","Bag_Diaper.jpg","36","0","871"
"4","4","encoding","encoding","114","Toy_Truck.jpg","36","0","790"
"4","4","encoding","encoding","115","Scoop_Flour.jpg","36","0","1629"
"4","4","encoding","encoding","116","Scissors.jpg","36","0","699"
"4","4","encoding","encoding","117","Container_Tupperware.jpg","36","0","714"
"4","4","encoding","encoding","118","Skates.jpg","37","0","832"
"4","4","encoding","encoding","119","Hangar.jpg","37","0","895"
"4","4","encoding","encoding","120","RickShaw.jpg","37","0","957"
"4","4","encoding","encoding","121","Toy_Moose.jpg","36","0","804"
"4","4","encoding","encoding","123","Table_Magazine.jpg","36","0","1536"
"4","4","encoding","encoding","124","Mat_Bamboo.jpg","36","0","847"
"4","4","encoding","encoding","125","Brush_BathBack.jpg","36","0","661"
"4","4","encoding","encoding","126","Toy_FigurineEngineer.jpg","36","0","732"
"4","4","encoding","encoding","127","HairCurler.jpg","36","0","1082"
"4","4","encoding","encoding","128","PaintRoller.jpg","36","0","1376"
"4","4","encoding","encoding","129","Arm.jpg","36","0","1111"
"4","4","encoding","encoding","130","SlideViewer.jpg","37","0","1270"
"4","4","encoding","encoding","131","Iron_Antique.jpg","36","0","940"
"4","4","encoding","encoding","132","Beater_Electric.jpg","36","0","819"
"4","4","encoding","encoding","133","AlarmSystem.jpg","0","0","2000"
"4","4","encoding","encoding","134","VacuumHead.jpg","36","0","1968"
"4","4","encoding","encoding","135","Inukshuk.jpg","37","0","710"
"4","4","encoding","encoding","136","Chair_Office.jpg","36","0","653"
"4","4","encoding","encoding","137","GuineaPig.jpg","36","0","715"
"4","4","encoding","encoding","138","Neckrest.jpg","36","0","1122"
"4","4","encoding","encoding","139","Headset.jpg","36","0","672"
"4","4","encoding","encoding","140","Mixer_Cement.jpg","37","0","1271"
"4","4","encoding","encoding","141","Leg.jpg","36","0","621"
"4","4","encoding","encoding","142","Pickle.jpg","36","0","660"
"4","4","encoding","encoding","143","RemoteControl.jpg","36","0","690"
"4","4","encoding","encoding","144","Light_Fixtures.jpg","36","0","961"
"4","4","encoding","encoding","145","DVDPlayer.jpg","36","0","679"
"4","4","encoding","encoding","146","SoundMixer_White.jpg","36","0","1142"
"4","4","encoding","encoding","147","Flower_Hibiscus.jpg","36","0","581"
"4","4","encoding","encoding","148","Lighter_Black.jpg","36","0","1267"
"4","4","encoding","encoding","149","Car_Totalled.jpg","37","0","1810"
"4","4","encoding","encoding","150","AllTerrain.jpg","36","0","1632"
"4","4","encoding","encoding","151","Sign_Wetfloor.jpg","36","0","1239"
"4","4","encoding","encoding","152","Pig.jpg","37","0","1133"
"4","4","encoding","encoding","153","Bag_Hand.jpg","36","0","699"
"4","4","encoding","encoding","154","ColumnMarble.jpg","37","0","970"
"4","4","encoding","encoding","155","Glass_Ball.jpg","37","0","1184"
"4","4","encoding","encoding","156","Toy_Slide.jpg","37","0","1863"
"4","4","encoding","encoding","157","Kettle.jpg","36","0","605"
"4","4","encoding","encoding","158","PaintBrushAndPallette.jpg","36","0","1228"
"4","4","encoding","encoding","159","Ring_Plain.jpg","36","0","891"
"4","4","encoding","encoding","160","Milkshake_Strawberry.jpg","36","0","1393"
"4","4","encoding","encoding","161","Hedgehog.jpg","37","0","1504"
"4","4","encoding","encoding","162","Statue_SouthAmerican.jpg","37","0","1078"
"4","4","encoding","encoding","163","Spoon_Baby.jpg","36","0","933"
"4","4","encoding","encoding","164","TelephoneJack.jpg","36","0","691"
"4","4","encoding","encoding","165","Broom_Long.jpg","36","0","850"
"4","4","encoding","encoding","166","Condom.jpg","36","0","1136"
"4","4","encoding","encoding","167","Cart_Wooden.jpg","37","0","1087"
"4","4","encoding","encoding","168","Toy_Wooden rings.jpg","36","0","1333"
"4","4","encoding","encoding","169","PoliceTape.jpg","0","0","2000"
"4","4","encoding","encoding","170","Bowl_Cereal.jpg","36","0","1594"
"4","4","encoding","encoding","171","TailLight.jpg","37","0","1465"
"4","4","encoding","encoding","172","Celery.jpg","36","0","735"
"4","4","encoding","encoding","173","Truck_Box.jpg","37","0","806"
"4","4","encoding","encoding","174","ProcessorFood_Modern.jpg","36","0","1364"
"4","4","encoding","encoding","175","Phone_Military.jpg","36","0","1483"
"4","4","encoding","encoding","176","Peeler.jpg","36","0","665"
"4","4","encoding","encoding","177","Carrot.jpg","36","0","704"
"4","4","retrieval","old_objects","1","Ball_Squashball.jpg","37","0","1263"
"4","4","retrieval","old_objects","2","Stone_Mill.jpg","36","1","907"
"4","4","retrieval","old_objects","3","Table_PingPong.jpg","36","1","1438"
"4","4","retrieval","old_objects","4","Toy_DogBall.jpg","36","1","691"
"4","4","retrieval","new_objects","5","ScaleWeighing.jpg","37","1","1302"
"4","4","retrieval","new_objects","6","CarSuspension.jpg","37","1","897"
"4","4","retrieval","new_objects","7","Tractor_Orange.jpg","37","1","947"
"4","4","retrieval","new_objects","8","Candy_Cane.jpg","36","0","1084"
"4","4","retrieval","new_objects","9","Mask_Gas.jpg","37","1","1463"
"4","4","retrieval","old_objects","10","BinRecycling.jpg","37","0","1468"
"4","4","retrieval","new_objects","11","Shoes_Pumps.jpg","36","0","1376"
"4","4","retrieval","old_objects","12","Popcorn.jpg","36","1","1208"
"4","4","retrieval","old_objects","13","PaintRoller.jpg","36","1","1222"
"4","4","retrieval","new_objects","14","CheeseSlicer.jpg","36","0","1100"
"4","4","retrieval","new_objects","15","Box_Floral.jpg","36","0","1031"
"4","4","retrieval","new_objects","16","Film_Roll.jpg","36","0","1012"
"4","4","retrieval","new_objects","17","Taco.jpg","37","1","1178"
"4","4","retrieval","new_objects","18","HairBand.jpg","36","0","954"
"4","4","retrieval","new_objects","19","BicycleBrake.jpg","37","1","1418"
"4","4","retrieval","new_objects","20","Seashell_AlternateTellin.jpg","36","0","1024"
"4","4","retrieval","new_objects","21","Scrabble.jpg","36","0","1070"
"4","4","retrieval","new_objects","22","Trash_Medical.jpg","37","1","1386"
"4","4","retrieval","new_objects","23","Candleholder_Tall.jpg","36","0","1105"
"4","4","retrieval","old_objects","24","Bowl_Cereal.jpg","36","1","1556"
"4","4","retrieval","old_objects","25","VacuumHead.jpg","36","1","1276"
"4","4","retrieval","old_objects","26","Ring_Plain.jpg","36","1","960"
"4","4","retrieval","new_objects","27","Dog_SaintBernard.jpg","37","1","1121"
"4","4","retrieval","new_objects","28","ToothPaste.jpg","37","1","1362"
"4","4","retrieval","new_objects","29","PaperTowel_Kitchen.jpg","37","1","1282"
"4","4","retrieval","new_objects","30","DartBoard.jpg","36","0","1030"
"4","4","retrieval","old_objects","31","Suitcase.jpg","36","1","940"
"4","4","retrieval","old_objects","32","Pasta_Spaghetti.jpg","36","1","637"
"4","4","retrieval","old_objects","33","Thumbtack.jpg","0","0","2000"
"4","4","retrieval","new_objects","34","Cast.jpg","36","0","993"
"4","4","retrieval","old_objects","35","Lips_Wax.jpg","36","1","1288"
"4","4","retrieval","old_objects","36","Arm.jpg","36","1","1451"
"4","4","retrieval","old_objects","37","Leaf_Clover.jpg","36","1","872"
"4","4","retrieval","new_objects","38","Sock_Ankle.jpg","36","0","1148"
"4","4","retrieval","new_objects","39","Battery_AA.jpg","37","1","1324"
"4","4","retrieval","old_objects","40","BoxTrailer.jpg","36","1","1550"
"4","4","retrieval","new_objects","41","WindowBlinds.jpg","36","0","798"
"4","4","retrieval","old_objects","42","Toy_FigurineEngineer.jpg","36","1","717"
"4","4","retrieval","new_objects","43","WireStripper.jpg","37","1","927"
"4","4","retrieval","new_objects","44","Carousel copy.jpg","36","0","1065"
"4","4","retrieval","new_objects","45","AmpMeter.jpg","37","1","661"
"4","4","retrieval","new_objects","46","Bowl_Wooden.jpg","36","0","809"
"4","4","retrieval","new_objects","47","House_Stone.jpg","36","0","984"
"4","4","retrieval","old_objects","48","Wheel_Steering.jpg","37","0","967"
"4","4","retrieval","new_objects","49","MousepadAndMouse.jpg","37","1","751"
"4","4","retrieval","new_objects","50","PagodaModel.jpg","36","0","632"
"4","4","retrieval","old_objects","51","Kettle.jpg","37","0","1276"
"4","4","retrieval","new_objects","52","AngleGrinder.jpg","37","1","1017"
"4","4","retrieval","old_objects","53","Cord_usb.jpg","36","1","879"
"4","4","retrieval","new_objects","54","Brace_Back.jpg","37","1","1858"
"4","4","retrieval","new_objects","55","RollingPin.jpg","36","0","855"
"4","4","retrieval","new_objects","56","HDMIConnector.jpg","37","1","891"
"4","4","retrieval","new_objects","57","ButterChurn.jpg","36","0","831"
"4","4","retrieval","old_objects","58","Book_Paper.jpg","36","1","764"
"4","4","retrieval","new_objects","59","SoapBottle.jpg","36","0","684"
"4","4","retrieval","new_objects","60","PedestalGreek.jpg","36","0","663"
"4","4","retrieval","new_objects","62","Goat.jpg","36","0","1193"
"4","4","retrieval","old_objects","63","Broom_Long.jpg","36","1","1441"
"4","4","retrieval","old_objects","64","ProcessorFood_Old.jpg","37","0","958"
"4","4","retrieval","new_objects","65","Binoculars.jpg","37","1","606"
"4","4","retrieval","old_objects","66","Leg.jpg","36","1","773"
"4","4","retrieval","new_objects","67","WorldMap.jpg","36","0","1293"
"4","4","retrieval","old_objects","68","Hangar.jpg","37","0","1160"
"4","4","retrieval","old_objects","69","Toy_Alien.jpg","37","0","874"
"4","4","retrieval","old_objects","70","Fossil.jpg","36","1","645"
"4","4","retrieval","new_objects","71","MobilityScooter.jpg","37","1","1050"
"4","4","retrieval","new_objects","72","FoodMill.jpg","37","1","1150"
"4","4","retrieval","old_objects","73","Dice.jpg","36","1","1383"
"4","4","retrieval","new_objects","74","CompassCardinal.jpg","36","0","1038"
"4","4","retrieval","old_objects","75","Pickle.jpg","36","1","1068"
"4","4","retrieval","old_objects","76","Case_DVD.jpg","37","0","1183"
"4","4","retrieval","new_objects","77","Hook_Double.jpg","36","0","863"
"4","4","retrieval","new_objects","78","PuppetTheatre_BlueRed.jpg","36","0","939"
"4","4","retrieval","old_objects","79","ElectricSwitchboard.jpg","37","0","1004"
"4","4","retrieval","new_objects","80","Bindings_Snowboard.jpg","37","1","1618"
"4","4","retrieval","old_objects","81","ShearsGarden.jpg","36","1","800"
"4","4","retrieval","old_objects","82","Container_Tupperware.jpg","37","0","1103"
"4","4","retrieval","new_objects","83","Ball_Disco.jpg","37","1","977"
"4","4","retrieval","old_objects","84","Toy_Slide.jpg","37","0","1265"
"4","4","retrieval","old_objects","85","Lobster.jpg","36","1","1045"
"4","4","retrieval","old_objects","86","Harmonica.jpg","36","1","1475"
"4","4","retrieval","old_objects","87","Kebab_Vegetables.jpg","36","1","1534"
"4","4","retrieval","new_objects","88","Pants.jpg","36","0","1976"
"4","4","retrieval","new_objects","89","Hanger.jpg","37","1","1007"
"4","4","retrieval","new_objects","90","Chair_Rocking.jpg","36","0","790"
"4","4","retrieval","new_objects","91","TowelRack_Brown.jpg","36","0","1037"
"4","4","retrieval","old_objects","92","Bed_QueenSize.jpg","36","1","866"
"4","4","retrieval","new_objects","93","Paddle_PingPong.jpg","36","0","767"
"4","4","retrieval","old_objects","94","BakingDish.jpg","36","1","598"
"4","4","retrieval","new_objects","95","Shoe_Men.jpg","36","0","837"
"4","4","retrieval","new_objects","96","Sign_SpeedLimit25.jpg","36","0","938"
"4","4","retrieval","old_objects","97","Bowl_Flour.jpg","36","1","643"
"4","4","retrieval","old_objects","98","Mat_Bamboo.jpg","37","0","1136"
"4","4","retrieval","new_objects","99","RecordPlayer.jpg","36","0","850"
"4","4","retrieval","old_objects","100","Toy_Motorcycle.jpg","37","0","1142"
"4","4","retrieval","new_objects","101","Bag_Saline.jpg","36","0","1175"
"4","4","retrieval","new_objects","102","Cheeseburger.jpg","37","1","1103"
"4","4","retrieval","old_objects","103","StampAndSeal.jpg","36","1","642"
"4","4","retrieval","old_objects","104","Chair_Office.jpg","37","0","767"
"4","4","retrieval","new_objects","105","ComputerKey_Escape.jpg","37","1","935"
"4","4","retrieval","new_objects","106","Gorilla.jpg","36","0","1360"
"4","4","retrieval","old_objects","107","Lighter_Black.jpg","37","0","1185"
"4","4","retrieval","new_objects","108","Glass_Wine.jpg","36","0","1336"
"4","4","retrieval","old_objects","109","Bird_Cardinal.jpg","36","1","985"
"4","4","retrieval","old_objects","110","Flower_Hibiscus.jpg","36","1","1041"
"4","4","retrieval","old_objects","111","Car_Vintage.jpg","36","1","1102"
"4","4","retrieval","old_objects","112","Flowers_DryBouquet.jpg","36","1","752"
"4","4","retrieval","old_objects","113","Bottle_Plastic.jpg","36","1","913"
