"group","subject","blockcode","trialcode","trialnum","values.stimulus","response","correct","latency"
"1","1","encoding","encoding","1","EnglishMuffin.jpg","36","0","922"
"1","1","encoding","encoding","2","SpongeScrubbing.jpg","36","0","1005"
"1","1","encoding","encoding","3","BicycleSeat.jpg","37","0","1028"
"1","1","encoding","encoding","4","Tray_Wooden.jpg","36","0","985"
"1","1","encoding","encoding","5","Cross.jpg","37","0","786"
"1","1","encoding","encoding","6","Cup_Fruits.jpg","36","0","858"
"1","1","encoding","encoding","7","Bone.jpg","37","0","1193"
"1","1","encoding","encoding","8","Pot_BlackOld.jpg","36","0","868"
"1","1","encoding","encoding","9","Dog_Bulldog.jpg","37","0","756"
"1","1","encoding","encoding","10","House_Doll.jpg","37","0","856"
"1","1","encoding","encoding","11","Tag_Price.jpg","36","0","992"
"1","1","encoding","encoding","12","Axe.jpg","37","0","857"
"1","1","encoding","encoding","13","Toy_RobotTransformer.jpg","36","0","1069"
"1","1","encoding","encoding","14","Boat_Row.jpg","37","0","915"
"1","1","encoding","encoding","15","Wire_ElectricalSingle.jpg","37","0","1172"
"1","1","encoding","encoding","16","Feet.jpg","36","0","883"
"1","1","encoding","encoding","17","Cart_Janitor.jpg","36","0","1118"
"1","1","encoding","encoding","18","Spoons_MeasuringAttached.jpg","36","0","870"
"1","1","encoding","encoding","19","DogTreat.jpg","36","0","865"
"1","1","encoding","encoding","20","OvenElement.jpg","37","0","1119"
"1","1","encoding","encoding","21","Playdoh.jpg","36","0","892"
"1","1","encoding","encoding","22","Pants_Firefighter.jpg","37","0","993"
"1","1","encoding","encoding","23","Branch.jpg","37","0","697"
"1","1","encoding","encoding","24","Box_Apples.jpg","36","0","1136"
"1","1","encoding","encoding","25","Bathtub.jpg","36","0","790"
"1","1","encoding","encoding","26","Toy_WoodenPlainSingle.jpg","36","0","940"
"1","1","encoding","encoding","27","Stingray.jpg","37","0","934"
"1","1","encoding","encoding","28","Cabinet_Display.jpg","36","0","837"
"1","1","encoding","encoding","29","Archery_ArrowsBows.jpg","37","0","759"
"1","1","encoding","encoding","30","Table_Pool.jpg","36","0","772"
"1","1","encoding","encoding","31","Frame_Oval.jpg","36","0","779"
"1","1","encoding","encoding","32","SlushieMachine.jpg","36","0","856"
"1","1","encoding","encoding","33","Hat_Tuque.jpg","37","0","917"
"1","1","encoding","encoding","34","Can_Milk.jpg","36","0","757"
"1","1","encoding","encoding","35","Tortilla.jpg","36","0","892"
"1","1","encoding","encoding","36","ConnectorPlug.jpg","36","0","1057"
"1","1","encoding","encoding","37","Gazebo.jpg","37","0","824"
"1","1","encoding","encoding","38","Kazoo.jpg","37","0","1056"
"1","1","encoding","encoding","39","Compact_Mirror.jpg","36","0","1085"
"1","1","encoding","encoding","40","Mask_Masquerade.jpg","36","0","1167"
"1","1","encoding","encoding","41","Brush_Winter.jpg","37","0","819"
"1","1","encoding","encoding","42","LightBulb_Blue.jpg","37","0","983"
"1","1","encoding","encoding","43","Pepper_Green.jpg","36","0","1287"
"1","1","encoding","encoding","44","Boat_Sail.jpg","37","0","837"
"1","1","encoding","encoding","45","Bed_Hospital.jpg","36","0","1100"
"1","1","encoding","encoding","46","DogSled.jpg","37","0","820"
"1","1","encoding","encoding","47","Bullet.jpg","37","0","854"
"1","1","encoding","encoding","48","Lamp_Table.jpg","36","0","733"
"1","1","encoding","encoding","49","Statue_VirginMary.jpg","36","0","1030"
"1","1","encoding","encoding","50","Seeder.jpg","37","0","908"
"1","1","encoding","encoding","51","Printer.jpg","36","0","835"
"1","1","encoding","encoding","52","Makeup_Compact.jpg","36","0","979"
"1","1","encoding","encoding","53","Box_JeweleryWooden.jpg","36","0","808"
"1","1","encoding","encoding","54","Toy_Bat.jpg","37","0","833"
"1","1","encoding","encoding","55","Speakers_Theatre.jpg","37","0","1465"
"1","1","encoding","encoding","56","Desk_White.jpg","36","0","880"
"1","1","encoding","encoding","57","Alfalfa.jpg","36","0","1146"
"1","1","encoding","encoding","58","Toy_Stroller.jpg","36","0","1031"
"1","1","encoding","encoding","59","Spoon_Sugar.jpg","36","0","743"
"1","1","encoding","encoding","60","ElectricOutlet.jpg","36","0","984"
"1","1","encoding","encoding","62","Humidifier.jpg","36","0","836"
"1","1","encoding","encoding","63","Skirt_Stripes.jpg","37","0","892"
"1","1","encoding","encoding","64","MetalChain.jpg","36","0","775"
"1","1","encoding","encoding","65","Easel.jpg","37","0","1012"
"1","1","encoding","encoding","66","Cup_Styrofoam.jpg","36","0","891"
"1","1","encoding","encoding","67","Toy_ModelMolecule.jpg","36","0","806"
"1","1","encoding","encoding","68","Toy_Christmastree.jpg","37","0","715"
"1","1","encoding","encoding","69","Sign_Construction.jpg","37","0","816"
"1","1","encoding","encoding","70","Light_Halogen.jpg","37","0","889"
"1","1","encoding","encoding","71","Case_CD.jpg","36","0","799"
"1","1","encoding","encoding","72","Lamp_TableWhite.jpg","36","0","957"
"1","1","encoding","encoding","73","Protractor.jpg","36","0","731"
"1","1","encoding","encoding","74","LampPost_OneBulb.jpg","37","0","666"
"1","1","encoding","encoding","75","Chest_Toys.jpg","36","0","860"
"1","1","encoding","encoding","76","Stove_Camping.jpg","37","0","917"
"1","1","encoding","encoding","77","Arch.jpg","37","0","841"
"1","1","encoding","encoding","78","CableConnecter.jpg","36","0","948"
"1","1","encoding","encoding","79","Kneepad.jpg","36","0","1267"
"1","1","encoding","encoding","80","StockingChristmas.jpg","36","0","866"
"1","1","encoding","encoding","81","Camera_Video.jpg","37","0","1037"
"1","1","encoding","encoding","82","PlantPotted.jpg","37","0","826"
"1","1","encoding","encoding","83","Camera_Antique.jpg","37","0","1047"
"1","1","encoding","encoding","84","Briefcase_Leather.jpg","36","0","921"
"1","1","encoding","encoding","85","Toy_Taxi.jpg","36","0","1052"
"1","1","encoding","encoding","86","Chair_Deck.jpg","37","0","999"
"1","1","encoding","encoding","87","MusicSheet.jpg","36","0","904"
"1","1","encoding","encoding","88","Jar_JellyBeans.jpg","36","0","1044"
"1","1","encoding","encoding","89","Bulldozer.jpg","37","0","933"
"1","1","encoding","encoding","90","MortarPestle_BlackStone.jpg","36","0","1163"
"1","1","encoding","encoding","91","Squid_Pink.jpg","37","0","1266"
"1","1","encoding","encoding","92","Notepad_WithPen.jpg","36","0","981"
"1","1","encoding","encoding","93","Perfume.jpg","36","0","1027"
"1","1","encoding","encoding","94","Aquarium.jpg","36","0","1205"
"1","1","encoding","encoding","95","Wheelbarrow_Green.jpg","37","0","1043"
"1","1","encoding","encoding","96","Pyramid.jpg","37","0","885"
"1","1","encoding","encoding","97","Chicken_FriedDrum.jpg","36","0","717"
"1","1","encoding","encoding","98","Truck_Tanker.jpg","37","0","790"
"1","1","encoding","encoding","99","Microscope.jpg","36","0","983"
"1","1","encoding","encoding","100","Hat_Beanie.jpg","37","0","904"
"1","1","encoding","encoding","101","Spoon_Wooden.jpg","36","0","981"
"1","1","encoding","encoding","102","Squid_Orange.jpg","37","0","1032"
"1","1","encoding","encoding","103","Scarecrow.jpg","36","0","1099"
"1","1","encoding","encoding","104","PharoahReplica.jpg","37","0","1053"
"1","1","encoding","encoding","105","Scythe.jpg","37","0","813"
"1","1","encoding","encoding","106","Nuts_Walnut.jpg","36","0","1140"
"1","1","encoding","encoding","107","SpinalCord.jpg","36","0","1078"
"1","1","encoding","encoding","108","Mat_Car.jpg","37","0","928"
"1","1","encoding","encoding","109","Gameboy.jpg","36","0","1299"
"1","1","encoding","encoding","110","Sign_Taxi.jpg","37","0","789"
"1","1","encoding","encoding","111","Cow.jpg","37","0","778"
"1","1","encoding","encoding","112","Dill.jpg","37","0","675"
"1","1","encoding","encoding","113","Walker_Silver.jpg","37","0","1027"
"1","1","encoding","encoding","114","Glass_Martini.jpg","36","0","793"
"1","1","encoding","encoding","115","Asparagus.jpg","37","0","936"
"1","1","encoding","encoding","116","Speaker_Single.jpg","36","0","915"
"1","1","encoding","encoding","117","Shirt_Tshirt.jpg","36","0","807"
"1","1","encoding","encoding","118","Swing_Child.jpg","37","0","861"
"1","1","encoding","encoding","119","Key_Car.jpg","37","0","922"
"1","1","encoding","encoding","120","Noose.jpg","37","0","889"
"1","1","encoding","encoding","121","DeepFryer.jpg","36","0","904"
"1","1","encoding","encoding","123","HumanSkull.jpg","37","0","1033"
"1","1","encoding","encoding","124","Plate_Ceramic.jpg","36","0","769"
"1","1","encoding","encoding","125","Outhouse.jpg","37","0","752"
"1","1","encoding","encoding","126","FuzzyDice.jpg","36","0","885"
"1","1","encoding","encoding","127","Vase_EarthToned.jpg","36","0","827"
"1","1","encoding","encoding","128","Ball_Basketball.jpg","37","0","771"
"1","1","encoding","encoding","129","Pottery.jpg","36","0","951"
"1","1","encoding","encoding","130","Tire_Hollow.jpg","37","0","879"
"1","1","encoding","encoding","131","Clarinet.jpg","37","0","1139"
"1","1","encoding","encoding","132","BoogieBoard.jpg","36","0","1100"
"1","1","encoding","encoding","133","Jug_Milk.jpg","36","0","899"
"1","1","encoding","encoding","134","Licorice.jpg","36","0","1185"
"1","1","encoding","encoding","135","Magnifying_Glass.jpg","36","0","884"
"1","1","encoding","encoding","136","Cheque.jpg","36","0","836"
"1","1","encoding","encoding","137","Mixer_Hand.jpg","36","0","1210"
"1","1","encoding","encoding","138","Toy_Drill.jpg","36","0","1070"
"1","1","encoding","encoding","139","Sink_Bathroom.jpg","36","0","945"
"1","1","encoding","encoding","140","Bolt_WithNut.jpg","37","0","1022"
"1","1","encoding","encoding","141","Pasta_Shell.jpg","36","0","866"
"1","1","encoding","encoding","142","Flower_Daisy.jpg","37","0","871"
"1","1","encoding","encoding","143","JuiceBox.jpg","36","0","1189"
"1","1","encoding","encoding","144","Sand.jpg","36","0","1300"
"1","1","encoding","encoding","145","USBKey.jpg","36","0","1222"
"1","1","encoding","encoding","146","ComputerKeyboard_Backspace.jpg","36","0","1163"
"1","1","encoding","encoding","147","Decoration_Chinese.jpg","36","0","1000"
"1","1","encoding","encoding","148","Fence_ChainLink.jpg","37","0","942"
"1","1","encoding","encoding","149","Blueprints.jpg","36","0","1322"
"1","1","encoding","encoding","150","Corkscrew.jpg","36","0","1316"
"1","1","encoding","encoding","151","Box_Chocolate.jpg","36","0","1122"
"1","1","encoding","encoding","152","Parcel.jpg","37","0","1323"
"1","1","encoding","encoding","153","Rag.jpg","36","0","1500"
"1","1","encoding","encoding","154","Can_GasSpout.jpg","37","0","1152"
"1","1","encoding","encoding","155","Sieve_SideView.jpg","36","0","1895"
"1","1","encoding","encoding","156","Cheesegrater_Box.jpg","36","0","1269"
"1","1","encoding","encoding","157","Blade_Tablesaw.jpg","37","0","1032"
"1","1","encoding","encoding","158","Stroboscope.jpg","37","0","1095"
"1","1","encoding","encoding","159","Lollipop_Grape.jpg","36","0","1436"
"1","1","encoding","encoding","160","Hat_Cowboy.jpg","37","0","1343"
"1","1","encoding","encoding","161","PaintSprayer.jpg","36","0","1316"
"1","1","encoding","encoding","162","SpinningWheel.jpg","36","0","1289"
"1","1","encoding","encoding","163","TigerWhite.jpg","37","0","1590"
"1","1","encoding","encoding","164","Sphinx.jpg","37","0","1113"
"1","1","encoding","encoding","165","Cart_Groceries.jpg","37","0","1687"
"1","1","encoding","encoding","166","CoffeeBeans.jpg","36","0","1122"
"1","1","encoding","encoding","167","StreetSweeper.jpg","37","0","1388"
"1","1","encoding","encoding","168","Jet.jpg","37","0","1283"
"1","1","encoding","encoding","169","Trophy.jpg","37","0","1732"
"1","1","encoding","encoding","170","Pillar.jpg","37","0","1730"
"1","1","encoding","encoding","171","Pasta_Penne.jpg","36","0","1148"
"1","1","encoding","encoding","172","BabyMonitor.jpg","36","0","1729"
"1","1","encoding","encoding","173","Tribunal_Wooden.jpg","36","0","1418"
"1","1","encoding","encoding","174","Microwave.jpg","36","0","1325"
"1","1","encoding","encoding","175","Hat_Explorer.jpg","37","0","1077"
"1","1","encoding","encoding","176","Bark.jpg","37","0","1174"
"1","1","encoding","encoding","177","Trunk.jpg","36","0","1291"
"1","1","retrieval","new_objects","1","Car_Totalled.jpg","37","1","1122"
"1","1","retrieval","new_objects","2","Mixer_Cement.jpg","37","1","980"
"1","1","retrieval","old_objects","3","Seeder.jpg","37","0","856"
"1","1","retrieval","new_objects","4","PaintBrushAndPallette.jpg","36","0","729"
"1","1","retrieval","new_objects","5","BoxTrailer.jpg","37","1","1355"
"1","1","retrieval","old_objects","6","Protractor.jpg","36","1","1452"
"1","1","retrieval","old_objects","7","Lamp_TableWhite.jpg","36","1","1107"
"1","1","retrieval","old_objects","8","TigerWhite.jpg","36","1","1405"
"1","1","retrieval","old_objects","9","Gameboy.jpg","37","0","1693"
"1","1","retrieval","new_objects","10","Basket_Straw.jpg","37","1","1849"
"1","1","retrieval","old_objects","11","Toy_RobotTransformer.jpg","37","0","1819"
"1","1","retrieval","old_objects","12","Scarecrow.jpg","0","0","2001"
"1","1","retrieval","old_objects","13","Pepper_Green.jpg","37","0","921"
"1","1","retrieval","new_objects","14","Cake_Birthday.jpg","36","0","1320"
"1","1","retrieval","new_objects","15","Ball_Squashball.jpg","37","1","1084"
"1","1","retrieval","new_objects","16","Book_Paper.jpg","37","1","1187"
"1","1","retrieval","old_objects","17","Glass_Martini.jpg","36","1","1319"
"1","1","retrieval","old_objects","18","Dog_Bulldog.jpg","36","1","1150"
"1","1","retrieval","new_objects","19","Container_Tupperware.jpg","37","1","1435"
"1","1","retrieval","old_objects","20","Sphinx.jpg","36","1","1204"
"1","1","retrieval","old_objects","21","Camera_Video.jpg","37","0","1124"
"1","1","retrieval","old_objects","22","Toy_WoodenPlainSingle.jpg","36","1","1021"
"1","1","retrieval","new_objects","23","Leaf_Clover.jpg","36","0","974"
"1","1","retrieval","new_objects","24","Pickle.jpg","36","0","1041"
"1","1","retrieval","old_objects","25","Tribunal_Wooden.jpg","36","1","893"
"1","1","retrieval","new_objects","26","Arm.jpg","37","1","1034"
"1","1","retrieval","new_objects","27","NintendoWii.jpg","36","0","1103"
"1","1","retrieval","old_objects","28","Swing_Child.jpg","36","1","1314"
"1","1","retrieval","new_objects","29","Leg.jpg","37","1","906"
"1","1","retrieval","new_objects","30","Dresser_1.jpg","0","0","2001"
"1","1","retrieval","old_objects","31","DogSled.jpg","37","0","849"
"1","1","retrieval","new_objects","32","Statue_SouthAmerican.jpg","36","0","887"
"1","1","retrieval","old_objects","33","Camera_Antique.jpg","0","0","2001"
"1","1","retrieval","old_objects","34","ConnectorPlug.jpg","37","0","918"
"1","1","retrieval","new_objects","35","Pretzel_Sticks.jpg","36","0","868"
"1","1","retrieval","new_objects","36","Pot_CastIron.jpg","37","1","719"
"1","1","retrieval","old_objects","37","Sand.jpg","36","1","933"
"1","1","retrieval","old_objects","38","Mask_Masquerade.jpg","36","1","951"
"1","1","retrieval","new_objects","39","GuineaPig.jpg","37","1","868"
"1","1","retrieval","old_objects","40","Jug_Milk.jpg","36","1","885"
"1","1","retrieval","old_objects","41","Pyramid.jpg","37","0","852"
"1","1","retrieval","new_objects","42","Donut.jpg","36","0","1831"
"1","1","retrieval","new_objects","43","Fossil.jpg","36","0","1218"
"1","1","retrieval","new_objects","44","Thumbtack.jpg","37","1","979"
"1","1","retrieval","new_objects","45","Bird_Cardinal.jpg","37","1","729"
"1","1","retrieval","new_objects","46","Cord_usb.jpg","37","1","1217"
"1","1","retrieval","old_objects","47","Gazebo.jpg","36","1","957"
"1","1","retrieval","new_objects","48","Toy_Moose.jpg","36","0","721"
"1","1","retrieval","new_objects","49","Brush_BathBack.jpg","36","0","902"
"1","1","retrieval","new_objects","50","BicycleGear.jpg","36","0","999"
"1","1","retrieval","old_objects","51","Cart_Janitor.jpg","37","0","730"
"1","1","retrieval","old_objects","52","Toy_Taxi.jpg","36","1","752"
"1","1","retrieval","old_objects","53","SpinningWheel.jpg","36","1","1375"
"1","1","retrieval","new_objects","54","Bicycle_Kids.jpg","37","1","1153"
"1","1","retrieval","old_objects","55","Noose.jpg","37","0","989"
"1","1","retrieval","old_objects","56","House_Doll.jpg","36","1","806"
"1","1","retrieval","old_objects","57","Sieve_SideView.jpg","37","0","754"
"1","1","retrieval","old_objects","58","CoffeeBeans.jpg","36","1","959"
"1","1","retrieval","new_objects","59","Carrot.jpg","36","0","739"
"1","1","retrieval","old_objects","60","DeepFryer.jpg","37","0","824"
"1","1","retrieval","new_objects","62","Cart_Wooden.jpg","37","1","674"
"1","1","retrieval","old_objects","63","Bark.jpg","36","1","636"
"1","1","retrieval","new_objects","64","Whip.jpg","36","0","720"
"1","1","retrieval","new_objects","65","Suitcase.jpg","36","0","572"
"1","1","retrieval","new_objects","66","Shoes_Snow.jpg","36","0","547"
"1","1","retrieval","old_objects","67","Tag_Price.jpg","36","1","530"
"1","1","retrieval","new_objects","68","Bed_QueenSize.jpg","37","1","716"
"1","1","retrieval","new_objects","69","ChocolateBar_Unwrapped.jpg","37","1","555"
"1","1","retrieval","old_objects","70","Kazoo.jpg","37","0","510"
"1","1","retrieval","old_objects","71","Kneepad.jpg","37","0","503"
"1","1","retrieval","new_objects","72","TailLight.jpg","37","1","581"
"1","1","retrieval","new_objects","73","Origami_Ox.jpg","36","0","512"
"1","1","retrieval","new_objects","74","Heater_ElectricUpright.jpg","37","1","492"
"1","1","retrieval","old_objects","75","Archery_ArrowsBows.jpg","37","0","591"
"1","1","retrieval","old_objects","76","Vase_EarthToned.jpg","37","0","455"
"1","1","retrieval","old_objects","77","Blueprints.jpg","37","0","523"
"1","1","retrieval","new_objects","78","Handcuffs.jpg","36","0","418"
"1","1","retrieval","old_objects","79","Trophy.jpg","37","0","466"
"1","1","retrieval","old_objects","80","Asparagus.jpg","37","0","546"
"1","1","retrieval","new_objects","81","Skates.jpg","37","1","517"
"1","1","retrieval","old_objects","82","OvenElement.jpg","37","0","531"
"1","1","retrieval","new_objects","83","PaintRoller.jpg","37","1","509"
"1","1","retrieval","new_objects","84","Harmonica.jpg","36","0","654"
"1","1","retrieval","old_objects","85","Statue_VirginMary.jpg","36","1","453"
"1","1","retrieval","old_objects","86","Pottery.jpg","36","1","530"
"1","1","retrieval","old_objects","87","Wheelbarrow_Green.jpg","37","0","549"
"1","1","retrieval","new_objects","88","Kebab_Vegetables.jpg","36","0","451"
"1","1","retrieval","old_objects","89","Spoon_Sugar.jpg","37","0","455"
"1","1","retrieval","new_objects","90","Toy_DinosaurTRex.jpg","37","1","408"
"1","1","retrieval","new_objects","91","Butterfly.jpg","36","0","421"
"1","1","retrieval","new_objects","92","Bag_Hand.jpg","36","0","426"
"1","1","retrieval","new_objects","93","Gun_Nerf.jpg","37","1","465"
"1","1","retrieval","new_objects","94","Kettle.jpg","36","0","459"
"1","1","retrieval","new_objects","95","Car_Vintage.jpg","37","1","405"
"1","1","retrieval","old_objects","96","Hat_Explorer.jpg","37","0","448"
"1","1","retrieval","old_objects","97","Pasta_Shell.jpg","36","1","355"
"1","1","retrieval","new_objects","98","Toy_RaceTrack.jpg","36","0","510"
"1","1","retrieval","new_objects","99","Headset.jpg","37","1","1395"
"1","1","retrieval","old_objects","100","BabyMonitor.jpg","36","1","574"
"1","1","retrieval","new_objects","101","Pickaxe.jpg","36","0","871"
"1","1","retrieval","old_objects","102","PaintSprayer.jpg","37","0","349"
"1","1","retrieval","new_objects","103","Compressor.jpg","36","0","476"
"1","1","retrieval","new_objects","104","Truck_Box.jpg","37","1","399"
"1","1","retrieval","old_objects","105","Toy_Drill.jpg","37","0","906"
"1","1","retrieval","old_objects","106","USBKey.jpg","37","0","593"
"1","1","retrieval","new_objects","107","SewingMachine.jpg","37","1","456"
"1","1","retrieval","new_objects","108","Flowers_DryBouquet.jpg","37","1","535"
"1","1","retrieval","old_objects","109","Toy_Bat.jpg","36","1","698"
"1","1","retrieval","new_objects","110","Chicken_Dinner.jpg","37","1","383"
"1","1","retrieval","new_objects","111","Mat_Bamboo.jpg","36","0","553"
"1","1","retrieval","old_objects","112","Can_GasSpout.jpg","36","1","666"
"1","1","retrieval","old_objects","113","LightBulb_Blue.jpg","37","0","1462"
"1","1","retrieval","new_objects","114","Inukshuk.jpg","37","1","876"
"1","1","retrieval","new_objects","115","ControlPanel.jpg","36","0","745"
"1","1","retrieval","old_objects","116","StockingChristmas.jpg","37","0","758"
"1","1","retrieval","old_objects","117","Box_JeweleryWooden.jpg","37","0","1795"
"1","1","retrieval","old_objects","118","SpongeScrubbing.jpg","37","0","488"
"1","1","retrieval","new_objects","119","Television.jpg","37","1","567"
"1","1","retrieval","old_objects","120","Key_Car.jpg","37","0","634"
"1","1","retrieval","new_objects","121","Lobster.jpg","36","0","992"
"1","1","retrieval","old_objects","123","Feet.jpg","37","0","552"
"1","1","retrieval","new_objects","124","Flower_Hibiscus.jpg","36","0","609"
"1","1","retrieval","old_objects","125","Shirt_Tshirt.jpg","37","0","707"
"1","1","retrieval","old_objects","126","Blade_Tablesaw.jpg","36","1","435"
"1","1","retrieval","new_objects","127","Ladybug.jpg","36","0","574"
"1","1","retrieval","new_objects","128","Booties_Blue.jpg","37","1","566"
"1","1","retrieval","new_objects","129","Lighter_Black.jpg","37","1","955"
"1","1","retrieval","new_objects","130","HairCurler.jpg","37","1","557"
"1","1","retrieval","old_objects","131","Squid_Orange.jpg","36","1","421"
"1","1","retrieval","old_objects","132","Speaker_Single.jpg","37","0","517"
"1","1","retrieval","old_objects","133","Microscope.jpg","36","1","483"
"1","1","retrieval","new_objects","134","SlideViewer.jpg","37","1","491"
"1","1","retrieval","old_objects","135","Cheesegrater_Box.jpg","37","0","493"
"1","1","retrieval","old_objects","136","Alfalfa.jpg","36","1","498"
"1","1","retrieval","new_objects","137","SafetyPin.jpg","37","1","605"
"1","1","retrieval","new_objects","138","Wheel_Steering.jpg","37","1","480"
"1","1","retrieval","old_objects","139","Wire_ElectricalSingle.jpg","36","1","441"
"1","1","retrieval","new_objects","140","Ring_Plain.jpg","36","0","487"
"1","1","retrieval","new_objects","141","GrillRack.jpg","36","0","547"
"1","1","retrieval","new_objects","142","Bottle_Plastic.jpg","37","1","572"
"1","1","retrieval","new_objects","143","Toy_Alien.jpg","37","1","527"
"1","1","retrieval","old_objects","144","DogTreat.jpg","36","1","522"
"1","1","retrieval","new_objects","145","SoundMixer_White.jpg","36","0","610"
"1","1","retrieval","old_objects","146","Tire_Hollow.jpg","37","0","681"
"1","1","retrieval","old_objects","147","Cart_Groceries.jpg","36","1","471"
"1","1","retrieval","old_objects","148","Toy_Christmastree.jpg","37","0","385"
"1","1","retrieval","old_objects","149","Box_Chocolate.jpg","37","0","511"
"1","1","retrieval","old_objects","150","Nuts_Walnut.jpg","36","1","395"
"1","1","retrieval","new_objects","151","StampAndSeal.jpg","37","1","451"
"1","1","retrieval","old_objects","152","Axe.jpg","36","1","495"
"1","1","retrieval","old_objects","153","Tortilla.jpg","37","0","485"
"1","1","retrieval","new_objects","154","Bag_Diaper.jpg","37","1","458"
"1","1","retrieval","old_objects","155","Compact_Mirror.jpg","36","1","496"
"1","1","retrieval","new_objects","156","Bucket_Rusty.jpg","36","0","498"
"1","1","retrieval","new_objects","157","Pasta_Spaghetti.jpg","36","0","587"
"1","1","retrieval","old_objects","158","Dill.jpg","36","1","545"
"1","1","retrieval","old_objects","159","Pants_Firefighter.jpg","36","1","473"
"1","1","retrieval","old_objects","160","Perfume.jpg","36","1","540"
"1","1","retrieval","new_objects","161","Card_QueenSpade.jpg","36","0","753"
"1","1","retrieval","new_objects","162","TotemPole.jpg","37","1","695"
"1","1","retrieval","new_objects","163","Bowl_Flour.jpg","37","1","739"
"1","1","retrieval","new_objects","164","ShearsGarden.jpg","36","0","837"
"1","1","retrieval","old_objects","165","Toy_ModelMolecule.jpg","37","0","535"
"1","1","retrieval","new_objects","166","Dice.jpg","36","0","681"
"1","1","retrieval","old_objects","167","PlantPotted.jpg","36","1","548"
"1","1","retrieval","new_objects","168","ProcessorFood_Modern.jpg","37","1","654"
"1","1","retrieval","new_objects","169","Hedgehog.jpg","36","0","617"
"1","1","retrieval","old_objects","170","Bed_Hospital.jpg","37","0","742"
"1","1","retrieval","new_objects","171","BadgeSpecialAgent.jpg","36","0","732"
"1","1","retrieval","new_objects","172","WashRack.jpg","37","1","746"
"1","1","retrieval","old_objects","173","Case_CD.jpg","36","1","594"
"1","1","retrieval","new_objects","174","PoliceTape.jpg","36","0","745"
"1","1","retrieval","new_objects","175","Sheep.jpg","37","1","605"
"1","1","retrieval","old_objects","176","BicycleSeat.jpg","36","1","607"
"1","1","retrieval","new_objects","177","Mirror_Carside.jpg","36","0","914"
"1","1","retrieval","new_objects","178","Hottub.jpg","37","1","1478"
"1","1","retrieval","old_objects","179","EnglishMuffin.jpg","37","0","828"
"1","1","retrieval","new_objects","180","BicycleWheel.jpg","37","1","106"
"1","1","retrieval","new_objects","181","Scoop_Flour.jpg","37","1","573"
"1","1","retrieval","new_objects","182","DVDPlayer.jpg","37","1","448"
"1","1","retrieval","new_objects","184","Bird_Peacock.jpg","37","1","569"
"1","1","retrieval","old_objects","185","Ball_Basketball.jpg","37","0","1146"
"1","1","retrieval","new_objects","186","Toy_Motorcycle.jpg","37","1","679"
"1","1","retrieval","new_objects","187","BusStop.jpg","36","0","637"
"1","1","retrieval","new_objects","188","Toy_FigurineEngineer.jpg","36","0","564"
"1","1","retrieval","new_objects","189","MeasuringTape.jpg","37","1","635"
"1","1","retrieval","new_objects","190","VacuumHead.jpg","36","0","539"
"1","1","retrieval","new_objects","191","Toy_Truck.jpg","37","1","494"
"1","1","retrieval","new_objects","192","Clock_Radioalarm.jpg","36","0","546"
"1","1","retrieval","new_objects","193","Sign_Wetfloor.jpg","37","1","454"
"1","1","retrieval","new_objects","194","Iron_Antique.jpg","37","1","549"
"1","1","retrieval","old_objects","195","Stroboscope.jpg","37","0","828"
"1","1","retrieval","new_objects","196","Crown.jpg","37","1","691"
"1","1","retrieval","new_objects","197","Table_PingPong.jpg","36","0","482"
"1","1","retrieval","new_objects","198","Condom.jpg","36","0","555"
"1","1","retrieval","old_objects","199","Sign_Construction.jpg","36","1","570"
"1","1","retrieval","new_objects","200","Bowl_Cereal.jpg","37","1","604"
"1","1","retrieval","new_objects","201","Spoon_Baby.jpg","37","1","569"
"1","1","retrieval","old_objects","202","Mixer_Hand.jpg","37","0","496"
"1","1","retrieval","old_objects","203","Truck_Tanker.jpg","36","1","557"
"1","1","retrieval","old_objects","204","Rag.jpg","36","1","529"
"1","1","retrieval","old_objects","205","Chest_Toys.jpg","36","1","545"
"1","1","retrieval","old_objects","206","Bullet.jpg","36","1","589"
"1","1","retrieval","new_objects","207","Toy_Car.jpg","36","0","531"
"1","1","retrieval","old_objects","208","MusicSheet.jpg","36","1","565"
"1","1","retrieval","new_objects","209","Milkshake_Strawberry.jpg","37","1","531"
"1","1","retrieval","old_objects","210","Tray_Wooden.jpg","36","1","554"
"1","1","retrieval","old_objects","211","Pasta_Penne.jpg","36","1","535"
"1","1","retrieval","old_objects","212","Corkscrew.jpg","36","1","554"
"1","1","retrieval","new_objects","213","Glass_Ball.jpg","36","0","518"
"1","1","retrieval","new_objects","214","Peeler.jpg","37","1","456"
"1","1","retrieval","old_objects","215","MetalChain.jpg","37","0","477"
"1","1","retrieval","old_objects","216","Skirt_Stripes.jpg","36","1","517"
"1","1","retrieval","new_objects","217","BakingDish.jpg","36","0","470"
"1","1","retrieval","new_objects","218","Camera_Digital.jpg","37","1","526"
"1","1","retrieval","old_objects","219","Spoon_Wooden.jpg","37","0","415"
"1","1","retrieval","old_objects","220","Hat_Cowboy.jpg","36","1","454"
"1","1","retrieval","new_objects","221","ColumnMarble.jpg","36","0","484"
"1","1","retrieval","old_objects","222","Cup_Styrofoam.jpg","37","0","534"
"1","1","retrieval","old_objects","223","Microwave.jpg","36","1","1040"
"1","1","retrieval","new_objects","224","Pig.jpg","36","0","566"
"1","1","retrieval","old_objects","225","Sink_Bathroom.jpg","37","0","738"
"1","1","retrieval","new_objects","226","Toy_SandRake.jpg","36","0","808"
"1","1","retrieval","old_objects","227","Table_Pool.jpg","37","0","395"
"1","1","retrieval","new_objects","228","Photocopier.jpg","37","1","645"
"1","1","retrieval","old_objects","229","Pillar.jpg","37","0","790"
"1","1","retrieval","new_objects","230","Brace_Leg.jpg","37","1","665"
"1","1","retrieval","new_objects","231","Cauliflower.jpg","36","0","792"
"1","1","retrieval","old_objects","232","Bathtub.jpg","37","0","1060"
"1","1","retrieval","new_objects","233","Beater_Electric.jpg","37","1","666"
"1","1","retrieval","old_objects","234","Hat_Beanie.jpg","37","0","651"
"1","1","retrieval","new_objects","235","Wreath.jpg","36","0","833"
"1","1","retrieval","old_objects","236","Desk_White.jpg","37","0","883"
"1","1","retrieval","old_objects","237","FuzzyDice.jpg","36","1","755"
"1","1","retrieval","new_objects","238","AlarmSystem.jpg","36","0","762"
"1","1","retrieval","new_objects","239","DogToy.jpg","36","0","649"
"1","1","retrieval","old_objects","240","Flower_Daisy.jpg","36","1","747"
"1","1","retrieval","new_objects","241","TelephoneJack.jpg","36","0","974"
"1","1","retrieval","new_objects","242","ElectricSwitchboard.jpg","37","1","598"
"1","1","retrieval","old_objects","243","Licorice.jpg","36","1","682"
"1","1","retrieval","old_objects","245","Pot_BlackOld.jpg","36","1","534"
"1","1","retrieval","new_objects","246","Stone_Mill.jpg","36","0","777"
"1","1","retrieval","old_objects","247","JuiceBox.jpg","37","0","815"
"1","1","retrieval","new_objects","248","Makeup_Eyeshadow.jpg","36","0","556"
"1","1","retrieval","old_objects","249","Aquarium.jpg","36","1","643"
"1","1","retrieval","old_objects","250","Stingray.jpg","36","1","493"
"1","1","retrieval","new_objects","251","HorseshoeCrab.jpg","36","0","577"
"1","1","retrieval","new_objects","252","Machine_EKG.jpg","37","1","741"
"1","1","retrieval","old_objects","253","Spoons_MeasuringAttached.jpg","37","0","479"
"1","1","retrieval","old_objects","254","Boat_Row.jpg","36","1","505"
"1","1","retrieval","new_objects","255","Broom_Long.jpg","36","0","471"
"1","1","retrieval","old_objects","256","Playdoh.jpg","37","0","592"
"1","1","retrieval","old_objects","257","Mat_Car.jpg","37","0","511"
"1","1","retrieval","new_objects","258","Light_Fixtures.jpg","37","1","579"
"1","1","retrieval","new_objects","259","RemoteControl.jpg","37","1","457"
"1","1","retrieval","new_objects","260","Lips_Wax.jpg","37","1","563"
"1","1","retrieval","old_objects","261","Chair_Deck.jpg","36","1","539"
"1","1","retrieval","new_objects","262","Case_DVD.jpg","37","1","463"
"1","1","retrieval","new_objects","263","Scissors.jpg","36","0","493"
"1","1","retrieval","old_objects","264","Brush_Winter.jpg","36","1","382"
"1","1","retrieval","new_objects","265","RickShaw.jpg","37","1","421"
"1","1","retrieval","old_objects","266","BoogieBoard.jpg","36","1","424"
"1","1","retrieval","old_objects","267","Sign_Taxi.jpg","36","1","352"
"1","1","retrieval","old_objects","268","Easel.jpg","37","0","434"
"1","1","retrieval","new_objects","269","Bread_Melon.jpg","36","0","405"
"1","1","retrieval","old_objects","270","Makeup_Compact.jpg","37","0","477"
"1","1","retrieval","old_objects","271","Hat_Tuque.jpg","36","1","510"
"1","1","retrieval","new_objects","272","Toy_DogBall.jpg","36","0","467"
"1","1","retrieval","old_objects","273","Squid_Pink.jpg","36","1","617"
"1","1","retrieval","old_objects","274","Cup_Fruits.jpg","37","0","515"
"1","1","retrieval","new_objects","275","Heelpad.jpg","36","0","412"
"1","1","retrieval","new_objects","276","ChewingGum.jpg","36","0","478"
"1","1","retrieval","old_objects","277","Notepad_WithPen.jpg","36","1","497"
"1","1","retrieval","old_objects","278","ElectricOutlet.jpg","36","1","428"
"1","1","retrieval","old_objects","279","Arch.jpg","36","1","484"
"1","1","retrieval","old_objects","280","Chicken_FriedDrum.jpg","36","1","484"
"1","1","retrieval","new_objects","281","PyramidWooden.jpg","36","0","585"
"1","1","retrieval","old_objects","282","Parcel.jpg","37","0","425"
"1","1","retrieval","old_objects","283","Bulldozer.jpg","36","1","452"
"1","1","retrieval","old_objects","284","MortarPestle_BlackStone.jpg","36","1","523"
"1","1","retrieval","new_objects","285","LitterScoop.jpg","37","1","463"
"1","1","retrieval","old_objects","286","Cow.jpg","36","1","490"
"1","1","retrieval","new_objects","287","Bleachers.jpg","37","1","499"
"1","1","retrieval","old_objects","288","LampPost_OneBulb.jpg","36","1","505"
"1","1","retrieval","old_objects","289","Boat_Sail.jpg","37","0","866"
"1","1","retrieval","old_objects","290","Can_Milk.jpg","37","0","1039"
"1","1","retrieval","old_objects","291","Fence_ChainLink.jpg","37","0","796"
"1","1","retrieval","old_objects","292","Speakers_Theatre.jpg","37","0","963"
"1","1","retrieval","new_objects","293","Phone_Military.jpg","36","0","938"
"1","1","retrieval","new_objects","294","Bucket_Ice.jpg","36","0","742"
"1","1","retrieval","new_objects","295","Hazelnut.jpg","36","0","738"
"1","1","retrieval","old_objects","296","Printer.jpg","37","0","700"
"1","1","retrieval","old_objects","297","Decoration_Chinese.jpg","36","1","831"
"1","1","retrieval","new_objects","298","FireExtinguisher.jpg","37","1","743"
"1","1","retrieval","new_objects","299","Syringe_Blunt.jpg","37","1","872"
"1","1","retrieval","new_objects","300","BinRecycling.jpg","37","1","772"
"1","1","retrieval","old_objects","301","Light_Halogen.jpg","36","1","679"
"1","1","retrieval","old_objects","302","Stove_Camping.jpg","37","0","721"
"1","1","retrieval","new_objects","303","Table_Magazine.jpg","37","1","913"
"1","1","retrieval","old_objects","304","Plate_Ceramic.jpg","37","0","549"
"1","1","retrieval","new_objects","306","Case_Pencil.jpg","36","0","786"
"1","1","retrieval","new_objects","307","Toy_Wooden rings.jpg","37","1","618"
"1","1","retrieval","old_objects","308","Bolt_WithNut.jpg","37","0","789"
"1","1","retrieval","old_objects","309","Frame_Oval.jpg","37","0","638"
"1","1","retrieval","new_objects","310","BicyclePedal.jpg","37","1","725"
"1","1","retrieval","old_objects","311","Cross.jpg","36","1","604"
"1","1","retrieval","old_objects","312","Toy_Stroller.jpg","37","0","493"
"1","1","retrieval","new_objects","313","IceCream_Chocolate.jpg","36","0","661"
"1","1","retrieval","old_objects","314","HumanSkull.jpg","36","1","514"
"1","1","retrieval","new_objects","315","CigarCutter.jpg","37","1","726"
"1","1","retrieval","old_objects","316","Scythe.jpg","36","1","788"
"1","1","retrieval","old_objects","317","Jar_JellyBeans.jpg","37","0","504"
"1","1","retrieval","new_objects","318","WatermelonSlice.jpg","37","1","444"
"1","1","retrieval","new_objects","319","Drum_Brazilan.jpg","36","0","617"
"1","1","retrieval","old_objects","320","Box_Apples.jpg","36","1","551"
"1","1","retrieval","old_objects","321","SlushieMachine.jpg","36","1","551"
"1","1","retrieval","old_objects","322","SpinalCord.jpg","36","1","620"
"1","1","retrieval","new_objects","323","Popcorn.jpg","36","0","556"
"1","1","retrieval","old_objects","324","Jet.jpg","37","0","472"
"1","1","retrieval","old_objects","325","ComputerKeyboard_Backspace.jpg","36","1","593"
"1","1","retrieval","old_objects","326","Clarinet.jpg","37","0","510"
"1","1","retrieval","new_objects","327","ProcessorFood_Old.jpg","37","1","596"
"1","1","retrieval","old_objects","328","Trunk.jpg","36","1","637"
"1","1","retrieval","new_objects","329","AllTerrain.jpg","37","1","471"
"1","1","retrieval","old_objects","330","Briefcase_Leather.jpg","37","0","557"
"1","1","retrieval","new_objects","331","AnsweringMachine.jpg","37","1","503"
"1","1","retrieval","old_objects","332","Cabinet_Display.jpg","36","1","505"
"1","1","retrieval","old_objects","333","CableConnecter.jpg","37","0","581"
"1","1","retrieval","new_objects","334","Hangar.jpg","36","0","553"
"1","1","retrieval","old_objects","335","Bone.jpg","36","1","535"
"1","1","retrieval","new_objects","336","Crate_Wine.jpg","36","0","709"
"1","1","retrieval","old_objects","337","Lollipop_Grape.jpg","36","1","614"
"1","1","retrieval","old_objects","338","Lamp_Table.jpg","36","1","597"
"1","1","retrieval","old_objects","339","StreetSweeper.jpg","37","0","541"
"1","1","retrieval","new_objects","340","RiceCooker.jpg","37","1","503"
"1","1","retrieval","new_objects","341","Toy_Slide.jpg","37","1","469"
"1","1","retrieval","old_objects","342","Branch.jpg","36","1","573"
"1","1","retrieval","old_objects","343","Humidifier.jpg","37","0","612"
"1","1","retrieval","old_objects","344","Magnifying_Glass.jpg","36","1","574"
"1","1","retrieval","old_objects","345","PharoahReplica.jpg","36","1","613"
"1","1","retrieval","new_objects","346","Missile.jpg","36","0","693"
"1","1","retrieval","new_objects","347","Bench_Park.jpg","36","0","586"
"1","1","retrieval","new_objects","348","Peppermill.jpg","36","0","881"
"1","1","retrieval","old_objects","349","Cheque.jpg","37","0","602"
"1","1","retrieval","new_objects","350","Neckrest.jpg","37","1","1215"
"1","1","retrieval","old_objects","351","Walker_Silver.jpg","37","0","665"
"1","1","retrieval","new_objects","352","Chair_Office.jpg","37","1","720"
"1","1","retrieval","old_objects","353","Outhouse.jpg","36","1","770"
"1","1","retrieval","new_objects","354","Celery.jpg","37","1","797"
"1","1","retrieval","new_objects","355","Shorts_Sports.jpg","37","1","778"
"1","1","demographics_block","gender","1","Shorts_Sports.jpg","Female","1","91363"
"1","1","demographics_block","age","1","Shorts_Sports.jpg","35","1","91363"
"1","1","demographics_block","education","1","Shorts_Sports.jpg","14","1","91363"
"1","1","demographics_block","left_right_handed","2","Shorts_Sports.jpg","Right","1","8917"
"1","1","demographics_block","raceoption1","2","Shorts_Sports.jpg","0","1","8917"
"1","1","demographics_block","raceoption2","2","Shorts_Sports.jpg","","1","8917"
"1","1","demographics_block","raceoption3","2","Shorts_Sports.jpg","","1","8917"
"1","1","demographics_block","raceoption4","2","Shorts_Sports.jpg","","1","8917"
"1","1","demographics_block","raceoption5","2","Shorts_Sports.jpg","","1","8917"
"1","1","demographics_block","raceoption6","2","Shorts_Sports.jpg","","1","8917"
"1","1","demographics_block","raceoption7","2","Shorts_Sports.jpg","","1","8917"
"1","1","demographics_block","raceoption8","2","Shorts_Sports.jpg","","1","8917"
"1","1","demographics_block","raceoption9","2","Shorts_Sports.jpg","","1","8917"
"1","1","demographics_block","raceother","2","Shorts_Sports.jpg","","1","8917"
"1","1","demographics_block","raceother","2","Shorts_Sports.jpg","","1","8917"
"1","1","demographics_block","english_language","2","Shorts_Sports.jpg","Yes","1","8917"
"1","1","demographics_block","english_languageother","2","Shorts_Sports.jpg","","1","8917"
"1","1","demographics_block","eyesight","3","Shorts_Sports.jpg","Yes","1","11617"
"1","1","demographics_block","colorblind","3","Shorts_Sports.jpg","No","1","11617"
"1","1","worker_id_block","worker_id_textbox","1","Shorts_Sports.jpg","A11IIS435RPN2O","1","24746"
"4","4","encoding","encoding","1","Branch.jpg","0","0","2000"
"4","4","encoding","encoding","2","Toy_RobotTransformer.jpg","36","0","1251"
"4","4","encoding","encoding","3","Speaker_Single.jpg","36","0","805"
"4","4","encoding","encoding","4","Can_GasSpout.jpg","37","0","1765"
"4","4","encoding","encoding","5","Parcel.jpg","37","0","1867"
"4","4","encoding","encoding","6","Clarinet.jpg","36","0","1383"
"4","4","encoding","encoding","7","Stroboscope.jpg","37","0","847"
"4","4","encoding","encoding","8","Pepper_Green.jpg","0","0","2000"
"4","4","encoding","encoding","9","Vase_EarthToned.jpg","36","0","1134"
"4","4","encoding","encoding","10","ComputerKeyboard_Backspace.jpg","36","0","1142"
"4","4","encoding","encoding","11","BicycleSeat.jpg","36","0","1359"
"4","4","encoding","encoding","12","Sign_Taxi.jpg","37","0","1095"
"4","4","encoding","encoding","13","Boat_Sail.jpg","37","0","718"
"4","4","encoding","encoding","14","Speakers_Theatre.jpg","36","0","1412"
"4","4","encoding","encoding","15","DeepFryer.jpg","36","0","1875"
"4","4","encoding","encoding","16","Gazebo.jpg","37","0","745"
"4","4","encoding","encoding","17","Chest_Toys.jpg","37","0","1641"
"4","4","encoding","encoding","18","Asparagus.jpg","37","0","860"
"4","4","encoding","encoding","19","Pyramid.jpg","37","0","786"
"4","4","encoding","encoding","20","CoffeeBeans.jpg","37","0","1403"
"4","4","encoding","encoding","21","MusicSheet.jpg","36","0","911"
"4","4","encoding","encoding","22","OvenElement.jpg","37","0","1835"
"4","4","encoding","encoding","23","Key_Car.jpg","36","0","833"
"4","4","encoding","encoding","24","Spoons_MeasuringAttached.jpg","36","0","1648"
"4","4","encoding","encoding","25","Tortilla.jpg","37","0","653"
"4","4","encoding","encoding","26","Toy_Christmastree.jpg","37","0","664"
"4","4","encoding","encoding","27","Box_Chocolate.jpg","36","0","672"
"4","4","encoding","encoding","28","Bone.jpg","37","0","1758"
"4","4","encoding","encoding","29","Boat_Row.jpg","37","0","659"
"4","4","encoding","encoding","30","Spoon_Sugar.jpg","36","0","809"
"4","4","encoding","encoding","31","Seeder.jpg","36","0","1373"
"4","4","encoding","encoding","32","Jar_JellyBeans.jpg","36","0","746"
"4","4","encoding","encoding","33","Mat_Car.jpg","37","0","1037"
"4","4","encoding","encoding","34","Rag.jpg","36","0","634"
"4","4","encoding","encoding","35","ElectricOutlet.jpg","36","0","726"
"4","4","encoding","encoding","36","CableConnecter.jpg","37","0","1254"
"4","4","encoding","encoding","37","Printer.jpg","36","0","555"
"4","4","encoding","encoding","38","Cup_Fruits.jpg","36","0","1057"
"4","4","encoding","encoding","39","Aquarium.jpg","36","0","1069"
"4","4","encoding","encoding","40","Decoration_Chinese.jpg","37","0","1174"
"4","4","encoding","encoding","41","Camera_Antique.jpg","36","0","635"
"4","4","encoding","encoding","42","Nuts_Walnut.jpg","37","0","1037"
"4","4","encoding","encoding","43","Pillar.jpg","36","0","837"
"4","4","encoding","encoding","44","Trophy.jpg","36","0","1107"
"4","4","encoding","encoding","45","Sphinx.jpg","37","0","1135"
"4","4","encoding","encoding","46","TigerWhite.jpg","37","0","823"
"4","4","encoding","encoding","47","Box_Apples.jpg","36","0","638"
"4","4","encoding","encoding","48","Sieve_SideView.jpg","36","0","1610"
"4","4","encoding","encoding","49","Hat_Beanie.jpg","37","0","1419"
"4","4","encoding","encoding","50","USBKey.jpg","36","0","1966"
"4","4","encoding","encoding","51","Light_Halogen.jpg","37","0","1437"
"4","4","encoding","encoding","52","Cow.jpg","37","0","578"
"4","4","encoding","encoding","53","Toy_WoodenPlainSingle.jpg","36","0","1167"
"4","4","encoding","encoding","54","Dill.jpg","36","0","1382"
"4","4","encoding","encoding","55","Statue_VirginMary.jpg","37","0","784"
"4","4","encoding","encoding","56","Chicken_FriedDrum.jpg","36","0","1070"
"4","4","encoding","encoding","57","House_Doll.jpg","37","0","1050"
"4","4","encoding","encoding","58","Blueprints.jpg","36","0","1100"
"4","4","encoding","encoding","59","Stingray.jpg","37","0","1220"
"4","4","encoding","encoding","60","Pasta_Shell.jpg","36","0","1418"
"4","4","encoding","encoding","62","SpinningWheel.jpg","37","0","1175"
"4","4","encoding","encoding","63","Cup_Styrofoam.jpg","36","0","887"
"4","4","encoding","encoding","64","Hat_Cowboy.jpg","37","0","938"
"4","4","encoding","encoding","65","DogTreat.jpg","36","0","1347"
"4","4","encoding","encoding","66","DogSled.jpg","37","0","718"
"4","4","encoding","encoding","67","Toy_Bat.jpg","36","0","1292"
"4","4","encoding","encoding","68","Noose.jpg","36","0","901"
"4","4","encoding","encoding","69","SpongeScrubbing.jpg","36","0","791"
"4","4","encoding","encoding","70","Table_Pool.jpg","36","0","729"
"4","4","encoding","encoding","71","Bulldozer.jpg","37","0","616"
"4","4","encoding","encoding","72","Perfume.jpg","36","0","1186"
"4","4","encoding","encoding","73","Humidifier.jpg","37","0","1410"
"4","4","encoding","encoding","74","Arch.jpg","37","0","656"
"4","4","encoding","encoding","75","Toy_Taxi.jpg","36","0","1334"
"4","4","encoding","encoding","76","Tag_Price.jpg","37","0","1391"
"4","4","encoding","encoding","77","Cheesegrater_Box.jpg","36","0","858"
"4","4","encoding","encoding","78","Swing_Child.jpg","37","0","658"
"4","4","encoding","encoding","79","Easel.jpg","37","0","931"
"4","4","encoding","encoding","80","Sign_Construction.jpg","37","0","1039"
"4","4","encoding","encoding","81","Case_CD.jpg","36","0","1403"
"4","4","encoding","encoding","82","JuiceBox.jpg","36","0","1214"
"4","4","encoding","encoding","83","Can_Milk.jpg","36","0","831"
"4","4","encoding","encoding","84","Playdoh.jpg","36","0","809"
"4","4","encoding","encoding","85","Alfalfa.jpg","37","0","775"
"4","4","encoding","encoding","86","Bed_Hospital.jpg","37","0","900"
"4","4","encoding","encoding","87","Box_JeweleryWooden.jpg","36","0","1041"
"4","4","encoding","encoding","88","SpinalCord.jpg","37","0","1144"
"4","4","encoding","encoding","89","SlushieMachine.jpg","37","0","1690"
"4","4","encoding","encoding","90","Lollipop_Grape.jpg","36","0","823"
"4","4","encoding","encoding","91","Blade_Tablesaw.jpg","36","0","1110"
"4","4","encoding","encoding","92","Corkscrew.jpg","36","0","1232"
"4","4","encoding","encoding","93","Spoon_Wooden.jpg","36","0","1017"
"4","4","encoding","encoding","94","Desk_White.jpg","0","0","2000"
"4","4","encoding","encoding","95","Cart_Janitor.jpg","36","0","1108"
"4","4","encoding","encoding","96","Camera_Video.jpg","36","0","1036"
"4","4","encoding","encoding","97","Squid_Pink.jpg","37","0","1137"
"4","4","encoding","encoding","98","Glass_Martini.jpg","36","0","1058"
"4","4","encoding","encoding","99","PharoahReplica.jpg","37","0","1050"
"4","4","encoding","encoding","100","StockingChristmas.jpg","36","0","848"
"4","4","encoding","encoding","101","Sand.jpg","37","0","1474"
"4","4","encoding","encoding","102","StreetSweeper.jpg","36","0","1417"
"4","4","encoding","encoding","103","Archery_ArrowsBows.jpg","36","0","1338"
"4","4","encoding","encoding","104","Stove_Camping.jpg","37","0","1148"
"4","4","encoding","encoding","105","Magnifying_Glass.jpg","37","0","1150"
"4","4","encoding","encoding","106","Cart_Groceries.jpg","36","0","1199"
"4","4","encoding","encoding","107","MetalChain.jpg","37","0","994"
"4","4","encoding","encoding","108","Jet.jpg","37","0","749"
"4","4","encoding","encoding","109","Feet.jpg","36","0","1268"
"4","4","encoding","encoding","110","EnglishMuffin.jpg","37","0","1349"
"4","4","encoding","encoding","111","Lamp_TableWhite.jpg","36","0","974"
"4","4","encoding","encoding","112","Truck_Tanker.jpg","37","0","1219"
"4","4","encoding","encoding","113","Tray_Wooden.jpg","36","0","1294"
"4","4","encoding","encoding","114","Toy_ModelMolecule.jpg","36","0","1525"
"4","4","encoding","encoding","115","LightBulb_Blue.jpg","36","0","870"
"4","4","encoding","encoding","116","ConnectorPlug.jpg","37","0","1143"
"4","4","encoding","encoding","117","Kneepad.jpg","37","0","1361"
"4","4","encoding","encoding","118","Toy_Stroller.jpg","37","0","1613"
"4","4","encoding","encoding","119","Bolt_WithNut.jpg","36","0","1093"
"4","4","encoding","encoding","120","FuzzyDice.jpg","36","0","1854"
"4","4","encoding","encoding","121","PlantPotted.jpg","37","0","1578"
"4","4","encoding","encoding","123","Bathtub.jpg","36","0","1688"
"4","4","encoding","encoding","124","Gameboy.jpg","36","0","827"
"4","4","encoding","encoding","125","Cheque.jpg","36","0","956"
"4","4","encoding","encoding","126","Cross.jpg","37","0","766"
"4","4","encoding","encoding","127","Makeup_Compact.jpg","36","0","1312"
"4","4","encoding","encoding","128","Outhouse.jpg","36","0","847"
"4","4","encoding","encoding","129","Microscope.jpg","36","0","1192"
"4","4","encoding","encoding","130","PaintSprayer.jpg","36","0","1226"
"4","4","encoding","encoding","131","Skirt_Stripes.jpg","37","0","1303"
"4","4","encoding","encoding","132","Bark.jpg","37","0","1219"
"4","4","encoding","encoding","133","Briefcase_Leather.jpg","36","0","771"
"4","4","encoding","encoding","134","Fence_ChainLink.jpg","37","0","758"
"4","4","encoding","encoding","135","Notepad_WithPen.jpg","36","0","856"
"4","4","encoding","encoding","136","Wheelbarrow_Green.jpg","37","0","971"
"4","4","encoding","encoding","137","Pants_Firefighter.jpg","37","0","1937"
"4","4","encoding","encoding","138","Protractor.jpg","36","0","766"
"4","4","encoding","encoding","139","MortarPestle_BlackStone.jpg","36","0","1352"
"4","4","encoding","encoding","140","Mixer_Hand.jpg","36","0","1059"
"4","4","encoding","encoding","141","Pottery.jpg","36","0","1459"
"4","4","encoding","encoding","142","Microwave.jpg","36","0","1534"
"4","4","encoding","encoding","143","Pot_BlackOld.jpg","36","0","1541"
"4","4","encoding","encoding","144","Axe.jpg","36","0","1434"
"4","4","encoding","encoding","145","Kazoo.jpg","36","0","1039"
"4","4","encoding","encoding","146","Mask_Masquerade.jpg","36","0","1175"
"4","4","encoding","encoding","147","Hat_Explorer.jpg","36","0","971"
"4","4","encoding","encoding","148","LampPost_OneBulb.jpg","37","0","801"
"4","4","encoding","encoding","149","Ball_Basketball.jpg","37","0","680"
"4","4","encoding","encoding","150","Wire_ElectricalSingle.jpg","37","0","1337"
"4","4","encoding","encoding","151","Shirt_Tshirt.jpg","37","0","991"
"4","4","encoding","encoding","152","Frame_Oval.jpg","36","0","1130"
"4","4","encoding","encoding","153","Chair_Deck.jpg","37","0","1686"
"4","4","encoding","encoding","154","Sink_Bathroom.jpg","36","0","777"
"4","4","encoding","encoding","155","BabyMonitor.jpg","36","0","1156"
"4","4","encoding","encoding","156","Tribunal_Wooden.jpg","37","0","781"
"4","4","encoding","encoding","157","Lamp_Table.jpg","36","0","895"
"4","4","encoding","encoding","158","Bullet.jpg","37","0","1440"
"4","4","encoding","encoding","159","Tire_Hollow.jpg","37","0","1119"
"4","4","encoding","encoding","160","Jug_Milk.jpg","36","0","1001"
"4","4","encoding","encoding","161","Squid_Orange.jpg","37","0","954"
"4","4","encoding","encoding","162","Cabinet_Display.jpg","36","0","1050"
"4","4","encoding","encoding","163","Flower_Daisy.jpg","37","0","863"
"4","4","encoding","encoding","164","Licorice.jpg","37","0","1402"
"4","4","encoding","encoding","165","Dog_Bulldog.jpg","37","0","652"
"4","4","encoding","encoding","166","BoogieBoard.jpg","37","0","1755"
"4","4","encoding","encoding","167","Plate_Ceramic.jpg","36","0","762"
"4","4","encoding","encoding","168","Pasta_Penne.jpg","36","0","958"
"4","4","encoding","encoding","169","HumanSkull.jpg","37","0","917"
"4","4","encoding","encoding","170","Brush_Winter.jpg","37","0","1143"
"4","4","encoding","encoding","171","Walker_Silver.jpg","37","0","1400"
"4","4","encoding","encoding","172","Trunk.jpg","36","0","1675"
"4","4","encoding","encoding","173","Hat_Tuque.jpg","37","0","1032"
"4","4","encoding","encoding","174","Compact_Mirror.jpg","37","0","965"
"4","4","encoding","encoding","175","Toy_Drill.jpg","36","0","1140"
"4","4","encoding","encoding","176","Scarecrow.jpg","37","0","930"
"4","4","encoding","encoding","177","Scythe.jpg","36","0","1330"
"4","4","retrieval","new_objects","1","PaintRoller.jpg","37","1","1132"
"4","4","retrieval","old_objects","2","Blade_Tablesaw.jpg","36","1","1541"
"4","4","retrieval","old_objects","3","ElectricOutlet.jpg","36","1","941"
"4","4","retrieval","old_objects","4","Squid_Orange.jpg","36","1","1264"
"4","4","retrieval","new_objects","5","Glass_Ball.jpg","37","1","695"
"4","4","retrieval","old_objects","6","House_Doll.jpg","36","1","1588"
"4","4","retrieval","new_objects","7","Cauliflower.jpg","37","1","696"
"4","4","retrieval","new_objects","8","TotemPole.jpg","37","1","958"
"4","4","retrieval","new_objects","9","Container_Tupperware.jpg","37","1","714"
"4","4","retrieval","old_objects","10","DogSled.jpg","36","1","841"
"4","4","retrieval","new_objects","11","Hedgehog.jpg","37","1","742"
"4","4","retrieval","new_objects","12","Television.jpg","37","1","773"
"4","4","retrieval","old_objects","13","Lollipop_Grape.jpg","36","1","781"
"4","4","retrieval","new_objects","14","BinRecycling.jpg","37","1","817"
"4","4","retrieval","new_objects","15","Kettle.jpg","37","1","854"
"4","4","retrieval","old_objects","16","Spoon_Wooden.jpg","36","1","768"
"4","4","retrieval","old_objects","17","Cup_Styrofoam.jpg","37","0","1369"
"4","4","retrieval","old_objects","18","Pants_Firefighter.jpg","36","1","1402"
"4","4","retrieval","old_objects","19","Tire_Hollow.jpg","36","1","728"
"4","4","retrieval","new_objects","20","Milkshake_Strawberry.jpg","37","1","997"
"4","4","retrieval","old_objects","21","Archery_ArrowsBows.jpg","36","1","1110"
"4","4","retrieval","old_objects","22","Speaker_Single.jpg","37","0","1250"
"4","4","retrieval","new_objects","23","Donut.jpg","37","1","1019"
"4","4","retrieval","old_objects","24","Squid_Pink.jpg","36","1","834"
"4","4","retrieval","old_objects","25","Pillar.jpg","36","1","1012"
"4","4","retrieval","new_objects","26","Dresser_1.jpg","37","1","723"
"4","4","retrieval","new_objects","27","Kebab_Vegetables.jpg","37","1","727"
"4","4","retrieval","old_objects","28","Makeup_Compact.jpg","36","1","733"
"4","4","retrieval","new_objects","29","Chicken_Dinner.jpg","37","1","1267"
"4","4","retrieval","old_objects","30","Mat_Car.jpg","36","1","686"
"4","4","retrieval","new_objects","31","Photocopier.jpg","36","0","1262"
"4","4","retrieval","old_objects","32","Scarecrow.jpg","36","1","766"
"4","4","retrieval","new_objects","33","TailLight.jpg","37","1","679"
"4","4","retrieval","old_objects","34","Gameboy.jpg","36","1","593"
"4","4","retrieval","old_objects","35","Pasta_Penne.jpg","36","1","632"
"4","4","retrieval","old_objects","36","Scythe.jpg","36","1","704"
"4","4","retrieval","new_objects","37","Skates.jpg","37","1","708"
"4","4","retrieval","new_objects","38","Cart_Wooden.jpg","37","1","941"
"4","4","retrieval","new_objects","39","Dice.jpg","37","1","718"
"4","4","retrieval","old_objects","40","Boat_Row.jpg","36","1","771"
"4","4","retrieval","old_objects","41","HumanSkull.jpg","36","1","857"
"4","4","retrieval","new_objects","42","Car_Totalled.jpg","36","0","973"
"4","4","retrieval","old_objects","43","Toy_Stroller.jpg","36","1","1429"
"4","4","retrieval","new_objects","44","RemoteControl.jpg","37","1","786"
"4","4","retrieval","new_objects","45","MeasuringTape.jpg","37","1","890"
"4","4","retrieval","new_objects","46","Toy_FigurineEngineer.jpg","37","1","824"
"4","4","retrieval","old_objects","47","Tribunal_Wooden.jpg","36","1","517"
"4","4","retrieval","old_objects","48","Dog_Bulldog.jpg","36","1","856"
"4","4","retrieval","old_objects","49","Jar_JellyBeans.jpg","36","1","1275"
"4","4","retrieval","old_objects","50","JuiceBox.jpg","36","1","844"
"4","4","retrieval","new_objects","51","ProcessorFood_Modern.jpg","37","1","677"
"4","4","retrieval","new_objects","52","NintendoWii.jpg","37","1","643"
"4","4","retrieval","old_objects","53","Box_Chocolate.jpg","36","1","770"
"4","4","retrieval","old_objects","54","Playdoh.jpg","36","1","749"
"4","4","retrieval","old_objects","55","Toy_Drill.jpg","36","1","745"
"4","4","retrieval","new_objects","56","Thumbtack.jpg","37","1","695"
"4","4","retrieval","new_objects","57","DVDPlayer.jpg","37","1","773"
"4","4","retrieval","new_objects","58","Brace_Leg.jpg","37","1","1032"
"4","4","retrieval","old_objects","59","Toy_ModelMolecule.jpg","36","1","602"
"4","4","retrieval","new_objects","60","Sheep.jpg","37","1","853"
"4","4","retrieval","old_objects","62","Jet.jpg","36","1","1492"
"4","4","retrieval","old_objects","63","Cross.jpg","36","1","1067"
"4","4","retrieval","new_objects","64","Bag_Hand.jpg","37","1","947"
"4","4","retrieval","old_objects","65","Chicken_FriedDrum.jpg","36","1","734"
"4","4","retrieval","new_objects","66","Pickle.jpg","36","0","869"
"4","4","retrieval","old_objects","67","Trunk.jpg","36","1","797"
"4","4","retrieval","old_objects","68","Sign_Taxi.jpg","36","1","597"
"4","4","retrieval","old_objects","69","Alfalfa.jpg","36","1","1091"
"4","4","retrieval","old_objects","70","Mixer_Hand.jpg","37","0","789"
"4","4","retrieval","new_objects","71","HairCurler.jpg","37","1","834"
"4","4","retrieval","new_objects","72","Stone_Mill.jpg","37","1","1101"
"4","4","retrieval","old_objects","73","Table_Pool.jpg","36","1","863"
"4","4","retrieval","old_objects","74","Cup_Fruits.jpg","36","1","923"
"4","4","retrieval","old_objects","75","Mask_Masquerade.jpg","36","1","814"
"4","4","retrieval","old_objects","76","DogTreat.jpg","37","0","1250"
"4","4","retrieval","new_objects","77","Clock_Radioalarm.jpg","37","1","653"
"4","4","retrieval","old_objects","78","Sand.jpg","36","1","682"
"4","4","retrieval","new_objects","79","Bicycle_Kids.jpg","37","1","691"
"4","4","retrieval","new_objects","80","HorseshoeCrab.jpg","37","1","988"
"4","4","retrieval","new_objects","81","Handcuffs.jpg","37","1","652"
"4","4","retrieval","new_objects","82","Flower_Hibiscus.jpg","37","1","775"
"4","4","retrieval","old_objects","83","Tray_Wooden.jpg","36","1","635"
"4","4","retrieval","new_objects","84","Suitcase.jpg","37","1","797"
"4","4","retrieval","old_objects","85","Asparagus.jpg","36","1","911"
"4","4","retrieval","old_objects","86","Toy_RobotTransformer.jpg","36","1","714"
"4","4","retrieval","new_objects","87","Bag_Diaper.jpg","37","1","929"
"4","4","retrieval","new_objects","88","BusStop.jpg","37","1","868"
"4","4","retrieval","old_objects","89","Ball_Basketball.jpg","36","1","678"
"4","4","retrieval","old_objects","90","Pepper_Green.jpg","37","0","1089"
"4","4","retrieval","new_objects","91","ControlPanel.jpg","36","0","1139"
"4","4","retrieval","new_objects","92","BoxTrailer.jpg","36","0","966"
"4","4","retrieval","new_objects","93","Mirror_Carside.jpg","36","0","1040"
"4","4","retrieval","new_objects","94","Butterfly.jpg","37","1","859"
"4","4","retrieval","new_objects","95","Bird_Cardinal.jpg","37","1","690"
"4","4","retrieval","old_objects","96","MortarPestle_BlackStone.jpg","36","1","735"
"4","4","retrieval","old_objects","97","Wire_ElectricalSingle.jpg","36","1","752"
"4","4","retrieval","old_objects","98","Statue_VirginMary.jpg","36","1","788"
"4","4","retrieval","old_objects","99","Notepad_WithPen.jpg","36","1","794"
"4","4","retrieval","new_objects","100","Missile.jpg","37","1","711"
"4","4","retrieval","new_objects","101","BicycleWheel.jpg","37","1","686"
"4","4","retrieval","new_objects","102","Mat_Bamboo.jpg","37","1","645"
"4","4","retrieval","new_objects","103","SlideViewer.jpg","37","1","795"
"4","4","retrieval","new_objects","104","Neckrest.jpg","37","1","573"
"4","4","retrieval","old_objects","105","Bone.jpg","36","1","922"
"4","4","retrieval","old_objects","106","Can_GasSpout.jpg","36","1","944"
"4","4","retrieval","new_objects","107","Machine_EKG.jpg","37","1","1082"
"4","4","retrieval","new_objects","108","SafetyPin.jpg","37","1","794"
"4","4","retrieval","old_objects","109","Can_Milk.jpg","36","1","793"
"4","4","retrieval","old_objects","110","Chest_Toys.jpg","36","1","877"
"4","4","retrieval","old_objects","111","Cheesegrater_Box.jpg","36","1","774"
"4","4","retrieval","old_objects","112","Bed_Hospital.jpg","36","1","943"
"4","4","retrieval","new_objects","113","RiceCooker.jpg","37","1","666"
"4","4","retrieval","new_objects","114","Heater_ElectricUpright.jpg","36","0","808"
"4","4","retrieval","old_objects","115","Boat_Sail.jpg","36","1","1034"
"4","4","retrieval","new_objects","116","TelephoneJack.jpg","37","1","749"
"4","4","retrieval","new_objects","117","Celery.jpg","37","1","1213"
"4","4","retrieval","new_objects","118","Toy_Truck.jpg","37","1","1010"
"4","4","retrieval","old_objects","119","SpongeScrubbing.jpg","37","0","927"
"4","4","retrieval","new_objects","120","Bed_QueenSize.jpg","37","1","779"
"4","4","retrieval","new_objects","121","Pickaxe.jpg","37","1","891"
"4","4","retrieval","old_objects","123","Sphinx.jpg","37","0","969"
"4","4","retrieval","new_objects","124","Harmonica.jpg","37","1","1323"
"4","4","retrieval","old_objects","125","Kneepad.jpg","36","1","896"
"4","4","retrieval","old_objects","126","TigerWhite.jpg","36","1","1267"
"4","4","retrieval","old_objects","127","Box_JeweleryWooden.jpg","37","0","1092"
"4","4","retrieval","new_objects","128","Leg.jpg","37","1","668"
"4","4","retrieval","new_objects","129","DogToy.jpg","36","0","708"
"4","4","retrieval","new_objects","130","Heelpad.jpg","37","1","685"
"4","4","retrieval","old_objects","131","Tag_Price.jpg","36","1","833"
"4","4","retrieval","old_objects","132","Decoration_Chinese.jpg","37","0","1157"
"4","4","retrieval","new_objects","133","Lighter_Black.jpg","37","1","699"
"4","4","retrieval","new_objects","134","Leaf_Clover.jpg","36","0","943"
"4","4","retrieval","new_objects","135","Pretzel_Sticks.jpg","36","0","1120"
"4","4","retrieval","old_objects","136","Truck_Tanker.jpg","36","1","1013"
"4","4","retrieval","new_objects","137","Toy_DinosaurTRex.jpg","37","1","560"
"4","4","retrieval","old_objects","138","Trophy.jpg","37","0","813"
"4","4","retrieval","new_objects","139","SewingMachine.jpg","37","1","806"
"4","4","retrieval","old_objects","140","Cheque.jpg","36","1","716"
"4","4","retrieval","new_objects","141","Beater_Electric.jpg","36","0","688"
"4","4","retrieval","new_objects","142","Headset.jpg","37","1","663"
"4","4","retrieval","new_objects","143","GuineaPig.jpg","37","1","635"
"4","4","retrieval","old_objects","144","USBKey.jpg","37","0","885"
"4","4","retrieval","new_objects","145","Bench_Park.jpg","36","0","1400"
"4","4","retrieval","old_objects","146","Hat_Cowboy.jpg","36","1","991"
"4","4","retrieval","old_objects","147","Bark.jpg","37","0","822"
"4","4","retrieval","new_objects","148","Toy_Wooden rings.jpg","37","1","799"
"4","4","retrieval","old_objects","149","SlushieMachine.jpg","37","0","1064"
"4","4","retrieval","new_objects","150","Origami_Ox.jpg","37","1","674"
"4","4","retrieval","old_objects","151","Key_Car.jpg","36","1","990"
"4","4","retrieval","old_objects","152","Skirt_Stripes.jpg","36","1","874"
"4","4","retrieval","new_objects","153","Table_PingPong.jpg","37","1","815"
"4","4","retrieval","old_objects","154","Toy_WoodenPlainSingle.jpg","36","1","739"
"4","4","retrieval","new_objects","155","Arm.jpg","37","1","624"
"4","4","retrieval","new_objects","156","Bird_Peacock.jpg","37","1","743"
"4","4","retrieval","old_objects","157","MetalChain.jpg","37","0","700"
"4","4","retrieval","new_objects","158","Toy_Slide.jpg","37","1","780"
"4","4","retrieval","old_objects","159","Pasta_Shell.jpg","36","1","645"
"4","4","retrieval","old_objects","160","Noose.jpg","36","1","876"
"4","4","retrieval","old_objects","161","Pyramid.jpg","37","0","669"
"4","4","retrieval","old_objects","162","Flower_Daisy.jpg","36","1","806"
"4","4","retrieval","old_objects","163","Seeder.jpg","37","0","1880"
"4","4","retrieval","old_objects","164","Brush_Winter.jpg","36","1","968"
"4","4","retrieval","old_objects","165","Walker_Silver.jpg","36","1","840"
"4","4","retrieval","new_objects","166","Whip.jpg","37","1","889"
"4","4","retrieval","new_objects","167","Phone_Military.jpg","36","0","662"
"4","4","retrieval","old_objects","168","Camera_Antique.jpg","37","0","1294"
"4","4","retrieval","new_objects","169","Compressor.jpg","37","1","1110"
"4","4","retrieval","old_objects","170","Feet.jpg","37","0","1071"
"4","4","retrieval","old_objects","171","StockingChristmas.jpg","36","1","935"
"4","4","retrieval","new_objects","172","Crown.jpg","37","1","921"
"4","4","retrieval","old_objects","173","Stroboscope.jpg","37","0","1054"
"4","4","retrieval","new_objects","174","Flowers_DryBouquet.jpg","37","1","799"
"4","4","retrieval","old_objects","175","PharoahReplica.jpg","36","1","822"
"4","4","retrieval","new_objects","176","Booties_Blue.jpg","37","1","1087"
"4","4","retrieval","new_objects","177","Hottub.jpg","37","1","1167"
"4","4","retrieval","old_objects","178","SpinalCord.jpg","37","0","840"
"4","4","retrieval","old_objects","179","Sign_Construction.jpg","36","1","1066"
"4","4","retrieval","old_objects","180","PlantPotted.jpg","36","1","788"
"4","4","retrieval","new_objects","181","Sign_Wetfloor.jpg","37","1","933"
"4","4","retrieval","new_objects","182","Drum_Brazilan.jpg","37","1","1265"
"4","4","retrieval","new_objects","184","PoliceTape.jpg","37","1","693"
"4","4","retrieval","old_objects","185","Compact_Mirror.jpg","36","1","672"
"4","4","retrieval","old_objects","186","Nuts_Walnut.jpg","37","0","651"
"4","4","retrieval","new_objects","187","Makeup_Eyeshadow.jpg","37","1","868"
"4","4","retrieval","old_objects","188","Plate_Ceramic.jpg","36","1","671"
"4","4","retrieval","old_objects","189","BicycleSeat.jpg","36","1","736"
"4","4","retrieval","old_objects","190","BoogieBoard.jpg","37","0","928"
"4","4","retrieval","old_objects","191","Hat_Explorer.jpg","36","1","854"
"4","4","retrieval","old_objects","192","SpinningWheel.jpg","37","0","980"
"4","4","retrieval","old_objects","193","Lamp_Table.jpg","36","1","742"
"4","4","retrieval","new_objects","194","Statue_SouthAmerican.jpg","37","1","1632"
"4","4","retrieval","old_objects","195","Cow.jpg","36","1","661"
"4","4","retrieval","old_objects","196","LightBulb_Blue.jpg","36","1","684"
"4","4","retrieval","new_objects","197","RickShaw.jpg","37","1","768"
"4","4","retrieval","old_objects","198","Stingray.jpg","36","1","715"
"4","4","retrieval","old_objects","199","CoffeeBeans.jpg","36","1","691"
"4","4","retrieval","new_objects","200","ShearsGarden.jpg","37","1","692"
"4","4","retrieval","new_objects","201","Case_Pencil.jpg","37","1","874"
"4","4","retrieval","old_objects","202","Gazebo.jpg","37","0","928"
"4","4","retrieval","new_objects","203","Toy_Alien.jpg","37","1","795"
"4","4","retrieval","new_objects","204","Basket_Straw.jpg","37","1","708"
"4","4","retrieval","old_objects","205","Lamp_TableWhite.jpg","36","1","614"
"4","4","retrieval","new_objects","206","PyramidWooden.jpg","36","0","737"
"4","4","retrieval","new_objects","207","SoundMixer_White.jpg","37","1","773"
"4","4","retrieval","new_objects","208","Toy_Motorcycle.jpg","36","0","771"
"4","4","retrieval","old_objects","209","Parcel.jpg","36","1","818"
"4","4","retrieval","old_objects","210","Toy_Bat.jpg","36","1","753"
"4","4","retrieval","new_objects","211","Bowl_Cereal.jpg","37","1","972"
"4","4","retrieval","old_objects","212","Clarinet.jpg","37","0","746"
"4","4","retrieval","new_objects","213","Toy_Car.jpg","37","1","788"
"4","4","retrieval","old_objects","214","Branch.jpg","36","1","944"
"4","4","retrieval","old_objects","215","ComputerKeyboard_Backspace.jpg","36","1","765"
"4","4","retrieval","new_objects","216","Toy_RaceTrack.jpg","37","1","784"
"4","4","retrieval","new_objects","217","Car_Vintage.jpg","37","1","1104"
"4","4","retrieval","new_objects","218","ChewingGum.jpg","37","1","633"
"4","4","retrieval","old_objects","219","Briefcase_Leather.jpg","36","1","1264"
"4","4","retrieval","old_objects","220","Spoon_Sugar.jpg","36","1","874"
"4","4","retrieval","new_objects","221","Shorts_Sports.jpg","37","1","1247"
"4","4","retrieval","new_objects","222","Table_Magazine.jpg","37","1","1366"
"4","4","retrieval","old_objects","223","Fence_ChainLink.jpg","37","0","985"
"4","4","retrieval","old_objects","224","Magnifying_Glass.jpg","36","1","1061"
"4","4","retrieval","new_objects","225","Bucket_Rusty.jpg","37","1","702"
"4","4","retrieval","new_objects","226","Toy_Moose.jpg","37","1","1004"
"4","4","retrieval","old_objects","227","Pottery.jpg","37","0","990"
"4","4","retrieval","old_objects","228","Camera_Video.jpg","37","0","986"
"4","4","retrieval","new_objects","229","Card_QueenSpade.jpg","37","1","817"
"4","4","retrieval","new_objects","230","LitterScoop.jpg","37","1","906"
"4","4","retrieval","new_objects","231","Syringe_Blunt.jpg","37","1","763"
"4","4","retrieval","new_objects","232","GrillRack.jpg","37","1","636"
"4","4","retrieval","old_objects","233","Cabinet_Display.jpg","36","1","638"
"4","4","retrieval","old_objects","234","Outhouse.jpg","36","1","775"
"4","4","retrieval","new_objects","235","Carrot.jpg","37","1","730"
"4","4","retrieval","new_objects","236","StampAndSeal.jpg","37","1","652"
"4","4","retrieval","new_objects","237","ProcessorFood_Old.jpg","37","1","941"
"4","4","retrieval","old_objects","238","Box_Apples.jpg","37","0","706"
"4","4","retrieval","new_objects","239","Pasta_Spaghetti.jpg","37","1","704"
"4","4","retrieval","new_objects","240","Light_Fixtures.jpg","37","1","994"
"4","4","retrieval","old_objects","241","Vase_EarthToned.jpg","37","0","937"
"4","4","retrieval","old_objects","242","Shirt_Tshirt.jpg","36","1","1155"
"4","4","retrieval","old_objects","243","Protractor.jpg","36","1","729"
"4","4","retrieval","new_objects","245","Crate_Wine.jpg","37","1","957"
"4","4","retrieval","old_objects","246","Pot_BlackOld.jpg","37","0","867"
"4","4","retrieval","new_objects","247","WashRack.jpg","37","1","976"
"4","4","retrieval","old_objects","248","PaintSprayer.jpg","37","0","915"
"4","4","retrieval","new_objects","249","AllTerrain.jpg","37","1","815"
"4","4","retrieval","new_objects","250","ColumnMarble.jpg","37","1","868"
"4","4","retrieval","old_objects","251","Swing_Child.jpg","36","1","861"
"4","4","retrieval","old_objects","252","Printer.jpg","36","1","615"
"4","4","retrieval","new_objects","253","Bleachers.jpg","37","1","937"
"4","4","retrieval","new_objects","254","Bucket_Ice.jpg","37","1","714"
"4","4","retrieval","new_objects","255","Mixer_Cement.jpg","37","1","917"
"4","4","retrieval","new_objects","256","Book_Paper.jpg","36","0","899"
"4","4","retrieval","old_objects","257","LampPost_OneBulb.jpg","36","1","837"
"4","4","retrieval","new_objects","258","VacuumHead.jpg","37","1","793"
"4","4","retrieval","new_objects","259","Ball_Squashball.jpg","37","1","1135"
"4","4","retrieval","old_objects","260","Case_CD.jpg","36","1","691"
"4","4","retrieval","new_objects","261","Wreath.jpg","37","1","715"
"4","4","retrieval","new_objects","262","Scissors.jpg","36","0","569"
"4","4","retrieval","old_objects","263","BabyMonitor.jpg","36","1","777"
"4","4","retrieval","old_objects","264","Jug_Milk.jpg","36","1","569"
"4","4","retrieval","new_objects","265","Fossil.jpg","37","1","687"
"4","4","retrieval","old_objects","266","Chair_Deck.jpg","36","1","702"
"4","4","retrieval","new_objects","267","Lips_Wax.jpg","37","1","653"
"4","4","retrieval","old_objects","268","Tortilla.jpg","36","1","957"
"4","4","retrieval","new_objects","269","CigarCutter.jpg","37","1","780"
"4","4","retrieval","new_objects","270","ChocolateBar_Unwrapped.jpg","36","0","1205"
"4","4","retrieval","new_objects","271","BicyclePedal.jpg","37","1","1175"
"4","4","retrieval","new_objects","272","Scoop_Flour.jpg","37","1","847"
"4","4","retrieval","old_objects","273","Wheelbarrow_Green.jpg","36","1","840"
"4","4","retrieval","old_objects","274","DeepFryer.jpg","37","0","760"
"4","4","retrieval","new_objects","275","Inukshuk.jpg","37","1","895"
"4","4","retrieval","old_objects","276","Stove_Camping.jpg","36","1","883"
"4","4","retrieval","new_objects","277","Pot_CastIron.jpg","37","1","900"
"4","4","retrieval","new_objects","278","Spoon_Baby.jpg","37","1","1490"
"4","4","retrieval","old_objects","279","Corkscrew.jpg","36","1","823"
"4","4","retrieval","new_objects","280","Bottle_Plastic.jpg","37","1","1377"
"4","4","retrieval","new_objects","281","Wheel_Steering.jpg","37","1","889"
"4","4","retrieval","new_objects","282","Cake_Birthday.jpg","37","1","804"
"4","4","retrieval","old_objects","283","Licorice.jpg","36","1","780"
"4","4","retrieval","old_objects","284","Arch.jpg","37","0","659"
"4","4","retrieval","old_objects","285","ConnectorPlug.jpg","36","1","931"
"4","4","retrieval","new_objects","286","PaintBrushAndPallette.jpg","37","1","606"
"4","4","retrieval","old_objects","287","Microscope.jpg","36","1","898"
"4","4","retrieval","old_objects","288","Light_Halogen.jpg","36","1","973"
"4","4","retrieval","old_objects","289","Frame_Oval.jpg","36","1","1226"
"4","4","retrieval","new_objects","290","Toy_DogBall.jpg","37","1","692"
"4","4","retrieval","new_objects","291","BadgeSpecialAgent.jpg","37","1","943"
"4","4","retrieval","old_objects","292","Perfume.jpg","37","0","915"
"4","4","retrieval","old_objects","293","Spoons_MeasuringAttached.jpg","36","1","639"
"4","4","retrieval","old_objects","294","Blueprints.jpg","36","1","727"
"4","4","retrieval","new_objects","295","Gun_Nerf.jpg","36","0","1238"
"4","4","retrieval","old_objects","296","MusicSheet.jpg","36","1","754"
"4","4","retrieval","new_objects","297","AnsweringMachine.jpg","37","1","653"
"4","4","retrieval","new_objects","298","Toy_SandRake.jpg","36","0","720"
"4","4","retrieval","new_objects","299","Iron_Antique.jpg","37","1","940"
"4","4","retrieval","old_objects","300","Toy_Christmastree.jpg","36","1","647"
"4","4","retrieval","new_objects","301","Chair_Office.jpg","37","1","957"
"4","4","retrieval","old_objects","302","EnglishMuffin.jpg","36","1","819"
"4","4","retrieval","old_objects","303","Desk_White.jpg","37","0","876"
"4","4","retrieval","old_objects","304","Dill.jpg","37","0","1160"
"4","4","retrieval","new_objects","306","Pig.jpg","37","1","1289"
"4","4","retrieval","old_objects","307","Hat_Tuque.jpg","36","1","610"
"4","4","retrieval","new_objects","308","Ladybug.jpg","37","1","604"
"4","4","retrieval","new_objects","309","BakingDish.jpg","37","1","633"
"4","4","retrieval","new_objects","310","Hangar.jpg","36","0","823"
"4","4","retrieval","old_objects","311","CableConnecter.jpg","37","0","1312"
"4","4","retrieval","old_objects","312","Aquarium.jpg","37","0","1167"
"4","4","retrieval","old_objects","313","Humidifier.jpg","36","1","942"
"4","4","retrieval","new_objects","314","Case_DVD.jpg","36","0","884"
"4","4","retrieval","new_objects","315","Truck_Box.jpg","37","1","881"
"4","4","retrieval","new_objects","316","Popcorn.jpg","37","1","516"
"4","4","retrieval","new_objects","317","Camera_Digital.jpg","36","0","720"
"4","4","retrieval","old_objects","318","StreetSweeper.jpg","36","1","1111"
"4","4","retrieval","old_objects","319","Toy_Taxi.jpg","36","1","613"
"4","4","retrieval","old_objects","320","Sink_Bathroom.jpg","36","1","566"
"4","4","retrieval","new_objects","321","Ring_Plain.jpg","37","1","818"
"4","4","retrieval","old_objects","322","Glass_Martini.jpg","37","0","704"
"4","4","retrieval","old_objects","323","OvenElement.jpg","36","1","769"
"4","4","retrieval","new_objects","324","Shoes_Snow.jpg","37","1","1199"
"4","4","retrieval","new_objects","325","BicycleGear.jpg","37","1","604"
"4","4","retrieval","old_objects","326","Microwave.jpg","36","1","591"
"4","4","retrieval","new_objects","327","Condom.jpg","37","1","797"
"4","4","retrieval","old_objects","328","Bullet.jpg","36","1","769"
"4","4","retrieval","old_objects","329","Bathtub.jpg","36","1","651"
"4","4","retrieval","new_objects","330","IceCream_Chocolate.jpg","37","1","707"
"4","4","retrieval","old_objects","331","Rag.jpg","37","0","890"
"4","4","retrieval","new_objects","332","FireExtinguisher.jpg","36","0","1066"
"4","4","retrieval","new_objects","333","Bowl_Flour.jpg","37","1","636"
"4","4","retrieval","old_objects","334","Bolt_WithNut.jpg","37","0","702"
"4","4","retrieval","old_objects","335","Speakers_Theatre.jpg","37","0","1157"
"4","4","retrieval","new_objects","336","Broom_Long.jpg","37","1","1228"
"4","4","retrieval","old_objects","337","Easel.jpg","37","0","765"
"4","4","retrieval","new_objects","338","Brush_BathBack.jpg","37","1","959"
"4","4","retrieval","old_objects","339","FuzzyDice.jpg","37","0","870"
"4","4","retrieval","old_objects","340","Bulldozer.jpg","36","1","880"
"4","4","retrieval","new_objects","341","Peeler.jpg","37","1","703"
"4","4","retrieval","old_objects","342","Cart_Janitor.jpg","37","0","924"
"4","4","retrieval","old_objects","343","Kazoo.jpg","36","1","756"
"4","4","retrieval","new_objects","344","Lobster.jpg","37","1","726"
"4","4","retrieval","old_objects","345","Axe.jpg","37","0","908"
"4","4","retrieval","new_objects","346","AlarmSystem.jpg","37","1","860"
"4","4","retrieval","old_objects","347","Sieve_SideView.jpg","36","1","968"
"4","4","retrieval","new_objects","348","Bread_Melon.jpg","37","1","913"
"4","4","retrieval","new_objects","349","Peppermill.jpg","37","1","952"
"4","4","retrieval","old_objects","350","Cart_Groceries.jpg","36","1","725"
"4","4","retrieval","old_objects","351","Hat_Beanie.jpg","36","1","613"
"4","4","retrieval","new_objects","352","ElectricSwitchboard.jpg","37","1","653"
"4","4","retrieval","new_objects","353","Hazelnut.jpg","37","1","677"
"4","4","retrieval","new_objects","354","Cord_usb.jpg","37","1","1180"
"4","4","retrieval","new_objects","355","WatermelonSlice.jpg","37","1","900"
"4","4","demographics_block","gender","1","WatermelonSlice.jpg","Male","1","8565"
"4","4","demographics_block","age","1","WatermelonSlice.jpg","20","1","8565"
"4","4","demographics_block","education","1","WatermelonSlice.jpg","14","1","8565"
"4","4","demographics_block","left_right_handed","2","WatermelonSlice.jpg","Left","1","5032"
"4","4","demographics_block","raceoption1","2","WatermelonSlice.jpg","","1","5032"
"4","4","demographics_block","raceoption2","2","WatermelonSlice.jpg","","1","5032"
"4","4","demographics_block","raceoption3","2","WatermelonSlice.jpg","2","1","5032"
"4","4","demographics_block","raceoption4","2","WatermelonSlice.jpg","","1","5032"
"4","4","demographics_block","raceoption5","2","WatermelonSlice.jpg","","1","5032"
"4","4","demographics_block","raceoption6","2","WatermelonSlice.jpg","","1","5032"
"4","4","demographics_block","raceoption7","2","WatermelonSlice.jpg","","1","5032"
"4","4","demographics_block","raceoption8","2","WatermelonSlice.jpg","","1","5032"
"4","4","demographics_block","raceoption9","2","WatermelonSlice.jpg","","1","5032"
"4","4","demographics_block","raceother","2","WatermelonSlice.jpg","","1","5032"
"4","4","demographics_block","raceother","2","WatermelonSlice.jpg","","1","5032"
"4","4","demographics_block","english_language","2","WatermelonSlice.jpg","Yes","1","5032"
"4","4","demographics_block","english_languageother","2","WatermelonSlice.jpg","","1","5032"
"4","4","demographics_block","eyesight","3","WatermelonSlice.jpg","Yes","1","3535"
"4","4","demographics_block","colorblind","3","WatermelonSlice.jpg","No","1","3535"
"4","4","worker_id_block","worker_id_textbox","1","WatermelonSlice.jpg","A3HKMZ9ML9EPUY","1","2022"
"6","6","encoding","encoding","1","Squid_Orange.jpg","37","0","1159"
"6","6","encoding","encoding","2","Parcel.jpg","36","0","1056"
"6","6","encoding","encoding","3","Chicken_FriedDrum.jpg","36","0","1089"
"6","6","encoding","encoding","4","Light_Halogen.jpg","37","0","1467"
"6","6","encoding","encoding","5","Asparagus.jpg","36","0","1667"
"6","6","encoding","encoding","6","Humidifier.jpg","36","0","1228"
"6","6","encoding","encoding","7","Axe.jpg","37","0","1728"
"6","6","encoding","encoding","8","Boat_Row.jpg","37","0","1488"
"6","6","encoding","encoding","9","DogSled.jpg","37","0","1176"
"6","6","encoding","encoding","10","Toy_RobotTransformer.jpg","36","0","817"
"6","6","encoding","encoding","11","Dill.jpg","37","0","948"
"6","6","encoding","encoding","12","Microwave.jpg","36","0","969"
"6","6","encoding","encoding","13","JuiceBox.jpg","36","0","960"
"6","6","encoding","encoding","14","Cross.jpg","37","0","1277"
"6","6","encoding","encoding","15","BicycleSeat.jpg","37","0","1401"
"6","6","encoding","encoding","16","Trunk.jpg","37","0","1378"
"6","6","encoding","encoding","17","Blueprints.jpg","0","0","2000"
"6","6","encoding","encoding","18","Speakers_Theatre.jpg","36","0","1169"
"6","6","encoding","encoding","19","Case_CD.jpg","36","0","788"
"6","6","encoding","encoding","20","Toy_Drill.jpg","36","0","1215"
"6","6","encoding","encoding","21","MusicSheet.jpg","36","0","1246"
"6","6","encoding","encoding","22","Cheque.jpg","36","0","812"
"6","6","encoding","encoding","23","Blade_Tablesaw.jpg","36","0","999"
"6","6","encoding","encoding","24","Compact_Mirror.jpg","36","0","1121"
"6","6","encoding","encoding","25","Kneepad.jpg","36","0","1189"
"6","6","encoding","encoding","26","ComputerKeyboard_Backspace.jpg","36","0","935"
"6","6","encoding","encoding","27","Cow.jpg","37","0","778"
"6","6","encoding","encoding","28","Cup_Fruits.jpg","36","0","1016"
"6","6","encoding","encoding","29","Sphinx.jpg","37","0","1657"
"6","6","encoding","encoding","30","Pottery.jpg","36","0","1292"
"6","6","encoding","encoding","31","ConnectorPlug.jpg","36","0","1047"
"6","6","encoding","encoding","32","Clarinet.jpg","36","0","1386"
"6","6","encoding","encoding","33","StreetSweeper.jpg","0","0","2000"
"6","6","encoding","encoding","34","Pepper_Green.jpg","0","0","2000"
"6","6","encoding","encoding","35","Bone.jpg","37","0","939"
"6","6","encoding","encoding","36","Boat_Sail.jpg","37","0","1248"
"6","6","encoding","encoding","37","Notepad_WithPen.jpg","36","0","700"
"6","6","encoding","encoding","38","Sand.jpg","37","0","866"
"6","6","encoding","encoding","39","PharoahReplica.jpg","37","0","1231"
"6","6","encoding","encoding","40","Rag.jpg","36","0","1092"
"6","6","encoding","encoding","41","Brush_Winter.jpg","37","0","988"
"6","6","encoding","encoding","42","Makeup_Compact.jpg","36","0","928"
"6","6","encoding","encoding","43","Sieve_SideView.jpg","36","0","825"
"6","6","encoding","encoding","44","Stroboscope.jpg","37","0","791"
"6","6","encoding","encoding","45","Key_Car.jpg","36","0","825"
"6","6","encoding","encoding","46","Statue_VirginMary.jpg","37","0","1021"
"6","6","encoding","encoding","47","Bulldozer.jpg","37","0","1251"
"6","6","encoding","encoding","48","ElectricOutlet.jpg","36","0","625"
"6","6","encoding","encoding","49","Easel.jpg","36","0","1107"
"6","6","encoding","encoding","50","Stove_Camping.jpg","36","0","1477"
"6","6","encoding","encoding","51","Jar_JellyBeans.jpg","36","0","1539"
"6","6","encoding","encoding","52","Squid_Pink.jpg","37","0","1056"
"6","6","encoding","encoding","53","Cup_Styrofoam.jpg","36","0","986"
"6","6","encoding","encoding","54","Cart_Groceries.jpg","36","0","1469"
"6","6","encoding","encoding","55","Protractor.jpg","36","0","1205"
"6","6","encoding","encoding","56","LampPost_OneBulb.jpg","37","0","1112"
"6","6","encoding","encoding","57","Jet.jpg","37","0","1266"
"6","6","encoding","encoding","58","Toy_WoodenPlainSingle.jpg","36","0","957"
"6","6","encoding","encoding","59","Can_GasSpout.jpg","37","0","1109"
"6","6","encoding","encoding","60","Mat_Car.jpg","36","0","898"
"6","6","encoding","encoding","62","Sign_Construction.jpg","37","0","1479"
"6","6","encoding","encoding","63","Spoon_Sugar.jpg","36","0","622"
"6","6","encoding","encoding","64","Magnifying_Glass.jpg","36","0","887"
"6","6","encoding","encoding","65","Dog_Bulldog.jpg","36","0","1224"
"6","6","encoding","encoding","66","Swing_Child.jpg","37","0","1566"
"6","6","encoding","encoding","67","Tire_Hollow.jpg","37","0","1368"
"6","6","encoding","encoding","68","Nuts_Walnut.jpg","37","0","1401"
"6","6","encoding","encoding","69","Wire_ElectricalSingle.jpg","37","0","1606"
"6","6","encoding","encoding","70","Toy_Stroller.jpg","37","0","1577"
"6","6","encoding","encoding","71","Walker_Silver.jpg","37","0","1247"
"6","6","encoding","encoding","72","Alfalfa.jpg","37","0","654"
"6","6","encoding","encoding","73","Briefcase_Leather.jpg","36","0","724"
"6","6","encoding","encoding","74","Lamp_TableWhite.jpg","36","0","733"
"6","6","encoding","encoding","75","Trophy.jpg","36","0","1007"
"6","6","encoding","encoding","76","Tribunal_Wooden.jpg","36","0","1100"
"6","6","encoding","encoding","77","OvenElement.jpg","36","0","840"
"6","6","encoding","encoding","78","Flower_Daisy.jpg","37","0","920"
"6","6","encoding","encoding","79","Toy_Taxi.jpg","36","0","1319"
"6","6","encoding","encoding","80","Lamp_Table.jpg","36","0","740"
"6","6","encoding","encoding","81","SpinalCord.jpg","37","0","1180"
"6","6","encoding","encoding","82","Cheesegrater_Box.jpg","36","0","950"
"6","6","encoding","encoding","83","Pasta_Penne.jpg","36","0","914"
"6","6","encoding","encoding","84","Corkscrew.jpg","36","0","930"
"6","6","encoding","encoding","85","SlushieMachine.jpg","36","0","1641"
"6","6","encoding","encoding","86","DogTreat.jpg","36","0","916"
"6","6","encoding","encoding","87","Bathtub.jpg","36","0","984"
"6","6","encoding","encoding","88","Playdoh.jpg","36","0","835"
"6","6","encoding","encoding","89","Chest_Toys.jpg","36","0","893"
"6","6","encoding","encoding","90","Microscope.jpg","36","0","747"
"6","6","encoding","encoding","91","Ball_Basketball.jpg","37","0","742"
"6","6","encoding","encoding","92","Pot_BlackOld.jpg","37","0","1462"
"6","6","encoding","encoding","93","FuzzyDice.jpg","36","0","922"
"6","6","encoding","encoding","94","CableConnecter.jpg","36","0","937"
"6","6","encoding","encoding","95","Jug_Milk.jpg","36","0","667"
"6","6","encoding","encoding","96","TigerWhite.jpg","37","0","687"
"6","6","encoding","encoding","97","EnglishMuffin.jpg","36","0","654"
"6","6","encoding","encoding","98","Speaker_Single.jpg","36","0","704"
"6","6","encoding","encoding","99","Hat_Beanie.jpg","36","0","537"
"6","6","encoding","encoding","100","SpongeScrubbing.jpg","36","0","613"
"6","6","encoding","encoding","101","Box_Chocolate.jpg","36","0","672"
"6","6","encoding","encoding","102","Tortilla.jpg","36","0","1133"
"6","6","encoding","encoding","103","Pasta_Shell.jpg","36","0","548"
"6","6","encoding","encoding","104","Box_Apples.jpg","36","0","1064"
"6","6","encoding","encoding","105","Bullet.jpg","36","0","1046"
"6","6","encoding","encoding","106","USBKey.jpg","36","0","923"
"6","6","encoding","encoding","107","Gameboy.jpg","36","0","892"
"6","6","encoding","encoding","108","Glass_Martini.jpg","36","0","711"
"6","6","encoding","encoding","109","BabyMonitor.jpg","36","0","741"
"6","6","encoding","encoding","110","StockingChristmas.jpg","36","0","568"
"6","6","encoding","encoding","111","Hat_Tuque.jpg","36","0","1027"
"6","6","encoding","encoding","112","Hat_Cowboy.jpg","37","0","1290"
"6","6","encoding","encoding","113","Sink_Bathroom.jpg","36","0","1244"
"6","6","encoding","encoding","114","Pillar.jpg","36","0","1332"
"6","6","encoding","encoding","115","Scythe.jpg","37","0","1195"
"6","6","encoding","encoding","116","Can_Milk.jpg","36","0","679"
"6","6","encoding","encoding","117","Pyramid.jpg","37","0","674"
"6","6","encoding","encoding","118","SpinningWheel.jpg","36","0","779"
"6","6","encoding","encoding","119","LightBulb_Blue.jpg","36","0","823"
"6","6","encoding","encoding","120","Wheelbarrow_Green.jpg","37","0","1104"
"6","6","encoding","encoding","121","Hat_Explorer.jpg","37","0","1214"
"6","6","encoding","encoding","123","Bed_Hospital.jpg","36","0","1415"
"6","6","encoding","encoding","124","Toy_Bat.jpg","37","0","1058"
"6","6","encoding","encoding","125","Kazoo.jpg","36","0","982"
"6","6","encoding","encoding","126","Truck_Tanker.jpg","37","0","730"
"6","6","encoding","encoding","127","Tag_Price.jpg","36","0","824"
"6","6","encoding","encoding","128","Sign_Taxi.jpg","37","0","995"
"6","6","encoding","encoding","129","Fence_ChainLink.jpg","37","0","1235"
"6","6","encoding","encoding","130","DeepFryer.jpg","36","0","965"
"6","6","encoding","encoding","131","Camera_Antique.jpg","36","0","1462"
"6","6","encoding","encoding","132","Archery_ArrowsBows.jpg","37","0","1404"
"6","6","encoding","encoding","133","Aquarium.jpg","36","0","741"
"6","6","encoding","encoding","134","Chair_Deck.jpg","37","0","1211"
"6","6","encoding","encoding","135","Table_Pool.jpg","0","0","2000"
"6","6","encoding","encoding","136","Arch.jpg","37","0","857"
"6","6","encoding","encoding","137","Mask_Masquerade.jpg","36","0","620"
"6","6","encoding","encoding","138","Stingray.jpg","37","0","1164"
"6","6","encoding","encoding","139","Cart_Janitor.jpg","36","0","642"
"6","6","encoding","encoding","140","Vase_EarthToned.jpg","36","0","1128"
"6","6","encoding","encoding","141","House_Doll.jpg","36","0","1019"
"6","6","encoding","encoding","142","Lollipop_Grape.jpg","36","0","1074"
"6","6","encoding","encoding","143","Branch.jpg","0","0","2000"
"6","6","encoding","encoding","144","Camera_Video.jpg","36","0","804"
"6","6","encoding","encoding","145","Tray_Wooden.jpg","36","0","970"
"6","6","encoding","encoding","146","Gazebo.jpg","37","0","669"
"6","6","encoding","encoding","147","Seeder.jpg","36","0","1922"
"6","6","encoding","encoding","148","Cabinet_Display.jpg","36","0","732"
"6","6","encoding","encoding","149","Shirt_Tshirt.jpg","36","0","1036"
"6","6","encoding","encoding","150","Spoons_MeasuringAttached.jpg","36","0","904"
"6","6","encoding","encoding","151","Bark.jpg","37","0","740"
"6","6","encoding","encoding","152","Toy_Christmastree.jpg","37","0","787"
"6","6","encoding","encoding","153","BoogieBoard.jpg","36","0","650"
"6","6","encoding","encoding","154","Bolt_WithNut.jpg","36","0","589"
"6","6","encoding","encoding","155","PaintSprayer.jpg","36","0","852"
"6","6","encoding","encoding","156","Box_JeweleryWooden.jpg","36","0","834"
"6","6","encoding","encoding","157","Spoon_Wooden.jpg","36","0","917"
"6","6","encoding","encoding","158","HumanSkull.jpg","36","0","1116"
"6","6","encoding","encoding","159","Frame_Oval.jpg","36","0","929"
"6","6","encoding","encoding","160","MetalChain.jpg","36","0","1001"
"6","6","encoding","encoding","161","Licorice.jpg","36","0","959"
"6","6","encoding","encoding","162","Noose.jpg","36","0","1062"
"6","6","encoding","encoding","163","Perfume.jpg","36","0","627"
"6","6","encoding","encoding","164","Plate_Ceramic.jpg","36","0","544"
"6","6","encoding","encoding","165","Toy_ModelMolecule.jpg","36","0","873"
"6","6","encoding","encoding","166","CoffeeBeans.jpg","36","0","941"
"6","6","encoding","encoding","167","Decoration_Chinese.jpg","36","0","723"
"6","6","encoding","encoding","168","Feet.jpg","36","0","945"
"6","6","encoding","encoding","169","Mixer_Hand.jpg","36","0","766"
"6","6","encoding","encoding","170","Pants_Firefighter.jpg","37","0","1240"
"6","6","encoding","encoding","171","MortarPestle_BlackStone.jpg","36","0","865"
"6","6","encoding","encoding","172","Scarecrow.jpg","36","0","800"
"6","6","encoding","encoding","173","Outhouse.jpg","37","0","591"
"6","6","encoding","encoding","174","Skirt_Stripes.jpg","36","0","664"
"6","6","encoding","encoding","175","Desk_White.jpg","36","0","590"
"6","6","encoding","encoding","176","Printer.jpg","36","0","806"
"6","6","encoding","encoding","177","PlantPotted.jpg","37","0","599"
"6","6","retrieval","old_objects","1","StreetSweeper.jpg","37","0","1631"
"6","6","retrieval","new_objects","2","Toy_Car.jpg","37","1","631"
"6","6","retrieval","old_objects","3","Spoons_MeasuringAttached.jpg","36","1","575"
"6","6","retrieval","old_objects","4","Trunk.jpg","36","1","788"
"6","6","retrieval","new_objects","5","StampAndSeal.jpg","37","1","976"
"6","6","retrieval","old_objects","6","Bulldozer.jpg","37","0","709"
"6","6","retrieval","new_objects","7","Mat_Bamboo.jpg","37","1","617"
"6","6","retrieval","new_objects","8","Handcuffs.jpg","37","1","876"
"6","6","retrieval","old_objects","9","Nuts_Walnut.jpg","36","1","633"
"6","6","retrieval","new_objects","10","Bag_Diaper.jpg","37","1","672"
"6","6","retrieval","new_objects","11","Case_Pencil.jpg","37","1","652"
"6","6","retrieval","new_objects","12","Kettle.jpg","37","1","1103"
"6","6","retrieval","old_objects","13","BabyMonitor.jpg","36","1","861"
"6","6","retrieval","new_objects","14","Celery.jpg","37","1","709"
"6","6","retrieval","new_objects","15","TotemPole.jpg","37","1","675"
"6","6","retrieval","old_objects","16","Stingray.jpg","36","1","703"
"6","6","retrieval","old_objects","17","Seeder.jpg","36","1","618"
"6","6","retrieval","new_objects","18","Spoon_Baby.jpg","37","1","710"
"6","6","retrieval","new_objects","19","Light_Fixtures.jpg","36","0","759"
"6","6","retrieval","old_objects","20","Cow.jpg","36","1","684"
"6","6","retrieval","new_objects","21","Heelpad.jpg","37","1","725"
"6","6","retrieval","new_objects","22","BicycleGear.jpg","37","1","645"
"6","6","retrieval","new_objects","23","Shoes_Snow.jpg","37","1","1111"
"6","6","retrieval","new_objects","24","Gun_Nerf.jpg","37","1","726"
"6","6","retrieval","new_objects","25","Chicken_Dinner.jpg","37","1","713"
"6","6","retrieval","old_objects","26","Printer.jpg","36","1","562"
"6","6","retrieval","old_objects","27","Asparagus.jpg","36","1","558"
"6","6","retrieval","new_objects","28","Container_Tupperware.jpg","37","1","631"
"6","6","retrieval","new_objects","29","Drum_Brazilan.jpg","37","1","764"
"6","6","retrieval","old_objects","30","Boat_Row.jpg","37","0","827"
"6","6","retrieval","new_objects","31","Scissors.jpg","37","1","694"
"6","6","retrieval","old_objects","32","Bark.jpg","36","1","656"
"6","6","retrieval","new_objects","33","Camera_Digital.jpg","37","1","694"
"6","6","retrieval","old_objects","34","Feet.jpg","36","1","593"
"6","6","retrieval","new_objects","35","Dice.jpg","37","1","573"
"6","6","retrieval","old_objects","36","Spoon_Wooden.jpg","36","1","909"
"6","6","retrieval","new_objects","37","BoxTrailer.jpg","37","1","1070"
"6","6","retrieval","old_objects","38","Wheelbarrow_Green.jpg","36","1","799"
"6","6","retrieval","new_objects","39","AllTerrain.jpg","37","1","942"
"6","6","retrieval","old_objects","40","Humidifier.jpg","36","1","900"
"6","6","retrieval","new_objects","41","PyramidWooden.jpg","37","1","1248"
"6","6","retrieval","new_objects","42","AlarmSystem.jpg","37","1","683"
"6","6","retrieval","new_objects","43","Bottle_Plastic.jpg","37","1","708"
"6","6","retrieval","new_objects","44","PoliceTape.jpg","37","1","573"
"6","6","retrieval","new_objects","45","Wheel_Steering.jpg","37","1","559"
"6","6","retrieval","old_objects","46","JuiceBox.jpg","37","0","582"
"6","6","retrieval","new_objects","47","Toy_DogBall.jpg","37","1","585"
"6","6","retrieval","new_objects","48","BicycleWheel.jpg","37","1","722"
"6","6","retrieval","old_objects","49","Kneepad.jpg","37","0","1233"
"6","6","retrieval","new_objects","50","DVDPlayer.jpg","37","1","794"
"6","6","retrieval","new_objects","51","LitterScoop.jpg","37","1","665"
"6","6","retrieval","old_objects","52","Tortilla.jpg","36","1","576"
"6","6","retrieval","new_objects","53","Bucket_Rusty.jpg","37","1","908"
"6","6","retrieval","new_objects","54","IceCream_Chocolate.jpg","37","1","779"
"6","6","retrieval","old_objects","55","USBKey.jpg","36","1","937"
"6","6","retrieval","new_objects","56","Lips_Wax.jpg","37","1","588"
"6","6","retrieval","old_objects","57","LampPost_OneBulb.jpg","36","1","799"
"6","6","retrieval","old_objects","58","Jug_Milk.jpg","36","1","719"
"6","6","retrieval","new_objects","59","ProcessorFood_Modern.jpg","36","0","800"
"6","6","retrieval","new_objects","60","Sheep.jpg","37","1","610"
"6","6","retrieval","new_objects","62","Beater_Electric.jpg","37","1","771"
"6","6","retrieval","new_objects","63","Makeup_Eyeshadow.jpg","37","1","614"
"6","6","retrieval","new_objects","64","Phone_Military.jpg","37","1","583"
"6","6","retrieval","old_objects","65","Arch.jpg","36","1","582"
"6","6","retrieval","new_objects","66","Bucket_Ice.jpg","37","1","700"
"6","6","retrieval","old_objects","67","Clarinet.jpg","36","1","912"
"6","6","retrieval","old_objects","68","Cart_Groceries.jpg","36","1","617"
"6","6","retrieval","new_objects","69","Lighter_Black.jpg","37","1","622"
"6","6","retrieval","old_objects","70","Lamp_TableWhite.jpg","36","1","769"
"6","6","retrieval","new_objects","71","Book_Paper.jpg","37","1","515"
"6","6","retrieval","old_objects","72","Speakers_Theatre.jpg","37","0","577"
"6","6","retrieval","old_objects","73","Mat_Car.jpg","36","1","707"
"6","6","retrieval","old_objects","74","Corkscrew.jpg","36","1","743"
"6","6","retrieval","new_objects","75","TailLight.jpg","37","1","598"
"6","6","retrieval","new_objects","76","Cake_Birthday.jpg","37","1","704"
"6","6","retrieval","new_objects","77","Toy_Motorcycle.jpg","37","1","573"
"6","6","retrieval","old_objects","78","Protractor.jpg","36","1","819"
"6","6","retrieval","old_objects","79","Hat_Explorer.jpg","37","0","7"
"6","6","retrieval","new_objects","80","PaintRoller.jpg","37","1","718"
"6","6","retrieval","old_objects","81","PaintSprayer.jpg","36","1","730"
"6","6","retrieval","old_objects","82","Pillar.jpg","36","1","695"
"6","6","retrieval","new_objects","83","Bowl_Cereal.jpg","37","1","605"
"6","6","retrieval","old_objects","84","Case_CD.jpg","36","1","746"
"6","6","retrieval","old_objects","85","Pyramid.jpg","36","1","577"
"6","6","retrieval","old_objects","86","Box_JeweleryWooden.jpg","36","1","718"
"6","6","retrieval","new_objects","87","Scoop_Flour.jpg","37","1","676"
"6","6","retrieval","old_objects","88","DogTreat.jpg","36","1","625"
"6","6","retrieval","new_objects","89","Heater_ElectricUpright.jpg","37","1","744"
"6","6","retrieval","new_objects","90","BakingDish.jpg","37","1","722"
"6","6","retrieval","old_objects","91","Jar_JellyBeans.jpg","36","1","616"
"6","6","retrieval","old_objects","92","Cabinet_Display.jpg","37","0","752"
"6","6","retrieval","old_objects","93","Plate_Ceramic.jpg","36","1","588"
"6","6","retrieval","new_objects","94","Crate_Wine.jpg","37","1","745"
"6","6","retrieval","old_objects","95","Camera_Antique.jpg","37","0","733"
"6","6","retrieval","old_objects","96","Tribunal_Wooden.jpg","37","0","1068"
"6","6","retrieval","old_objects","97","Toy_Christmastree.jpg","36","1","644"
"6","6","retrieval","old_objects","98","BoogieBoard.jpg","36","1","648"
"6","6","retrieval","old_objects","99","Can_GasSpout.jpg","36","1","625"
"6","6","retrieval","new_objects","100","Iron_Antique.jpg","37","1","605"
"6","6","retrieval","old_objects","101","Pants_Firefighter.jpg","36","1","799"
"6","6","retrieval","new_objects","102","SafetyPin.jpg","37","1","714"
"6","6","retrieval","old_objects","103","Notepad_WithPen.jpg","37","0","702"
"6","6","retrieval","old_objects","104","Bed_Hospital.jpg","37","0","706"
"6","6","retrieval","old_objects","105","Toy_Stroller.jpg","36","1","674"
"6","6","retrieval","old_objects","106","CableConnecter.jpg","37","0","920"
"6","6","retrieval","new_objects","107","Leaf_Clover.jpg","37","1","633"
"6","6","retrieval","new_objects","108","ChewingGum.jpg","37","1","715"
"6","6","retrieval","old_objects","109","Stove_Camping.jpg","37","0","1408"
"6","6","retrieval","new_objects","110","Ball_Squashball.jpg","37","1","762"
"6","6","retrieval","old_objects","111","Lamp_Table.jpg","36","1","852"
"6","6","retrieval","old_objects","112","Box_Chocolate.jpg","36","1","1011"
