"group","subject","blockcode","trialcode","trialnum","values.stimulus","response","correct","latency"
"2","2","encoding","encoding","1","Tofu.jpg","36","0","893"
"2","2","encoding","encoding","2","Bellows.jpg","36","0","1614"
"2","2","encoding","encoding","3","Backpack_Travel.jpg","37","0","1784"
"2","2","encoding","encoding","4","Flamingo_Real.jpg","37","0","859"
"2","2","encoding","encoding","5","Bus_DoubleDecker.jpg","37","0","709"
"2","2","encoding","encoding","6","Bag_Gift.jpg","37","0","1935"
"2","2","encoding","encoding","7","Speaker_OnStand.jpg","36","0","1632"
"2","2","encoding","encoding","8","PhoneCase.jpg","36","0","1556"
"2","2","encoding","encoding","9","Pen_Calligraphy.jpg","36","0","910"
"2","2","encoding","encoding","10","Makeup_Mascara.jpg","36","0","840"
"2","2","encoding","encoding","11","Toy_Train.jpg","37","0","1282"
"2","2","encoding","encoding","12","Corkboard.jpg","36","0","1029"
"2","2","encoding","encoding","13","MalletJudge.jpg","36","0","671"
"2","2","encoding","encoding","14","ClothRed.jpg","36","0","1033"
"2","2","encoding","encoding","15","Coatrack.jpg","36","0","675"
"2","2","encoding","encoding","16","GingerbreadMan.jpg","36","0","685"
"2","2","encoding","encoding","17","Seashell_BayScallop.jpg","37","0","864"
"2","2","encoding","encoding","18","Horseshoe.jpg","37","0","826"
"2","2","encoding","encoding","19","Trumpet.jpg","36","0","1060"
"2","2","encoding","encoding","20","Noisemaker.jpg","37","0","1150"
"2","2","encoding","encoding","21","BloodpPresureCuff.jpg","36","0","1089"
"2","2","encoding","encoding","22","fries.jpg","36","0","827"
"2","2","encoding","encoding","23","Canister_Oil.jpg","37","0","1477"
"2","2","encoding","encoding","24","Partition.jpg","36","0","719"
"2","2","encoding","encoding","25","Teabag.jpg","36","0","802"
"2","2","encoding","encoding","26","Envelope_Manila.jpg","36","0","677"
"2","2","encoding","encoding","27","Motorcycle.jpg","37","0","582"
"2","2","encoding","encoding","28","Thermostat_Digital.jpg","36","0","777"
"2","2","encoding","encoding","29","Paddle_Bread.jpg","36","0","787"
"2","2","encoding","encoding","30","SewingPin_Cushion.jpg","36","0","685"
"2","2","encoding","encoding","31","Dress_Blue.jpg","36","0","599"
"2","2","encoding","encoding","32","Hand.jpg","36","0","1066"
"2","2","encoding","encoding","33","Computer_CPU.jpg","36","0","1461"
"2","2","encoding","encoding","34","Toy_JackInTheBox.jpg","36","0","847"
"2","2","encoding","encoding","35","Telephone_TinCan.jpg","36","0","665"
"2","2","encoding","encoding","36","Drum_Ramadan.jpg","36","0","1484"
"2","2","encoding","encoding","37","Candy_Caramel.jpg","36","0","822"
"2","2","encoding","encoding","38","Toy_StackingRing.jpg","36","0","640"
"2","2","encoding","encoding","39","Lion.jpg","37","0","586"
"2","2","encoding","encoding","40","Cable_AudioSplitter.jpg","36","0","756"
"2","2","encoding","encoding","41","PersonWooden.jpg","36","0","631"
"2","2","encoding","encoding","42","Statue_Man.jpg","37","0","705"
"2","2","encoding","encoding","43","Fork_Fondue.jpg","36","0","763"
"2","2","encoding","encoding","44","Sign_NoParking.jpg","37","0","805"
"2","2","encoding","encoding","45","Piano_Keyboard.jpg","36","0","1256"
"2","2","encoding","encoding","46","Toy_Shark.jpg","37","0","1410"
"2","2","encoding","encoding","47","Toy_PandaPlushie.jpg","36","0","908"
"2","2","encoding","encoding","48","Boat_Trailer.jpg","37","0","598"
"2","2","encoding","encoding","49","Table_Set.jpg","36","0","1113"
"2","2","encoding","encoding","50","Pencil.jpg","36","0","771"
"2","2","encoding","encoding","51","Helicopter.jpg","37","0","557"
"2","2","encoding","encoding","52","White_Screen.jpg","0","0","2000"
"2","2","encoding","encoding","53","Hammer_Reflex.jpg","36","0","1089"
"2","2","encoding","encoding","54","Brush_Nail.jpg","36","0","1012"
"2","2","encoding","encoding","55","NeedlesAcupuncture.jpg","37","0","1342"
"2","2","encoding","encoding","56","Bowl_Lemons.jpg","36","0","1048"
"2","2","encoding","encoding","57","Dog_ChowChow.jpg","37","0","722"
"2","2","encoding","encoding","58","IceCrusher.jpg","36","0","1126"
"2","2","encoding","encoding","59","Thimble.jpg","36","0","976"
"2","2","encoding","encoding","60","Carbiner_Ascender.jpg","36","0","1034"
"2","2","encoding","encoding","62","Towel.jpg","37","0","1081"
"2","2","encoding","encoding","63","Exercise_Machine.jpg","36","0","1036"
"2","2","encoding","encoding","64","Cougar.jpg","37","0","671"
"2","2","encoding","encoding","65","Keys_Bunch.jpg","36","0","777"
"2","2","encoding","encoding","66","Ashtray_Cigarettes.jpg","36","0","988"
"2","2","encoding","encoding","67","DusterFeather.jpg","36","0","1190"
"2","2","encoding","encoding","68","Crate_Milk.jpg","36","0","912"
"2","2","encoding","encoding","69","Boots_Hiking.jpg","37","0","1018"
"2","2","encoding","encoding","70","Ramekin.jpg","36","0","1518"
"2","2","encoding","encoding","71","Box_Notepaper.jpg","36","0","696"
"2","2","encoding","encoding","72","Castle_Model.jpg","37","0","898"
"2","2","encoding","encoding","73","Playard.jpg","36","0","1100"
"2","2","encoding","encoding","74","Stepper.jpg","36","0","998"
"2","2","encoding","encoding","75","KnifeHolder.jpg","36","0","681"
"2","2","encoding","encoding","76","Heater_ElectricPortable.jpg","36","0","931"
"2","2","encoding","encoding","77","Window.jpg","37","0","813"
"2","2","encoding","encoding","78","Fish_Rockbass.jpg","37","0","647"
"2","2","encoding","encoding","79","SundaeBanana.jpg","36","0","730"
"2","2","encoding","encoding","80","Candy_Cotton.jpg","37","0","1044"
"2","2","encoding","encoding","81","Jug_ClayAncient.jpg","37","0","1102"
"2","2","encoding","encoding","82","Oars.jpg","37","0","1144"
"2","2","encoding","encoding","83","Candelabra.jpg","36","0","683"
"2","2","encoding","encoding","84","Backhoe.jpg","37","0","597"
"2","2","encoding","encoding","85","Fryingpan.jpg","36","0","639"
"2","2","encoding","encoding","86","Harp.jpg","36","0","937"
"2","2","encoding","encoding","87","SoapDish.jpg","36","0","1180"
"2","2","encoding","encoding","88","PumiceStone.jpg","37","0","662"
"2","2","encoding","encoding","89","TestTube_MultipleAndRack.jpg","36","0","1056"
"2","2","encoding","encoding","90","Chest.jpg","36","0","682"
"2","2","encoding","encoding","91","Container_RedPlastic.jpg","36","0","925"
"2","2","encoding","encoding","92","Truck_Army.jpg","37","0","535"
"2","2","encoding","encoding","93","Cage_Hamster.jpg","36","0","817"
"2","2","encoding","encoding","94","Keychain_Metal.jpg","37","0","1003"
"2","2","encoding","encoding","95","Shrub_Cedar.jpg","37","0","709"
"2","2","encoding","encoding","96","Jar_Strawberry.jpg","36","0","1321"
"2","2","encoding","encoding","97","Film_Single.jpg","36","0","1395"
"2","2","encoding","encoding","98","Toys_Lego.jpg","36","0","660"
"2","2","encoding","encoding","99","Leek.jpg","37","0","686"
"2","2","encoding","encoding","100","Barrel_Wine.jpg","37","0","657"
"2","2","encoding","encoding","101","Toy_Chicken.jpg","36","0","1195"
"2","2","encoding","encoding","102","Organ.jpg","36","0","1045"
"2","2","encoding","encoding","103","Stove_WithOven.jpg","36","0","623"
"2","2","encoding","encoding","104","Dolphine.jpg","37","0","834"
"2","2","encoding","encoding","105","Paddle_Canoe.jpg","37","0","588"
"2","2","encoding","encoding","106","Shovel_Sandbox.jpg","37","0","1021"
"2","2","encoding","encoding","107","LampPost_ThreeBulbs.jpg","37","0","784"
"2","2","encoding","encoding","108","TrapAnimal.jpg","37","0","1121"
"2","2","encoding","encoding","109","RadioactiveContainer.jpg","37","0","788"
"2","2","encoding","encoding","110","FileDivider.jpg","36","0","750"
"2","2","encoding","encoding","111","Switch_Power.jpg","36","0","1080"
"2","2","encoding","encoding","112","SaladCaesar.jpg","36","0","779"
"2","2","encoding","encoding","113","Statue_Head.jpg","37","0","677"
"2","2","encoding","encoding","114","ShoulderPads.jpg","37","0","886"
"2","2","encoding","encoding","115","Chopsticks.jpg","36","0","1360"
"2","2","encoding","encoding","116","House_CeramicGingerbread.jpg","36","0","755"
"2","2","encoding","encoding","117","Toy_Slinky.jpg","36","0","685"
"2","2","encoding","encoding","118","Mask_Happy.jpg","36","0","775"
"2","2","encoding","encoding","119","Toy_BearBlackPlastic.jpg","37","0","1786"
"2","2","encoding","encoding","120","SofaAntique.jpg","36","0","1252"
"2","2","encoding","encoding","121","Pineapple.jpg","37","0","622"
"2","2","encoding","encoding","123","Caribou.jpg","37","0","570"
"2","2","encoding","encoding","124","Match.jpg","36","0","925"
"2","2","encoding","encoding","125","MouthGuard.jpg","36","0","1184"
"2","2","encoding","encoding","126","Tomato.jpg","37","0","874"
"2","2","encoding","encoding","127","Stick_Stirring.jpg","36","0","1108"
"2","2","encoding","encoding","128","Thermos_MetalSleek.jpg","36","0","1390"
"2","2","encoding","encoding","129","Teapot.jpg","36","0","1224"
"2","2","encoding","encoding","130","Vest.jpg","37","0","1307"
"2","2","encoding","encoding","131","Gun_Bazooka.jpg","37","0","757"
"2","2","encoding","encoding","132","Toy_BlocksPlastic Colourful.jpg","36","0","575"
"2","2","encoding","encoding","133","Grape.jpg","37","0","825"
"2","2","encoding","encoding","134","Mango.jpg","36","0","924"
"2","2","encoding","encoding","135","DentalProbe.jpg","36","0","902"
"2","2","encoding","encoding","136","Ring_Diamond.jpg","36","0","624"
"2","2","encoding","encoding","137","Bagel.jpg","36","0","922"
"2","2","encoding","encoding","138","Spraybottle.jpg","36","0","653"
"2","2","encoding","encoding","139","Spider.jpg","37","0","711"
"2","2","encoding","encoding","140","PaperStack.jpg","36","0","673"
"2","2","encoding","encoding","141","Lock_Combination.jpg","37","0","1083"
"2","2","encoding","encoding","142","RibbonString.jpg","36","0","686"
"2","2","encoding","encoding","143","Ball_8.jpg","36","0","809"
"2","2","encoding","encoding","144","Tray_Cafeteria.jpg","36","0","1027"
"2","2","encoding","encoding","145","JumpingJack.jpg","37","0","861"
"2","2","encoding","encoding","146","BottleOpener.jpg","36","0","1367"
"2","2","encoding","encoding","147","MortarPestle_WhiteMarble.jpg","37","0","1386"
"2","2","encoding","encoding","148","Mitt_Blue.jpg","37","0","852"
"2","2","encoding","encoding","149","Glass_Bowl.jpg","36","0","686"
"2","2","encoding","encoding","150","Tickets_PrintWords.jpg","36","0","888"
"2","2","encoding","encoding","151","Beaker.jpg","36","0","619"
"2","2","encoding","encoding","152","Plate_Decorative.jpg","36","0","597"
"2","2","encoding","encoding","153","MannequinHead.jpg","36","0","1727"
"2","2","encoding","encoding","154","Hat_Colonial.jpg","36","0","841"
"2","2","encoding","encoding","155","Toy_HockeyStick.jpg","37","0","1164"
"2","2","encoding","encoding","156","Origami_Boat.jpg","37","0","1366"
"2","2","encoding","encoding","157","BridgeWooden.jpg","37","0","896"
"2","2","encoding","encoding","158","Kite_Rainbow.jpg","37","0","666"
"2","2","encoding","encoding","159","Grenade.jpg","37","0","621"
"2","2","encoding","encoding","160","Box_Staples.jpg","36","0","727"
"2","2","encoding","encoding","161","ServiceBell.jpg","36","0","737"
"2","2","encoding","encoding","162","Flags_CheckeredRacing.jpg","37","0","795"
"2","2","encoding","encoding","163","Currants.jpg","37","0","629"
"2","2","encoding","encoding","164","ProjectorScreen.jpg","36","0","1208"
"2","2","encoding","encoding","165","MassageRoller.jpg","36","0","1490"
"2","2","encoding","encoding","166","Shoes_DutchClogs.jpg","36","0","901"
"2","2","encoding","encoding","167","RecorderCassette.jpg","36","0","1119"
"2","2","encoding","encoding","168","Avocado.jpg","37","0","650"
"2","2","encoding","encoding","169","SnowmanDecor.jpg","37","0","596"
"2","2","encoding","encoding","170","Card_TwoSpade.jpg","36","0","727"
"2","2","encoding","encoding","171","ColoringSet.jpg","36","0","657"
"2","2","encoding","encoding","172","Sign_SlipperyRoad.jpg","37","0","715"
"2","2","encoding","encoding","173","Pasta_Fusilli.jpg","36","0","1205"
"2","2","encoding","encoding","174","Lettuce_Romaine.jpg","37","0","600"
"2","2","encoding","encoding","175","Lipstick.jpg","36","0","738"
"2","2","encoding","encoding","176","DivingBoard.jpg","37","0","604"
"2","2","encoding","encoding","177","Chair_Barber.jpg","36","0","742"
"2","2","retrieval","new_objects","1","Toy_Stroller.jpg","37","1","975"
"2","2","retrieval","new_objects","2","Hat_Beanie.jpg","37","1","726"
"2","2","retrieval","new_objects","3","Key_Car.jpg","37","1","743"
"2","2","retrieval","old_objects","4","Exercise_Machine.jpg","36","1","586"
"2","2","retrieval","old_objects","5","Carbiner_Ascender.jpg","36","1","678"
"2","2","retrieval","old_objects","6","Fork_Fondue.jpg","36","1","599"
"2","2","retrieval","old_objects","7","Pencil.jpg","36","1","668"
"2","2","retrieval","old_objects","8","Boots_Hiking.jpg","36","1","700"
"2","2","retrieval","old_objects","9","NeedlesAcupuncture.jpg","36","1","632"
"2","2","retrieval","old_objects","10","Heater_ElectricPortable.jpg","36","1","651"
"2","2","retrieval","old_objects","11","Noisemaker.jpg","36","1","664"
"2","2","retrieval","old_objects","12","Seashell_BayScallop.jpg","36","1","535"
"2","2","retrieval","new_objects","13","Bolt_WithNut.jpg","37","1","779"
"2","2","retrieval","old_objects","14","Container_RedPlastic.jpg","36","1","635"
"2","2","retrieval","old_objects","15","KnifeHolder.jpg","36","1","573"
"2","2","retrieval","new_objects","16","Noose.jpg","37","1","679"
"2","2","retrieval","old_objects","17","Statue_Head.jpg","36","1","680"
"2","2","retrieval","old_objects","18","Box_Notepaper.jpg","36","1","650"
"2","2","retrieval","old_objects","19","Chair_Barber.jpg","36","1","535"
"2","2","retrieval","new_objects","20","Bulldozer.jpg","37","1","666"
"2","2","retrieval","new_objects","21","Cup_Fruits.jpg","37","1","746"
"2","2","retrieval","new_objects","22","DogSled.jpg","37","1","614"
"2","2","retrieval","new_objects","23","Toy_Christmastree.jpg","37","1","598"
"2","2","retrieval","new_objects","24","Cross.jpg","37","1","619"
"2","2","retrieval","new_objects","25","Can_GasSpout.jpg","37","1","651"
"2","2","retrieval","new_objects","26","Aquarium.jpg","37","1","616"
"2","2","retrieval","new_objects","27","SpinalCord.jpg","37","1","648"
"2","2","retrieval","old_objects","28","Toy_JackInTheBox.jpg","36","1","892"
"2","2","retrieval","old_objects","29","Toy_StackingRing.jpg","36","1","557"
"2","2","retrieval","new_objects","30","Hat_Tuque.jpg","37","1","1717"
"2","2","retrieval","old_objects","31","Grenade.jpg","36","1","636"
"2","2","retrieval","old_objects","32","Candy_Cotton.jpg","36","1","711"
"2","2","retrieval","old_objects","33","Bellows.jpg","36","1","716"
"2","2","retrieval","new_objects","34","Notepad_WithPen.jpg","37","1","747"
"2","2","retrieval","new_objects","35","Cow.jpg","37","1","679"
"2","2","retrieval","old_objects","36","Ramekin.jpg","36","1","649"
"2","2","retrieval","old_objects","37","Tomato.jpg","36","1","1133"
"2","2","retrieval","old_objects","38","Canister_Oil.jpg","36","1","683"
"2","2","retrieval","new_objects","39","Outhouse.jpg","37","1","662"
"2","2","retrieval","old_objects","40","Teapot.jpg","36","1","636"
"2","2","retrieval","old_objects","41","GingerbreadMan.jpg","36","1","583"
"2","2","retrieval","old_objects","42","Tray_Cafeteria.jpg","36","1","570"
"2","2","retrieval","old_objects","43","TestTube_MultipleAndRack.jpg","36","1","683"
"2","2","retrieval","new_objects","44","Sign_Taxi.jpg","37","1","629"
"2","2","retrieval","old_objects","45","Towel.jpg","36","1","743"
"2","2","retrieval","new_objects","46","Corkscrew.jpg","37","1","922"
"2","2","retrieval","old_objects","47","Partition.jpg","36","1","633"
"2","2","retrieval","old_objects","48","PhoneCase.jpg","36","1","683"
"2","2","retrieval","new_objects","49","BabyMonitor.jpg","37","1","581"
"2","2","retrieval","new_objects","50","Wheelbarrow_Green.jpg","37","1","808"
"2","2","retrieval","new_objects","51","Pasta_Penne.jpg","37","1","774"
"2","2","retrieval","old_objects","52","Motorcycle.jpg","36","1","813"
"2","2","retrieval","old_objects","53","Fish_Rockbass.jpg","36","1","635"
"2","2","retrieval","old_objects","54","Harp.jpg","36","1","621"
"2","2","retrieval","new_objects","55","BicycleSeat.jpg","37","1","774"
"2","2","retrieval","old_objects","56","Bus_DoubleDecker.jpg","36","1","637"
"2","2","retrieval","new_objects","57","Cheque.jpg","37","1","648"
"2","2","retrieval","old_objects","58","Toy_Chicken.jpg","36","1","652"
"2","2","retrieval","new_objects","59","Pants_Firefighter.jpg","37","1","602"
"2","2","retrieval","old_objects","60","Toys_Lego.jpg","36","1","584"
"2","2","retrieval","old_objects","62","DusterFeather.jpg","36","1","685"
"2","2","retrieval","new_objects","63","Bed_Hospital.jpg","37","1","631"
"2","2","retrieval","new_objects","64","Mat_Car.jpg","37","1","553"
"2","2","retrieval","new_objects","65","Dill.jpg","37","1","744"
"2","2","retrieval","new_objects","66","Stingray.jpg","37","1","635"
"2","2","retrieval","old_objects","67","Drum_Ramadan.jpg","36","1","733"
"2","2","retrieval","new_objects","68","StreetSweeper.jpg","37","1","599"
"2","2","retrieval","old_objects","69","JumpingJack.jpg","36","1","668"
"2","2","retrieval","old_objects","70","Bagel.jpg","36","1","571"
"2","2","retrieval","old_objects","71","Leek.jpg","36","1","508"
"2","2","retrieval","old_objects","72","LampPost_ThreeBulbs.jpg","36","1","523"
"2","2","retrieval","old_objects","73","TrapAnimal.jpg","36","1","572"
"2","2","retrieval","new_objects","74","Box_JeweleryWooden.jpg","37","1","454"
"2","2","retrieval","new_objects","75","Fence_ChainLink.jpg","37","1","550"
"2","2","retrieval","old_objects","76","Teabag.jpg","36","1","699"
"2","2","retrieval","new_objects","77","Brush_Winter.jpg","37","1","664"
"2","2","retrieval","new_objects","78","PlantPotted.jpg","37","1","1127"
"2","2","retrieval","old_objects","79","Beaker.jpg","36","1","700"
"2","2","retrieval","new_objects","80","Trophy.jpg","37","1","633"
"2","2","retrieval","new_objects","81","Parcel.jpg","37","1","587"
"2","2","retrieval","new_objects","82","LightBulb_Blue.jpg","37","1","583"
"2","2","retrieval","new_objects","83","SpongeScrubbing.jpg","37","1","489"
"2","2","retrieval","old_objects","84","Shovel_Sandbox.jpg","36","1","541"
"2","2","retrieval","old_objects","85","Match.jpg","36","1","602"
"2","2","retrieval","old_objects","86","FileDivider.jpg","36","1","552"
"2","2","retrieval","old_objects","87","Vest.jpg","36","1","653"
"2","2","retrieval","old_objects","88","Piano_Keyboard.jpg","36","1","602"
"2","2","retrieval","old_objects","89","Brush_Nail.jpg","36","1","536"
"2","2","retrieval","new_objects","90","Stroboscope.jpg","37","1","533"
"2","2","retrieval","new_objects","91","StockingChristmas.jpg","37","1","520"
"2","2","retrieval","old_objects","92","Lettuce_Romaine.jpg","36","1","633"
"2","2","retrieval","new_objects","93","Magnifying_Glass.jpg","37","1","651"
"2","2","retrieval","old_objects","94","Lion.jpg","36","1","633"
"2","2","retrieval","new_objects","95","Playdoh.jpg","37","1","507"
"2","2","retrieval","old_objects","96","Ball_8.jpg","36","1","682"
"2","2","retrieval","new_objects","97","Blueprints.jpg","37","1","588"
"2","2","retrieval","old_objects","98","Flags_CheckeredRacing.jpg","36","1","647"
"2","2","retrieval","new_objects","99","OvenElement.jpg","37","1","588"
"2","2","retrieval","new_objects","100","Walker_Silver.jpg","37","1","663"
"2","2","retrieval","new_objects","101","Stove_Camping.jpg","37","1","535"
"2","2","retrieval","old_objects","102","ClothRed.jpg","36","1","714"
"2","2","retrieval","old_objects","103","Toy_Slinky.jpg","36","1","537"
"2","2","retrieval","old_objects","104","SoapDish.jpg","36","1","572"
"2","2","retrieval","old_objects","105","SofaAntique.jpg","36","1","605"
"2","2","retrieval","new_objects","106","Shirt_Tshirt.jpg","37","1","587"
"2","2","retrieval","old_objects","107","Dress_Blue.jpg","37","0","461"
"2","2","retrieval","new_objects","108","DogTreat.jpg","37","1","1094"
"2","2","retrieval","new_objects","109","Scarecrow.jpg","37","1","519"
"2","2","retrieval","old_objects","110","Caribou.jpg","36","1","616"
"2","2","retrieval","old_objects","111","Mitt_Blue.jpg","36","1","696"
"2","2","retrieval","old_objects","112","Jug_ClayAncient.jpg","36","1","636"
"2","2","retrieval","old_objects","113","Helicopter.jpg","36","1","615"
"2","2","retrieval","old_objects","114","SnowmanDecor.jpg","36","1","551"
"2","2","retrieval","old_objects","115","Trumpet.jpg","36","1","669"
"2","2","retrieval","old_objects","116","Tofu.jpg","36","1","748"
"2","2","retrieval","new_objects","117","Sphinx.jpg","37","1","744"
"2","2","retrieval","old_objects","118","Crate_Milk.jpg","36","1","619"
"2","2","retrieval","old_objects","119","Coatrack.jpg","36","1","539"
"2","2","retrieval","old_objects","120","Castle_Model.jpg","36","1","663"
"2","2","retrieval","new_objects","121","MortarPestle_BlackStone.jpg","37","1","951"
"2","2","retrieval","new_objects","123","Flower_Daisy.jpg","37","1","1354"
"2","2","retrieval","new_objects","124","MetalChain.jpg","37","1","666"
"2","2","retrieval","old_objects","125","MortarPestle_WhiteMarble.jpg","36","1","697"
"2","2","retrieval","old_objects","126","Avocado.jpg","36","1","605"
"2","2","retrieval","new_objects","127","Briefcase_Leather.jpg","37","1","699"
"2","2","retrieval","old_objects","128","Cable_AudioSplitter.jpg","36","1","711"
"2","2","retrieval","old_objects","129","Thimble.jpg","36","1","653"
"2","2","retrieval","old_objects","130","Candelabra.jpg","36","1","858"
"2","2","retrieval","new_objects","131","Feet.jpg","37","1","647"
"2","2","retrieval","new_objects","132","Humidifier.jpg","37","1","693"
"2","2","retrieval","old_objects","133","Fryingpan.jpg","37","0","1576"
"2","2","retrieval","old_objects","134","Barrel_Wine.jpg","36","1","682"
"2","2","retrieval","new_objects","135","Chicken_FriedDrum.jpg","37","1","596"
"2","2","retrieval","old_objects","136","Currants.jpg","36","1","681"
"2","2","retrieval","old_objects","137","Hammer_Reflex.jpg","36","1","651"
"2","2","retrieval","new_objects","138","Archery_ArrowsBows.jpg","37","1","600"
"2","2","retrieval","new_objects","139","Pottery.jpg","37","1","550"
"2","2","retrieval","new_objects","140","Sign_Construction.jpg","37","1","676"
"2","2","retrieval","new_objects","141","Axe.jpg","37","1","614"
"2","2","retrieval","old_objects","142","BloodpPresureCuff.jpg","36","1","653"
"2","2","retrieval","new_objects","143","Compact_Mirror.jpg","37","1","922"
"2","2","retrieval","new_objects","144","Speaker_Single.jpg","37","1","505"
"2","2","retrieval","old_objects","145","Lock_Combination.jpg","36","1","664"
"2","2","retrieval","new_objects","146","EnglishMuffin.jpg","37","1","647"
"2","2","retrieval","old_objects","147","Telephone_TinCan.jpg","36","1","715"
"2","2","retrieval","new_objects","148","Cup_Styrofoam.jpg","37","1","554"
"2","2","retrieval","old_objects","149","Film_Single.jpg","36","1","585"
"2","2","retrieval","old_objects","150","RadioactiveContainer.jpg","36","1","763"
"2","2","retrieval","new_objects","151","Hat_Cowboy.jpg","37","1","762"
"2","2","retrieval","old_objects","152","Pasta_Fusilli.jpg","36","1","584"
"2","2","retrieval","old_objects","153","Toy_HockeyStick.jpg","36","1","603"
"2","2","retrieval","new_objects","154","Statue_VirginMary.jpg","37","1","568"
"2","2","retrieval","old_objects","155","Spraybottle.jpg","36","1","601"
"2","2","retrieval","old_objects","156","PersonWooden.jpg","36","1","583"
"2","2","retrieval","old_objects","157","Card_TwoSpade.jpg","36","1","570"
"2","2","retrieval","old_objects","158","Stick_Stirring.jpg","36","1","682"
"2","2","retrieval","new_objects","159","Chair_Deck.jpg","37","1","533"
"2","2","retrieval","old_objects","160","Flamingo_Real.jpg","36","1","616"
"2","2","retrieval","new_objects","161","Toy_Taxi.jpg","37","1","680"
"2","2","retrieval","old_objects","162","Shrub_Cedar.jpg","36","1","634"
"2","2","retrieval","new_objects","163","Microscope.jpg","37","1","709"
"2","2","retrieval","new_objects","164","Camera_Antique.jpg","37","1","555"
"2","2","retrieval","new_objects","165","Cart_Janitor.jpg","37","1","537"
"2","2","retrieval","new_objects","166","Table_Pool.jpg","37","1","534"
"2","2","retrieval","old_objects","167","Bowl_Lemons.jpg","36","1","729"
"2","2","retrieval","new_objects","168","Pillar.jpg","37","1","602"
"2","2","retrieval","new_objects","169","Wire_ElectricalSingle.jpg","37","1","600"
"2","2","retrieval","new_objects","170","Skirt_Stripes.jpg","37","1","534"
"2","2","retrieval","new_objects","171","Trunk.jpg","37","1","713"
"2","2","retrieval","old_objects","172","Boat_Trailer.jpg","36","1","696"
"2","2","retrieval","new_objects","173","Jar_JellyBeans.jpg","37","1","612"
"2","2","retrieval","new_objects","174","Decoration_Chinese.jpg","37","1","619"
"2","2","retrieval","old_objects","175","Mask_Happy.jpg","36","1","667"
"2","2","retrieval","new_objects","176","Gazebo.jpg","37","1","555"
"2","2","retrieval","old_objects","177","fries.jpg","36","1","585"
"2","2","retrieval","old_objects","178","Chest.jpg","36","1","748"
"2","2","retrieval","old_objects","179","RecorderCassette.jpg","36","1","552"
"2","2","retrieval","new_objects","180","Sink_Bathroom.jpg","37","1","679"
"2","2","retrieval","old_objects","181","House_CeramicGingerbread.jpg","36","1","616"
"2","2","retrieval","old_objects","182","Shoes_DutchClogs.jpg","36","1","568"
"2","2","retrieval","old_objects","184","Statue_Man.jpg","36","1","584"
"2","2","retrieval","new_objects","185","Cabinet_Display.jpg","37","1","932"
"2","2","retrieval","old_objects","186","Keychain_Metal.jpg","36","1","603"
"2","2","retrieval","old_objects","187","White_Screen.jpg","36","1","1177"
"2","2","retrieval","new_objects","188","Tribunal_Wooden.jpg","37","1","1175"
"2","2","retrieval","new_objects","189","Ball_Basketball.jpg","37","1","548"
"2","2","retrieval","new_objects","190","Frame_Oval.jpg","37","1","522"
"2","2","retrieval","new_objects","191","Toy_Bat.jpg","37","1","507"
"2","2","retrieval","new_objects","192","Pot_BlackOld.jpg","37","1","698"
"2","2","retrieval","new_objects","193","DeepFryer.jpg","37","1","647"
"2","2","retrieval","new_objects","194","Jet.jpg","37","1","763"
"2","2","retrieval","new_objects","195","Pasta_Shell.jpg","37","1","697"
"2","2","retrieval","new_objects","196","TigerWhite.jpg","37","1","918"
"2","2","retrieval","new_objects","197","Lamp_TableWhite.jpg","37","1","539"
"2","2","retrieval","old_objects","198","Glass_Bowl.jpg","36","1","920"
"2","2","retrieval","new_objects","199","Kneepad.jpg","37","1","614"
"2","2","retrieval","old_objects","200","BottleOpener.jpg","36","1","797"
"2","2","retrieval","new_objects","201","ComputerKeyboard_Backspace.jpg","37","1","680"
"2","2","retrieval","new_objects","202","Truck_Tanker.jpg","37","1","602"
"2","2","retrieval","old_objects","203","Sign_NoParking.jpg","36","1","552"
"2","2","retrieval","old_objects","204","Candy_Caramel.jpg","36","1","733"
"2","2","retrieval","old_objects","205","Tickets_PrintWords.jpg","36","1","503"
"2","2","retrieval","old_objects","206","Hand.jpg","36","1","509"
"2","2","retrieval","new_objects","207","Lollipop_Grape.jpg","37","1","614"
"2","2","retrieval","old_objects","208","Thermostat_Digital.jpg","36","1","605"
"2","2","retrieval","old_objects","209","Cage_Hamster.jpg","37","0","538"
"2","2","retrieval","new_objects","210","JuiceBox.jpg","37","1","887"
"2","2","retrieval","new_objects","211","Makeup_Compact.jpg","37","1","968"
"2","2","retrieval","old_objects","212","Lipstick.jpg","36","1","541"
"2","2","retrieval","new_objects","213","Branch.jpg","37","1","681"
"2","2","retrieval","new_objects","214","PaintSprayer.jpg","37","1","635"
"2","2","retrieval","old_objects","215","SundaeBanana.jpg","37","0","717"
"2","2","retrieval","new_objects","216","Bone.jpg","37","1","741"
"2","2","retrieval","old_objects","217","Makeup_Mascara.jpg","37","0","728"
"2","2","retrieval","new_objects","218","HumanSkull.jpg","37","1","569"
"2","2","retrieval","old_objects","219","ServiceBell.jpg","36","1","649"
"2","2","retrieval","old_objects","220","Dog_ChowChow.jpg","36","1","637"
"2","2","retrieval","new_objects","221","Kazoo.jpg","37","1","649"
"2","2","retrieval","old_objects","222","Oars.jpg","36","1","717"
"2","2","retrieval","old_objects","223","Stove_WithOven.jpg","36","1","620"
"2","2","retrieval","new_objects","224","Sand.jpg","37","1","549"
"2","2","retrieval","old_objects","225","Kite_Rainbow.jpg","36","1","634"
"2","2","retrieval","new_objects","226","Jug_Milk.jpg","37","1","581"
"2","2","retrieval","old_objects","227","MouthGuard.jpg","36","1","728"
"2","2","retrieval","old_objects","228","Chopsticks.jpg","36","1","537"
"2","2","retrieval","new_objects","229","Boat_Row.jpg","37","1","645"
"2","2","retrieval","new_objects","230","Sieve_SideView.jpg","37","1","697"
"2","2","retrieval","new_objects","231","Pepper_Green.jpg","37","1","694"
"2","2","retrieval","new_objects","232","Tortilla.jpg","37","1","570"
"2","2","retrieval","old_objects","233","Ashtray_Cigarettes.jpg","36","1","714"
"2","2","retrieval","new_objects","234","Perfume.jpg","37","1","585"
"2","2","retrieval","old_objects","235","Toy_BlocksPlastic Colourful.jpg","36","1","636"
"2","2","retrieval","new_objects","236","Boat_Sail.jpg","37","1","631"
"2","2","retrieval","new_objects","237","Toy_RobotTransformer.jpg","37","1","521"
"2","2","retrieval","new_objects","238","Bark.jpg","37","1","507"
"2","2","retrieval","new_objects","239","Spoon_Sugar.jpg","36","0","1082"
"2","2","retrieval","new_objects","240","Seeder.jpg","37","1","536"
"2","2","retrieval","new_objects","241","Speakers_Theatre.jpg","37","1","629"
"2","2","retrieval","new_objects","242","Toy_ModelMolecule.jpg","37","1","519"
"2","2","retrieval","old_objects","243","BridgeWooden.jpg","36","1","616"
"2","2","retrieval","old_objects","245","Paddle_Bread.jpg","36","1","874"
"2","2","retrieval","old_objects","246","ProjectorScreen.jpg","37","0","601"
"2","2","retrieval","old_objects","247","Pineapple.jpg","36","1","605"
"2","2","retrieval","new_objects","248","Rag.jpg","37","1","580"
"2","2","retrieval","new_objects","249","SpinningWheel.jpg","37","1","615"
"2","2","retrieval","new_objects","250","MusicSheet.jpg","37","1","503"
"2","2","retrieval","new_objects","251","Chest_Toys.jpg","37","1","550"
"2","2","retrieval","old_objects","252","Organ.jpg","36","1","620"
"2","2","retrieval","old_objects","253","Toy_Train.jpg","36","1","588"
"2","2","retrieval","new_objects","254","Alfalfa.jpg","37","1","664"
"2","2","retrieval","new_objects","255","Tag_Price.jpg","37","1","711"
"2","2","retrieval","old_objects","256","Box_Staples.jpg","36","1","685"
"2","2","retrieval","old_objects","257","Table_Set.jpg","36","1","599"
"2","2","retrieval","old_objects","258","Window.jpg","36","1","572"
"2","2","retrieval","old_objects","259","Toy_BearBlackPlastic.jpg","36","1","573"
"2","2","retrieval","new_objects","260","Spoons_MeasuringAttached.jpg","37","1","694"
"2","2","retrieval","old_objects","261","MannequinHead.jpg","36","1","586"
"2","2","retrieval","new_objects","262","Protractor.jpg","37","1","566"
"2","2","retrieval","old_objects","263","Dolphine.jpg","36","1","541"
"2","2","retrieval","old_objects","264","Toy_Shark.jpg","36","1","538"
"2","2","retrieval","new_objects","265","Squid_Orange.jpg","37","1","518"
"2","2","retrieval","new_objects","266","Easel.jpg","37","1","535"
"2","2","retrieval","old_objects","267","SewingPin_Cushion.jpg","36","1","603"
"2","2","retrieval","old_objects","268","IceCrusher.jpg","36","1","601"
"2","2","retrieval","new_objects","269","Nuts_Walnut.jpg","37","1","535"
"2","2","retrieval","old_objects","270","Sign_SlipperyRoad.jpg","36","1","554"
"2","2","retrieval","old_objects","271","Thermos_MetalSleek.jpg","36","1","600"
"2","2","retrieval","new_objects","272","Bathtub.jpg","37","1","566"
"2","2","retrieval","new_objects","273","Box_Chocolate.jpg","37","1","551"
"2","2","retrieval","old_objects","274","RibbonString.jpg","36","1","652"
"2","2","retrieval","new_objects","275","Case_CD.jpg","37","1","586"
"2","2","retrieval","new_objects","276","Swing_Child.jpg","37","1","565"
"2","2","retrieval","new_objects","277","Cheesegrater_Box.jpg","36","0","982"
"2","2","retrieval","new_objects","278","Scythe.jpg","37","1","582"
"2","2","retrieval","new_objects","279","Hat_Explorer.jpg","37","1","697"
"2","2","retrieval","old_objects","280","Paddle_Canoe.jpg","36","1","604"
"2","2","retrieval","new_objects","281","Desk_White.jpg","37","1","538"
"2","2","retrieval","old_objects","282","Bag_Gift.jpg","36","1","606"
"2","2","retrieval","old_objects","283","PaperStack.jpg","36","1","619"
"2","2","retrieval","old_objects","284","Stepper.jpg","36","1","763"
"2","2","retrieval","new_objects","285","Printer.jpg","37","1","586"
"2","2","retrieval","old_objects","286","ColoringSet.jpg","36","1","588"
"2","2","retrieval","new_objects","287","LampPost_OneBulb.jpg","36","0","520"
"2","2","retrieval","new_objects","288","Lamp_Table.jpg","37","1","505"
"2","2","retrieval","old_objects","289","Backpack_Travel.jpg","37","0","441"
"2","2","retrieval","old_objects","290","Horseshoe.jpg","36","1","653"
"2","2","retrieval","old_objects","291","Switch_Power.jpg","36","1","682"
"2","2","retrieval","old_objects","292","Envelope_Manila.jpg","36","1","828"
"2","2","retrieval","new_objects","293","Light_Halogen.jpg","37","1","549"
"2","2","retrieval","new_objects","294","Gameboy.jpg","37","1","490"
"2","2","retrieval","new_objects","295","FuzzyDice.jpg","37","1","535"
"2","2","retrieval","new_objects","296","BoogieBoard.jpg","37","1","490"
"2","2","retrieval","old_objects","297","Gun_Bazooka.jpg","36","1","647"
"2","2","retrieval","new_objects","298","Toy_Drill.jpg","37","1","517"
"2","2","retrieval","old_objects","299","Jar_Strawberry.jpg","36","1","685"
"2","2","retrieval","new_objects","300","ConnectorPlug.jpg","37","1","663"
"2","2","retrieval","new_objects","301","Clarinet.jpg","37","1","615"
"2","2","retrieval","old_objects","302","Spider.jpg","36","1","647"
"2","2","retrieval","new_objects","303","Can_Milk.jpg","37","1","587"
"2","2","retrieval","new_objects","304","Blade_Tablesaw.jpg","37","1","551"
"2","2","retrieval","old_objects","306","PumiceStone.jpg","36","1","648"
"2","2","retrieval","new_objects","307","Arch.jpg","37","1","581"
"2","2","retrieval","old_objects","308","ShoulderPads.jpg","36","1","696"
"2","2","retrieval","new_objects","309","Spoon_Wooden.jpg","36","0","597"
"2","2","retrieval","old_objects","310","DivingBoard.jpg","36","1","682"
"2","2","retrieval","old_objects","311","Ring_Diamond.jpg","36","1","587"
"2","2","retrieval","old_objects","312","Hat_Colonial.jpg","36","1","551"
"2","2","retrieval","new_objects","313","Plate_Ceramic.jpg","37","1","533"
"2","2","retrieval","new_objects","314","Vase_EarthToned.jpg","37","1","473"
"2","2","retrieval","new_objects","315","Toy_WoodenPlainSingle.jpg","37","1","619"
"2","2","retrieval","old_objects","316","Playard.jpg","37","0","475"
"2","2","retrieval","new_objects","317","PharoahReplica.jpg","37","1","534"
"2","2","retrieval","new_objects","318","SlushieMachine.jpg","37","1","617"
"2","2","retrieval","new_objects","319","Microwave.jpg","37","1","585"
"2","2","retrieval","new_objects","320","Pyramid.jpg","37","1","533"
"2","2","retrieval","old_objects","321","Toy_PandaPlushie.jpg","36","1","744"
"2","2","retrieval","old_objects","322","DentalProbe.jpg","36","1","603"
"2","2","retrieval","new_objects","323","Tire_Hollow.jpg","37","1","521"
"2","2","retrieval","new_objects","324","CoffeeBeans.jpg","37","1","522"
"2","2","retrieval","old_objects","325","Grape.jpg","36","1","619"
"2","2","retrieval","new_objects","326","CableConnecter.jpg","37","1","827"
"2","2","retrieval","old_objects","327","MassageRoller.jpg","36","1","683"
"2","2","retrieval","new_objects","328","ElectricOutlet.jpg","37","1","582"
"2","2","retrieval","new_objects","329","Dog_Bulldog.jpg","37","1","680"
"2","2","retrieval","old_objects","330","Speaker_OnStand.jpg","36","1","778"
"2","2","retrieval","old_objects","331","Mango.jpg","36","1","618"
"2","2","retrieval","new_objects","332","Camera_Video.jpg","37","1","554"
"2","2","retrieval","new_objects","333","House_Doll.jpg","37","1","457"
"2","2","retrieval","old_objects","334","Truck_Army.jpg","36","1","633"
"2","2","retrieval","old_objects","335","Computer_CPU.jpg","37","0","523"
"2","2","retrieval","new_objects","336","Licorice.jpg","37","1","629"
"2","2","retrieval","new_objects","337","Tray_Wooden.jpg","37","1","583"
"2","2","retrieval","old_objects","338","SaladCaesar.jpg","36","1","618"
"2","2","retrieval","old_objects","339","Keys_Bunch.jpg","36","1","666"
"2","2","retrieval","old_objects","340","Backhoe.jpg","36","1","553"
"2","2","retrieval","old_objects","341","MalletJudge.jpg","36","1","520"
"2","2","retrieval","new_objects","342","USBKey.jpg","37","1","569"
"2","2","retrieval","new_objects","343","Squid_Pink.jpg","37","1","777"
"2","2","retrieval","new_objects","344","Mask_Masquerade.jpg","37","1","474"
"2","2","retrieval","old_objects","345","Plate_Decorative.jpg","36","1","844"
"2","2","retrieval","new_objects","346","Cart_Groceries.jpg","37","1","535"
"2","2","retrieval","new_objects","347","Glass_Martini.jpg","37","1","538"
"2","2","retrieval","old_objects","348","Origami_Boat.jpg","37","0","557"
"2","2","retrieval","old_objects","349","Cougar.jpg","36","1","604"
"2","2","retrieval","new_objects","350","Box_Apples.jpg","37","1","538"
"2","2","retrieval","new_objects","351","Bullet.jpg","37","1","582"
"2","2","retrieval","old_objects","352","Corkboard.jpg","37","0","505"
"2","2","retrieval","new_objects","353","Mixer_Hand.jpg","37","1","520"
"2","2","retrieval","old_objects","354","Pen_Calligraphy.jpg","36","1","697"
"2","2","retrieval","new_objects","355","Asparagus.jpg","36","0","1862"
"2","2","demographics_block","gender","1","Asparagus.jpg","male","1","8524"
"2","2","demographics_block","age","1","Asparagus.jpg","35","1","8524"
"2","2","demographics_block","education","1","Asparagus.jpg","12","1","8524"
"2","2","demographics_block","left_right_handed","2","Asparagus.jpg","Right","1","4342"
"2","2","demographics_block","raceoption1","2","Asparagus.jpg","0","1","4342"
"2","2","demographics_block","raceoption2","2","Asparagus.jpg","","1","4342"
"2","2","demographics_block","raceoption3","2","Asparagus.jpg","","1","4342"
"2","2","demographics_block","raceoption4","2","Asparagus.jpg","","1","4342"
"2","2","demographics_block","raceoption5","2","Asparagus.jpg","","1","4342"
"2","2","demographics_block","raceoption6","2","Asparagus.jpg","","1","4342"
"2","2","demographics_block","raceoption7","2","Asparagus.jpg","","1","4342"
"2","2","demographics_block","raceoption8","2","Asparagus.jpg","","1","4342"
"2","2","demographics_block","raceoption9","2","Asparagus.jpg","","1","4342"
"2","2","demographics_block","raceother","2","Asparagus.jpg","","1","4342"
"2","2","demographics_block","raceother","2","Asparagus.jpg","","1","4342"
"2","2","demographics_block","english_language","2","Asparagus.jpg","Yes","1","4342"
"2","2","demographics_block","english_languageother","2","Asparagus.jpg","","1","4342"
"2","2","demographics_block","eyesight","3","Asparagus.jpg","Yes","1","3595"
"2","2","demographics_block","colorblind","3","Asparagus.jpg","No","1","3595"
"2","2","worker_id_block","worker_id_textbox","1","Asparagus.jpg","A3IMB1JAMHP1KK","1","4065"
"4","4","encoding","encoding","1","Toy_Shark.jpg","37","0","253"
"4","4","encoding","encoding","2","Barrel_Wine.jpg","37","0","22"
"4","4","encoding","encoding","3","Coatrack.jpg","37","0","100"
"4","4","encoding","encoding","4","Window.jpg","36","0","277"
"4","4","encoding","encoding","5","Hat_Colonial.jpg","36","0","113"
"4","4","encoding","encoding","6","Dolphine.jpg","36","0","520"
"4","4","encoding","encoding","7","Dog_ChowChow.jpg","36","0","774"
"4","4","encoding","encoding","8","Harp.jpg","36","0","509"
"4","4","encoding","encoding","9","Spraybottle.jpg","37","0","93"
"4","4","encoding","encoding","10","Fryingpan.jpg","36","0","1198"
"4","4","encoding","encoding","11","Teapot.jpg","36","0","1174"
"4","4","encoding","encoding","12","Toy_Slinky.jpg","37","0","1286"
"4","4","encoding","encoding","13","White_Screen.jpg","36","0","1665"
"4","4","encoding","encoding","14","Seashell_BayScallop.jpg","37","0","1451"
"4","4","encoding","encoding","15","ProjectorScreen.jpg","36","0","1134"
"4","4","encoding","encoding","16","Envelope_Manila.jpg","37","0","1597"
"4","4","encoding","encoding","17","Piano_Keyboard.jpg","36","0","1221"
"4","4","encoding","encoding","18","Tickets_PrintWords.jpg","37","0","1246"
"4","4","encoding","encoding","19","Keychain_Metal.jpg","36","0","516"
"4","4","encoding","encoding","20","Chopsticks.jpg","36","0","17"
"4","4","encoding","encoding","21","Ring_Diamond.jpg","37","0","85"
"4","4","encoding","encoding","22","Bellows.jpg","37","0","48"
"4","4","encoding","encoding","23","Brush_Nail.jpg","37","0","85"
"4","4","encoding","encoding","24","Makeup_Mascara.jpg","36","0","71"
"4","4","encoding","encoding","25","Film_Single.jpg","37","0","148"
"4","4","encoding","encoding","26","SofaAntique.jpg","36","0","0"
"4","4","encoding","encoding","27","Gun_Bazooka.jpg","37","0","1"
"4","4","encoding","encoding","28","Pencil.jpg","37","0","103"
"4","4","encoding","encoding","29","SnowmanDecor.jpg","36","0","32"
"4","4","encoding","encoding","30","Glass_Bowl.jpg","36","0","58"
"4","4","encoding","encoding","31","Table_Set.jpg","36","0","629"
"4","4","encoding","encoding","32","Vest.jpg","37","0","85"
"4","4","encoding","encoding","33","DusterFeather.jpg","36","0","211"
"4","4","encoding","encoding","34","DentalProbe.jpg","37","0","10"
"4","4","encoding","encoding","35","Kite_Rainbow.jpg","37","0","52"
"4","4","encoding","encoding","36","Switch_Power.jpg","37","0","203"
"4","4","encoding","encoding","37","Toy_HockeyStick.jpg","36","0","70"
"4","4","encoding","encoding","38","Toys_Lego.jpg","37","0","78"
"4","4","encoding","encoding","39","Thermostat_Digital.jpg","37","0","144"
"4","4","encoding","encoding","40","RecorderCassette.jpg","36","0","155"
"4","4","encoding","encoding","41","Bowl_Lemons.jpg","36","0","234"
"4","4","encoding","encoding","42","Lock_Combination.jpg","37","0","763"
"4","4","encoding","encoding","43","Bag_Gift.jpg","37","0","1881"
"4","4","encoding","encoding","44","Helicopter.jpg","37","0","1135"
"4","4","encoding","encoding","45","Cable_AudioSplitter.jpg","36","0","1229"
"4","4","encoding","encoding","46","Toy_JackInTheBox.jpg","37","0","1021"
"4","4","encoding","encoding","47","ShoulderPads.jpg","36","0","928"
"4","4","encoding","encoding","48","Lettuce_Romaine.jpg","37","0","738"
"4","4","encoding","encoding","49","Shrub_Cedar.jpg","37","0","1106"
"4","4","encoding","encoding","50","Backhoe.jpg","37","0","1051"
"4","4","encoding","encoding","51","IceCrusher.jpg","37","0","1374"
"4","4","encoding","encoding","52","Card_TwoSpade.jpg","36","0","1183"
"4","4","encoding","encoding","53","Tray_Cafeteria.jpg","36","0","1245"
"4","4","encoding","encoding","54","JumpingJack.jpg","37","0","911"
"4","4","encoding","encoding","55","Mango.jpg","37","0","1198"
"4","4","encoding","encoding","56","BottleOpener.jpg","37","0","1131"
"4","4","encoding","encoding","57","Towel.jpg","36","0","877"
"4","4","encoding","encoding","58","Paddle_Canoe.jpg","37","0","751"
"4","4","encoding","encoding","59","Match.jpg","36","0","104"
"4","4","encoding","encoding","60","TestTube_MultipleAndRack.jpg","37","0","201"
"4","4","encoding","encoding","62","Drum_Ramadan.jpg","36","0","746"
"4","4","encoding","encoding","63","Organ.jpg","37","0","18"
"4","4","encoding","encoding","64","Carbiner_Ascender.jpg","36","0","23"
"4","4","encoding","encoding","65","MouthGuard.jpg","36","0","142"
"4","4","encoding","encoding","66","Fish_Rockbass.jpg","37","0","201"
"4","4","encoding","encoding","67","MannequinHead.jpg","37","0","213"
"4","4","encoding","encoding","68","Origami_Boat.jpg","37","0","1239"
"4","4","encoding","encoding","69","Noisemaker.jpg","37","0","1193"
"4","4","encoding","encoding","70","Crate_Milk.jpg","36","0","937"
"4","4","encoding","encoding","71","SewingPin_Cushion.jpg","36","0","1478"
"4","4","encoding","encoding","72","Backpack_Travel.jpg","37","0","1044"
"4","4","encoding","encoding","73","Toy_BlocksPlastic Colourful.jpg","37","0","1005"
"4","4","encoding","encoding","74","Castle_Model.jpg","37","0","985"
"4","4","encoding","encoding","75","MassageRoller.jpg","37","0","798"
"4","4","encoding","encoding","76","Leek.jpg","36","0","1204"
"4","4","encoding","encoding","77","Container_RedPlastic.jpg","36","0","1027"
"4","4","encoding","encoding","78","Playard.jpg","37","0","1090"
"4","4","encoding","encoding","79","Chest.jpg","37","0","986"
"4","4","encoding","encoding","80","Candelabra.jpg","37","0","753"
"4","4","encoding","encoding","81","Pasta_Fusilli.jpg","36","0","953"
"4","4","encoding","encoding","82","Toy_PandaPlushie.jpg","36","0","880"
"4","4","encoding","encoding","83","Partition.jpg","37","0","605"
"4","4","encoding","encoding","84","GingerbreadMan.jpg","36","0","220"
"4","4","encoding","encoding","85","Statue_Head.jpg","37","0","130"
"4","4","encoding","encoding","86","fries.jpg","37","0","246"
"4","4","encoding","encoding","87","Hammer_Reflex.jpg","36","0","117"
"4","4","encoding","encoding","88","Cougar.jpg","37","0","51"
"4","4","encoding","encoding","89","MalletJudge.jpg","36","0","30"
"4","4","encoding","encoding","90","Ashtray_Cigarettes.jpg","36","0","72"
"4","4","encoding","encoding","91","Jug_ClayAncient.jpg","37","0","1237"
"4","4","encoding","encoding","92","Stepper.jpg","36","0","830"
"4","4","encoding","encoding","93","Stick_Stirring.jpg","37","0","457"
"4","4","encoding","encoding","94","Toy_StackingRing.jpg","36","0","48"
"4","4","encoding","encoding","95","ColoringSet.jpg","36","0","728"
"4","4","encoding","encoding","96","Fork_Fondue.jpg","36","0","16"
"4","4","encoding","encoding","97","MortarPestle_WhiteMarble.jpg","37","0","103"
"4","4","encoding","encoding","98","RibbonString.jpg","36","0","183"
"4","4","encoding","encoding","99","SoapDish.jpg","36","0","96"
"4","4","encoding","encoding","100","Lion.jpg","37","0","111"
"4","4","encoding","encoding","101","Candy_Caramel.jpg","37","0","132"
"4","4","encoding","encoding","102","Grenade.jpg","36","0","244"
"4","4","encoding","encoding","103","Plate_Decorative.jpg","36","0","36"
"4","4","encoding","encoding","104","FileDivider.jpg","36","0","69"
"4","4","encoding","encoding","105","Tofu.jpg","37","0","142"
"4","4","encoding","encoding","106","Candy_Cotton.jpg","37","0","110"
"4","4","encoding","encoding","107","Flags_CheckeredRacing.jpg","37","0","32"
"4","4","encoding","encoding","108","Sign_SlipperyRoad.jpg","37","0","45"
"4","4","encoding","encoding","109","Bus_DoubleDecker.jpg","36","0","74"
"4","4","encoding","encoding","110","Corkboard.jpg","36","0","109"
"4","4","encoding","encoding","111","Grape.jpg","36","0","166"
"4","4","encoding","encoding","112","Paddle_Bread.jpg","36","0","35"
"4","4","encoding","encoding","113","Sign_NoParking.jpg","36","0","176"
"4","4","encoding","encoding","114","Teabag.jpg","37","0","50"
"4","4","encoding","encoding","115","KnifeHolder.jpg","37","0","144"
"4","4","encoding","encoding","116","TrapAnimal.jpg","37","0","104"
"4","4","encoding","encoding","117","Mask_Happy.jpg","37","0","76"
"4","4","encoding","encoding","118","Bagel.jpg","36","0","184"
"4","4","encoding","encoding","119","Horseshoe.jpg","37","0","108"
"4","4","encoding","encoding","120","Canister_Oil.jpg","36","0","480"
"4","4","encoding","encoding","121","BridgeWooden.jpg","37","0","457"
"4","4","encoding","encoding","123","Shoes_DutchClogs.jpg","36","0","223"
"4","4","encoding","encoding","124","Box_Notepaper.jpg","37","0","935"
"4","4","encoding","encoding","125","Boots_Hiking.jpg","36","0","1146"
"4","4","encoding","encoding","126","Flamingo_Real.jpg","36","0","1080"
"4","4","encoding","encoding","127","DivingBoard.jpg","37","0","561"
"4","4","encoding","encoding","128","Toy_BearBlackPlastic.jpg","37","0","1119"
"4","4","encoding","encoding","129","Pineapple.jpg","36","0","1554"
"4","4","encoding","encoding","130","BloodpPresureCuff.jpg","37","0","954"
"4","4","encoding","encoding","131","Jar_Strawberry.jpg","36","0","849"
"4","4","encoding","encoding","132","Toy_Chicken.jpg","37","0","582"
"4","4","encoding","encoding","133","PumiceStone.jpg","37","0","1224"
"4","4","encoding","encoding","134","Currants.jpg","36","0","791"
"4","4","encoding","encoding","135","Cage_Hamster.jpg","36","0","963"
"4","4","encoding","encoding","136","Chair_Barber.jpg","37","0","618"
"4","4","encoding","encoding","137","PersonWooden.jpg","37","0","1082"
"4","4","encoding","encoding","138","Thermos_MetalSleek.jpg","37","0","835"
"4","4","encoding","encoding","139","Thimble.jpg","36","0","1028"
"4","4","encoding","encoding","140","Box_Staples.jpg","37","0","920"
"4","4","encoding","encoding","141","NeedlesAcupuncture.jpg","37","0","944"
"4","4","encoding","encoding","142","Caribou.jpg","37","0","1069"
"4","4","encoding","encoding","143","Speaker_OnStand.jpg","37","0","150"
"4","4","encoding","encoding","144","LampPost_ThreeBulbs.jpg","37","0","107"
"4","4","encoding","encoding","145","Spider.jpg","37","0","60"
"4","4","encoding","encoding","146","ClothRed.jpg","37","0","82"
"4","4","encoding","encoding","147","House_CeramicGingerbread.jpg","37","0","86"
"4","4","encoding","encoding","148","Toy_Train.jpg","36","0","32"
"4","4","encoding","encoding","149","Telephone_TinCan.jpg","36","0","95"
"4","4","encoding","encoding","150","Lipstick.jpg","37","0","128"
"4","4","encoding","encoding","151","Statue_Man.jpg","37","0","234"
"4","4","encoding","encoding","152","SundaeBanana.jpg","37","0","196"
"4","4","encoding","encoding","153","Trumpet.jpg","37","0","15"
"4","4","encoding","encoding","154","Motorcycle.jpg","37","0","63"
"4","4","encoding","encoding","155","Boat_Trailer.jpg","37","0","238"
"4","4","encoding","encoding","156","Stove_WithOven.jpg","37","0","91"
"4","4","encoding","encoding","157","PaperStack.jpg","37","0","12"
"4","4","encoding","encoding","158","Beaker.jpg","36","0","80"
"4","4","encoding","encoding","159","Mitt_Blue.jpg","36","0","208"
"4","4","encoding","encoding","160","Heater_ElectricPortable.jpg","36","0","192"
"4","4","encoding","encoding","161","Ramekin.jpg","36","0","127"
"4","4","encoding","encoding","162","Exercise_Machine.jpg","36","0","132"
"4","4","encoding","encoding","163","Avocado.jpg","36","0","127"
"4","4","encoding","encoding","164","PhoneCase.jpg","36","0","42"
"4","4","encoding","encoding","165","Ball_8.jpg","37","0","112"
"4","4","encoding","encoding","166","Keys_Bunch.jpg","36","0","73"
"4","4","encoding","encoding","167","ServiceBell.jpg","37","0","79"
"4","4","encoding","encoding","168","SaladCaesar.jpg","37","0","70"
"4","4","encoding","encoding","169","Truck_Army.jpg","36","0","45"
"4","4","encoding","encoding","170","Computer_CPU.jpg","37","0","196"
"4","4","encoding","encoding","171","Oars.jpg","37","0","207"
"4","4","encoding","encoding","172","Shovel_Sandbox.jpg","37","0","203"
"4","4","encoding","encoding","173","RadioactiveContainer.jpg","36","0","76"
"4","4","encoding","encoding","174","Tomato.jpg","36","0","104"
"4","4","encoding","encoding","175","Dress_Blue.jpg","37","0","9"
"4","4","encoding","encoding","176","Hand.jpg","36","0","155"
"4","4","encoding","encoding","177","Pen_Calligraphy.jpg","37","0","17"
"4","4","retrieval","old_objects","1","Grape.jpg","36","1","1820"
"4","4","retrieval","old_objects","2","Carbiner_Ascender.jpg","37","0","1110"
"4","4","retrieval","old_objects","3","Cable_AudioSplitter.jpg","37","0","776"
"4","4","retrieval","old_objects","4","Backpack_Travel.jpg","36","1","615"
"4","4","retrieval","old_objects","5","Ramekin.jpg","37","0","977"
"4","4","retrieval","old_objects","6","PersonWooden.jpg","36","1","713"
"4","4","retrieval","new_objects","7","PlantPotted.jpg","37","1","1012"
"4","4","retrieval","new_objects","8","Gazebo.jpg","36","0","693"
"4","4","retrieval","new_objects","9","Trophy.jpg","37","1","664"
"4","4","retrieval","old_objects","10","MannequinHead.jpg","37","0","1104"
"4","4","retrieval","new_objects","11","BabyMonitor.jpg","36","0","757"
"4","4","retrieval","old_objects","12","Candy_Cotton.jpg","36","1","806"
"4","4","retrieval","old_objects","13","SaladCaesar.jpg","37","0","922"
"4","4","retrieval","new_objects","14","SpinningWheel.jpg","36","0","1860"
"4","4","retrieval","new_objects","15","ComputerKeyboard_Backspace.jpg","37","1","1367"
"4","4","retrieval","new_objects","16","Chicken_FriedDrum.jpg","37","1","1325"
"4","4","retrieval","old_objects","17","Ball_8.jpg","36","1","1091"
"4","4","retrieval","new_objects","18","Pillar.jpg","37","1","1129"
"4","4","retrieval","old_objects","19","Hammer_Reflex.jpg","37","0","829"
"4","4","retrieval","old_objects","20","Canister_Oil.jpg","37","0","1275"
"4","4","retrieval","new_objects","21","Cart_Janitor.jpg","37","1","1138"
"4","4","retrieval","new_objects","22","Bulldozer.jpg","37","1","1264"
"4","4","retrieval","new_objects","23","EnglishMuffin.jpg","37","1","1729"
"4","4","retrieval","new_objects","24","Bolt_WithNut.jpg","36","0","1107"
"4","4","retrieval","new_objects","25","Scythe.jpg","36","0","831"
"4","4","retrieval","new_objects","26","Box_Chocolate.jpg","37","1","1362"
"4","4","retrieval","new_objects","27","Asparagus.jpg","36","0","1637"
"4","4","retrieval","old_objects","28","Pasta_Fusilli.jpg","36","1","960"
"4","4","retrieval","old_objects","29","Mitt_Blue.jpg","36","1","915"
"4","4","retrieval","new_objects","30","Archery_ArrowsBows.jpg","37","1","893"
"4","4","retrieval","new_objects","31","Vase_EarthToned.jpg","36","0","1264"
"4","4","retrieval","old_objects","32","Drum_Ramadan.jpg","0","0","2000"
"4","4","retrieval","old_objects","33","Teabag.jpg","36","1","1002"
"4","4","retrieval","old_objects","34","Dolphine.jpg","37","0","834"
"4","4","retrieval","old_objects","35","White_Screen.jpg","36","1","1078"
"4","4","retrieval","new_objects","36","Axe.jpg","37","1","668"
"4","4","retrieval","old_objects","37","Gun_Bazooka.jpg","37","0","1039"
"4","4","retrieval","new_objects","38","Chest_Toys.jpg","36","0","1353"
"4","4","retrieval","new_objects","39","Toy_RobotTransformer.jpg","37","1","970"
"4","4","retrieval","old_objects","40","Chopsticks.jpg","36","1","839"
"4","4","retrieval","new_objects","41","Cart_Groceries.jpg","37","1","174"
"4","4","retrieval","old_objects","42","Chest.jpg","37","0","313"
"4","4","retrieval","old_objects","43","Thermos_MetalSleek.jpg","36","1","144"
"4","4","retrieval","old_objects","44","Organ.jpg","37","0","44"
"4","4","retrieval","new_objects","45","Alfalfa.jpg","36","0","111"
"4","4","retrieval","old_objects","46","PaperStack.jpg","37","0","76"
"4","4","retrieval","old_objects","47","ClothRed.jpg","36","1","59"
"4","4","retrieval","old_objects","48","Fork_Fondue.jpg","37","0","139"
"4","4","retrieval","new_objects","49","Tire_Hollow.jpg","36","0","45"
"4","4","retrieval","old_objects","50","Playard.jpg","37","0","52"
"4","4","retrieval","new_objects","51","Plate_Ceramic.jpg","37","1","1045"
"4","4","retrieval","new_objects","52","Feet.jpg","37","1","1279"
"4","4","retrieval","new_objects","53","Stroboscope.jpg","36","0","871"
"4","4","retrieval","old_objects","54","Bagel.jpg","37","0","907"
"4","4","retrieval","new_objects","55","Pot_BlackOld.jpg","36","0","1010"
"4","4","retrieval","old_objects","56","House_CeramicGingerbread.jpg","37","0","1272"
"4","4","retrieval","old_objects","57","Boots_Hiking.jpg","37","0","902"
"4","4","retrieval","new_objects","58","Jar_JellyBeans.jpg","37","1","1057"
"4","4","retrieval","new_objects","59","Mat_Car.jpg","37","1","484"
"4","4","retrieval","old_objects","60","SoapDish.jpg","37","0","76"
"4","4","retrieval","old_objects","62","Stick_Stirring.jpg","36","1","1009"
"4","4","retrieval","old_objects","63","Candy_Caramel.jpg","37","0","1338"
"4","4","retrieval","new_objects","64","Spoon_Sugar.jpg","36","0","1106"
"4","4","retrieval","old_objects","65","SewingPin_Cushion.jpg","36","1","1737"
"4","4","retrieval","old_objects","66","Envelope_Manila.jpg","37","0","1255"
"4","4","retrieval","old_objects","67","Heater_ElectricPortable.jpg","36","1","679"
"4","4","retrieval","old_objects","68","LampPost_ThreeBulbs.jpg","37","0","655"
"4","4","retrieval","new_objects","69","Jet.jpg","37","1","948"
"4","4","retrieval","new_objects","70","SpinalCord.jpg","37","1","1259"
"4","4","retrieval","old_objects","71","Horseshoe.jpg","36","1","1110"
"4","4","retrieval","old_objects","72","IceCrusher.jpg","36","1","815"
"4","4","retrieval","new_objects","73","Outhouse.jpg","36","0","1044"
"4","4","retrieval","new_objects","74","StockingChristmas.jpg","37","1","944"
"4","4","retrieval","old_objects","75","Shoes_DutchClogs.jpg","37","0","762"
"4","4","retrieval","new_objects","76","Sand.jpg","36","0","1143"
"4","4","retrieval","old_objects","77","Keychain_Metal.jpg","37","0","971"
"4","4","retrieval","new_objects","78","Boat_Sail.jpg","36","0","1034"
"4","4","retrieval","new_objects","79","JuiceBox.jpg","36","0","1089"
"4","4","retrieval","old_objects","80","Vest.jpg","37","0","968"
"4","4","retrieval","old_objects","81","Tickets_PrintWords.jpg","37","0","1086"
"4","4","retrieval","new_objects","82","Cheesegrater_Box.jpg","36","0","1045"
"4","4","retrieval","old_objects","83","Corkboard.jpg","37","0","979"
"4","4","retrieval","new_objects","84","SlushieMachine.jpg","36","0","1252"
"4","4","retrieval","new_objects","85","Ball_Basketball.jpg","37","1","750"
"4","4","retrieval","old_objects","86","Glass_Bowl.jpg","37","0","656"
"4","4","retrieval","old_objects","87","Caribou.jpg","36","1","1184"
"4","4","retrieval","new_objects","88","Fence_ChainLink.jpg","36","0","1040"
"4","4","retrieval","new_objects","89","Bed_Hospital.jpg","36","0","1188"
"4","4","retrieval","new_objects","90","Sieve_SideView.jpg","37","1","734"
"4","4","retrieval","new_objects","91","Kneepad.jpg","37","1","729"
"4","4","retrieval","new_objects","92","Bathtub.jpg","36","0","919"
"4","4","retrieval","new_objects","93","Playdoh.jpg","37","1","1146"
"4","4","retrieval","new_objects","94","Stingray.jpg","37","1","786"
"4","4","retrieval","old_objects","95","FileDivider.jpg","36","1","627"
"4","4","retrieval","old_objects","96","DivingBoard.jpg","37","0","539"
"4","4","retrieval","new_objects","97","ElectricOutlet.jpg","36","0","945"
"4","4","retrieval","old_objects","98","Bellows.jpg","37","0","1123"
"4","4","retrieval","new_objects","99","Walker_Silver.jpg","36","0","813"
"4","4","retrieval","new_objects","100","Skirt_Stripes.jpg","36","0","961"
"4","4","retrieval","new_objects","101","ConnectorPlug.jpg","37","1","809"
"4","4","retrieval","old_objects","102","Toy_Train.jpg","37","0","1213"
"4","4","retrieval","old_objects","103","TestTube_MultipleAndRack.jpg","36","1","986"
"4","4","retrieval","new_objects","104","Spoons_MeasuringAttached.jpg","37","1","1096"
"4","4","retrieval","new_objects","105","LightBulb_Blue.jpg","37","1","930"
"4","4","retrieval","new_objects","106","Cross.jpg","36","0","920"
"4","4","retrieval","new_objects","107","Cabinet_Display.jpg","37","1","974"
"4","4","retrieval","new_objects","108","Trunk.jpg","37","1","840"
"4","4","retrieval","new_objects","109","Pyramid.jpg","37","1","569"
"4","4","retrieval","new_objects","110","Sink_Bathroom.jpg","37","1","278"
"4","4","retrieval","new_objects","111","Wheelbarrow_Green.jpg","37","1","106"
"4","4","retrieval","old_objects","112","Flags_CheckeredRacing.jpg","36","1","20"
"4","4","retrieval","old_objects","113","Kite_Rainbow.jpg","37","0","87"
"4","4","retrieval","old_objects","114","Lettuce_Romaine.jpg","37","0","349"
"4","4","retrieval","old_objects","115","Brush_Nail.jpg","37","0","250"
"4","4","retrieval","new_objects","116","Kazoo.jpg","37","1","93"
"4","4","retrieval","new_objects","117","Light_Halogen.jpg","36","0","98"
"4","4","retrieval","old_objects","118","Film_Single.jpg","36","1","56"
"4","4","retrieval","old_objects","119","Flamingo_Real.jpg","37","0","66"
"4","4","retrieval","new_objects","120","Desk_White.jpg","36","0","66"
"4","4","retrieval","new_objects","121","Aquarium.jpg","36","0","190"
"4","4","retrieval","new_objects","123","Compact_Mirror.jpg","37","1","1713"
"4","4","retrieval","new_objects","124","MetalChain.jpg","37","1","1434"
"4","4","retrieval","old_objects","125","Tomato.jpg","37","0","1347"
"4","4","retrieval","old_objects","126","Spraybottle.jpg","36","1","994"
"4","4","retrieval","old_objects","127","Mango.jpg","36","1","882"
"4","4","retrieval","old_objects","128","Cougar.jpg","36","1","1120"
"4","4","retrieval","old_objects","129","Jug_ClayAncient.jpg","36","1","1152"
"4","4","retrieval","old_objects","130","DusterFeather.jpg","37","0","782"
"4","4","retrieval","new_objects","131","StreetSweeper.jpg","37","1","1090"
"4","4","retrieval","new_objects","132","Lollipop_Grape.jpg","36","0","876"
"4","4","retrieval","old_objects","133","Container_RedPlastic.jpg","37","0","285"
"4","4","retrieval","old_objects","134","Beaker.jpg","37","0","245"
"4","4","retrieval","new_objects","135","Clarinet.jpg","37","1","116"
"4","4","retrieval","old_objects","136","Card_TwoSpade.jpg","37","0","354"
"4","4","retrieval","old_objects","137","TrapAnimal.jpg","37","0","182"
"4","4","retrieval","new_objects","138","Scarecrow.jpg","37","1","196"
"4","4","retrieval","old_objects","139","DentalProbe.jpg","37","0","169"
"4","4","retrieval","new_objects","140","Hat_Beanie.jpg","37","1","168"
"4","4","retrieval","old_objects","141","Dog_ChowChow.jpg","37","0","308"
"4","4","retrieval","new_objects","142","Microwave.jpg","37","1","108"
"4","4","retrieval","new_objects","143","Toy_ModelMolecule.jpg","37","1","47"
"4","4","retrieval","new_objects","144","Toy_Bat.jpg","36","0","36"
"4","4","retrieval","old_objects","145","ColoringSet.jpg","37","0","158"
"4","4","retrieval","new_objects","146","Corkscrew.jpg","36","0","139"
"4","4","retrieval","old_objects","147","ShoulderPads.jpg","36","1","73"
"4","4","retrieval","new_objects","148","Boat_Row.jpg","37","1","73"
"4","4","retrieval","old_objects","149","Paddle_Bread.jpg","37","0","215"
"4","4","retrieval","new_objects","150","Swing_Child.jpg","37","1","197"
"4","4","retrieval","old_objects","151","Bag_Gift.jpg","37","0","166"
"4","4","retrieval","old_objects","152","Ring_Diamond.jpg","37","0","162"
"4","4","retrieval","new_objects","153","Rag.jpg","37","1","174"
"4","4","retrieval","new_objects","154","Bone.jpg","37","1","218"
"4","4","retrieval","new_objects","155","House_Doll.jpg","36","0","49"
"4","4","retrieval","new_objects","156","Sign_Taxi.jpg","37","1","35"
"4","4","retrieval","old_objects","157","Tray_Cafeteria.jpg","36","1","191"
"4","4","retrieval","old_objects","158","Table_Set.jpg","36","1","147"
"4","4","retrieval","old_objects","159","Boat_Trailer.jpg","37","0","76"
"4","4","retrieval","old_objects","160","Pencil.jpg","37","0","223"
"4","4","retrieval","new_objects","161","Noose.jpg","37","1","90"
"4","4","retrieval","new_objects","162","Magnifying_Glass.jpg","37","1","215"
"4","4","retrieval","old_objects","163","Box_Staples.jpg","37","0","113"
"4","4","retrieval","old_objects","164","MouthGuard.jpg","37","0","106"
"4","4","retrieval","old_objects","165","Noisemaker.jpg","37","0","206"
"4","4","retrieval","new_objects","166","Gameboy.jpg","37","1","14"
"4","4","retrieval","old_objects","167","SnowmanDecor.jpg","36","1","2"
"4","4","retrieval","new_objects","168","USBKey.jpg","37","1","27"
"4","4","retrieval","old_objects","169","Toys_Lego.jpg","36","1","29"
"4","4","retrieval","old_objects","170","Tofu.jpg","37","0","51"
"4","4","retrieval","new_objects","171","Dog_Bulldog.jpg","36","0","10"
"4","4","retrieval","new_objects","172","Lamp_Table.jpg","37","1","25"
"4","4","retrieval","new_objects","173","Box_JeweleryWooden.jpg","37","1","87"
"4","4","retrieval","old_objects","174","Shrub_Cedar.jpg","37","0","563"
"4","4","retrieval","old_objects","175","Piano_Keyboard.jpg","37","0","132"
"4","4","retrieval","old_objects","176","Lock_Combination.jpg","37","0","102"
"4","4","retrieval","new_objects","177","Cup_Styrofoam.jpg","37","1","49"
"4","4","retrieval","old_objects","178","Grenade.jpg","37","0","32"
"4","4","retrieval","new_objects","179","Briefcase_Leather.jpg","37","1","112"
"4","4","retrieval","old_objects","180","Keys_Bunch.jpg","36","1","802"
"4","4","retrieval","new_objects","181","Hat_Cowboy.jpg","36","0","264"
"4","4","retrieval","new_objects","182","Perfume.jpg","37","1","128"
"4","4","retrieval","old_objects","184","Oars.jpg","37","0","1129"
"4","4","retrieval","old_objects","185","Pineapple.jpg","37","0","1077"
"4","4","retrieval","new_objects","186","PharoahReplica.jpg","37","1","95"
"4","4","retrieval","old_objects","187","Toy_Slinky.jpg","37","0","9"
"4","4","retrieval","old_objects","188","Bowl_Lemons.jpg","37","0","95"
"4","4","retrieval","old_objects","189","Toy_JackInTheBox.jpg","37","0","198"
"4","4","retrieval","new_objects","190","Speaker_Single.jpg","37","1","55"
"4","4","retrieval","new_objects","191","Notepad_WithPen.jpg","36","0","38"
"4","4","retrieval","new_objects","192","Printer.jpg","36","0","86"
"4","4","retrieval","old_objects","193","Shovel_Sandbox.jpg","37","0","103"
"4","4","retrieval","new_objects","194","Stove_Camping.jpg","37","1","161"
"4","4","retrieval","new_objects","195","BicycleSeat.jpg","36","0","235"
"4","4","retrieval","old_objects","196","RibbonString.jpg","36","1","153"
"4","4","retrieval","old_objects","197","Cage_Hamster.jpg","37","0","138"
"4","4","retrieval","new_objects","198","Wire_ElectricalSingle.jpg","37","1","171"
"4","4","retrieval","new_objects","199","Toy_Taxi.jpg","37","1","54"
"4","4","retrieval","new_objects","200","Statue_VirginMary.jpg","36","0","133"
"4","4","retrieval","old_objects","201","Statue_Man.jpg","37","0","150"
"4","4","retrieval","old_objects","202","Toy_Shark.jpg","36","1","19"
"4","4","retrieval","new_objects","203","Speakers_Theatre.jpg","36","0","160"
"4","4","retrieval","old_objects","204","Dress_Blue.jpg","37","0","70"
"4","4","retrieval","new_objects","205","Case_CD.jpg","36","0","93"
"4","4","retrieval","new_objects","206","Blueprints.jpg","37","1","71"
"4","4","retrieval","old_objects","207","Crate_Milk.jpg","37","0","23"
"4","4","retrieval","old_objects","208","Jar_Strawberry.jpg","36","1","67"
"4","4","retrieval","old_objects","209","Ashtray_Cigarettes.jpg","37","0","57"
"4","4","retrieval","new_objects","210","Table_Pool.jpg","36","0","12"
"4","4","retrieval","new_objects","211","Box_Apples.jpg","36","0","39"
"4","4","retrieval","new_objects","212","CoffeeBeans.jpg","36","0","139"
"4","4","retrieval","new_objects","213","Brush_Winter.jpg","37","1","141"
"4","4","retrieval","new_objects","214","Camera_Antique.jpg","36","0","179"
"4","4","retrieval","old_objects","215","Stepper.jpg","37","0","74"
"4","4","retrieval","old_objects","216","Chair_Barber.jpg","36","1","169"
"4","4","retrieval","old_objects","217","Stove_WithOven.jpg","37","0","84"
"4","4","retrieval","old_objects","218","Match.jpg","37","0","100"
"4","4","retrieval","old_objects","219","Statue_Head.jpg","37","0","120"
"4","4","retrieval","new_objects","220","Glass_Martini.jpg","37","1","78"
"4","4","retrieval","old_objects","221","JumpingJack.jpg","36","1","43"
"4","4","retrieval","old_objects","222","Hat_Colonial.jpg","37","0","61"
"4","4","retrieval","old_objects","223","Candelabra.jpg","36","1","92"
"4","4","retrieval","new_objects","224","Bark.jpg","37","1","122"
"4","4","retrieval","new_objects","225","Sign_Construction.jpg","36","0","102"
"4","4","retrieval","new_objects","226","DogSled.jpg","37","1","69"
"4","4","retrieval","new_objects","227","Tribunal_Wooden.jpg","36","0","34"
"4","4","retrieval","old_objects","228","Window.jpg","37","0","36"
"4","4","retrieval","old_objects","229","Barrel_Wine.jpg","36","1","4"
"4","4","retrieval","old_objects","230","Toy_Chicken.jpg","36","1","45"
"4","4","retrieval","old_objects","231","SofaAntique.jpg","37","0","54"
"4","4","retrieval","old_objects","232","GingerbreadMan.jpg","36","1","238"
"4","4","retrieval","new_objects","233","Cow.jpg","37","1","121"
"4","4","retrieval","new_objects","234","Toy_Stroller.jpg","36","0","123"
"4","4","retrieval","new_objects","235","LampPost_OneBulb.jpg","37","1","78"
"4","4","retrieval","old_objects","236","RadioactiveContainer.jpg","36","1","115"
"4","4","retrieval","new_objects","237","Arch.jpg","37","1","91"
"4","4","retrieval","old_objects","238","MassageRoller.jpg","36","1","168"
"4","4","retrieval","old_objects","239","Leek.jpg","37","0","24"
"4","4","retrieval","new_objects","240","DeepFryer.jpg","37","1","140"
"4","4","retrieval","new_objects","241","Frame_Oval.jpg","36","0","67"
"4","4","retrieval","new_objects","242","Pants_Firefighter.jpg","36","0","181"
"4","4","retrieval","old_objects","243","Currants.jpg","37","0","101"
"4","4","retrieval","new_objects","245","Lamp_TableWhite.jpg","36","0","222"
"4","4","retrieval","old_objects","246","Box_Notepaper.jpg","37","0","91"
"4","4","retrieval","new_objects","247","Pasta_Shell.jpg","36","0","90"
"4","4","retrieval","old_objects","248","Backhoe.jpg","36","1","47"
"4","4","retrieval","new_objects","249","Licorice.jpg","37","1","109"
"4","4","retrieval","old_objects","250","Origami_Boat.jpg","37","0","150"
"4","4","retrieval","new_objects","251","Truck_Tanker.jpg","37","1","34"
"4","4","retrieval","new_objects","252","Sphinx.jpg","36","0","169"
"4","4","retrieval","old_objects","253","Switch_Power.jpg","36","1","87"
"4","4","retrieval","new_objects","254","FuzzyDice.jpg","36","0","136"
"4","4","retrieval","new_objects","255","Squid_Pink.jpg","36","0","124"
"4","4","retrieval","old_objects","256","Sign_NoParking.jpg","37","0","126"
"4","4","retrieval","new_objects","257","Toy_Christmastree.jpg","37","1","103"
"4","4","retrieval","new_objects","258","Hat_Explorer.jpg","36","0","88"
"4","4","retrieval","old_objects","259","Fryingpan.jpg","37","0","161"
"4","4","retrieval","old_objects","260","ProjectorScreen.jpg","37","0","665"
"4","4","retrieval","new_objects","261","Tag_Price.jpg","36","0","1015"
"4","4","retrieval","new_objects","262","Pasta_Penne.jpg","37","1","1034"
"4","4","retrieval","old_objects","263","Hand.jpg","36","1","1035"
"4","4","retrieval","old_objects","264","Toy_StackingRing.jpg","36","1","222"
"4","4","retrieval","old_objects","265","BottleOpener.jpg","37","0","148"
"4","4","retrieval","new_objects","266","Squid_Orange.jpg","36","0","75"
"4","4","retrieval","old_objects","267","Toy_BlocksPlastic Colourful.jpg","37","0","59"
"4","4","retrieval","new_objects","268","Makeup_Compact.jpg","36","0","95"
"4","4","retrieval","new_objects","269","Humidifier.jpg","37","1","31"
"4","4","retrieval","new_objects","270","Toy_WoodenPlainSingle.jpg","36","0","26"
"4","4","retrieval","old_objects","271","Mask_Happy.jpg","37","0","52"
"4","4","retrieval","new_objects","272","Seeder.jpg","36","0","107"
"4","4","retrieval","old_objects","273","Toy_BearBlackPlastic.jpg","37","0","102"
"4","4","retrieval","old_objects","274","Fish_Rockbass.jpg","36","1","180"
"4","4","retrieval","old_objects","275","Castle_Model.jpg","37","0","231"
"4","4","retrieval","old_objects","276","Plate_Decorative.jpg","37","0","37"
"4","4","retrieval","old_objects","277","Thimble.jpg","36","1","257"
"4","4","retrieval","old_objects","278","Harp.jpg","36","1","58"
"4","4","retrieval","new_objects","279","Dill.jpg","36","0","6"
"4","4","retrieval","old_objects","280","BridgeWooden.jpg","36","1","135"
"4","4","retrieval","old_objects","281","NeedlesAcupuncture.jpg","36","1","226"
"4","4","retrieval","old_objects","282","Seashell_BayScallop.jpg","37","0","137"
"4","4","retrieval","new_objects","283","Can_Milk.jpg","36","0","160"
"4","4","retrieval","old_objects","284","Spider.jpg","37","0","109"
"4","4","retrieval","new_objects","285","Protractor.jpg","36","0","46"
"4","4","retrieval","old_objects","286","PhoneCase.jpg","36","1","21"
"4","4","retrieval","old_objects","287","Bus_DoubleDecker.jpg","36","1","137"
"4","4","retrieval","new_objects","288","Parcel.jpg","36","0","36"
"4","4","retrieval","new_objects","289","HumanSkull.jpg","37","1","112"
"4","4","retrieval","old_objects","290","Partition.jpg","36","1","260"
"4","4","retrieval","old_objects","291","Motorcycle.jpg","37","0","191"
"4","4","retrieval","new_objects","292","Tray_Wooden.jpg","36","0","141"
"4","4","retrieval","new_objects","293","BoogieBoard.jpg","37","1","440"
"4","4","retrieval","new_objects","294","Camera_Video.jpg","37","1","548"
"4","4","retrieval","new_objects","295","Shirt_Tshirt.jpg","37","1","161"
"4","4","retrieval","new_objects","296","Cheque.jpg","36","0","162"
"4","4","retrieval","new_objects","297","SpongeScrubbing.jpg","37","1","199"
"4","4","retrieval","old_objects","298","Makeup_Mascara.jpg","36","1","188"
"4","4","retrieval","new_objects","299","Jug_Milk.jpg","36","0","7"
"4","4","retrieval","old_objects","300","MortarPestle_WhiteMarble.jpg","36","1","52"
"4","4","retrieval","new_objects","301","Spoon_Wooden.jpg","37","1","202"
"4","4","retrieval","old_objects","302","Paddle_Canoe.jpg","37","0","216"
"4","4","retrieval","new_objects","303","TigerWhite.jpg","37","1","51"
"4","4","retrieval","new_objects","304","Key_Car.jpg","36","0","71"
"4","4","retrieval","old_objects","306","Toy_HockeyStick.jpg","36","1","110"
"4","4","retrieval","new_objects","307","Nuts_Walnut.jpg","36","0","185"
"4","4","retrieval","new_objects","308","PaintSprayer.jpg","36","0","0"
"4","4","retrieval","new_objects","309","OvenElement.jpg","37","1","11"
"4","4","retrieval","new_objects","310","Mask_Masquerade.jpg","37","1","346"
"4","4","retrieval","old_objects","311","Pen_Calligraphy.jpg","36","1","114"
"4","4","retrieval","old_objects","312","Sign_SlipperyRoad.jpg","37","0","83"
"4","4","retrieval","new_objects","313","Toy_Drill.jpg","36","0","148"
"4","4","retrieval","new_objects","314","CableConnecter.jpg","36","0","887"
"4","4","retrieval","new_objects","315","Cup_Fruits.jpg","37","1","126"
"4","4","retrieval","old_objects","316","KnifeHolder.jpg","36","1","63"
"4","4","retrieval","old_objects","317","Avocado.jpg","37","0","199"
"4","4","retrieval","new_objects","318","MortarPestle_BlackStone.jpg","37","1","1"
"4","4","retrieval","new_objects","319","MusicSheet.jpg","36","0","236"
"4","4","retrieval","old_objects","320","Truck_Army.jpg","37","0","16"
"4","4","retrieval","old_objects","321","SundaeBanana.jpg","36","1","31"
"4","4","retrieval","old_objects","322","Toy_PandaPlushie.jpg","36","1","147"
"4","4","retrieval","old_objects","323","BloodpPresureCuff.jpg","36","1","239"
"4","4","retrieval","old_objects","324","Computer_CPU.jpg","36","1","75"
"4","4","retrieval","old_objects","325","Telephone_TinCan.jpg","36","1","75"
"4","4","retrieval","new_objects","326","Easel.jpg","36","0","180"
"4","4","retrieval","new_objects","327","Mixer_Hand.jpg","36","0","26"
"4","4","retrieval","old_objects","328","RecorderCassette.jpg","36","1","204"
"4","4","retrieval","old_objects","329","Exercise_Machine.jpg","37","0","54"
"4","4","retrieval","old_objects","330","PumiceStone.jpg","36","1","29"
"4","4","retrieval","new_objects","331","Pepper_Green.jpg","37","1","250"
"4","4","retrieval","old_objects","332","Trumpet.jpg","36","1","170"
"4","4","retrieval","old_objects","333","ServiceBell.jpg","37","0","194"
"4","4","retrieval","old_objects","334","Helicopter.jpg","36","1","217"
"4","4","retrieval","old_objects","335","Thermostat_Digital.jpg","37","0","191"
"4","4","retrieval","old_objects","336","fries.jpg","36","1","133"
"4","4","retrieval","new_objects","337","Blade_Tablesaw.jpg","36","0","28"
"4","4","retrieval","old_objects","338","MalletJudge.jpg","37","0","24"
"4","4","retrieval","new_objects","339","Hat_Tuque.jpg","37","1","18"
"4","4","retrieval","new_objects","340","Microscope.jpg","36","0","154"
"4","4","retrieval","new_objects","341","Chair_Deck.jpg","37","1","121"
"4","4","retrieval","new_objects","342","Branch.jpg","36","0","156"
"4","4","retrieval","old_objects","343","Towel.jpg","37","0","135"
"4","4","retrieval","new_objects","344","Pottery.jpg","37","1","77"
"4","4","retrieval","old_objects","345","Lipstick.jpg","36","1","71"
"4","4","retrieval","new_objects","346","DogTreat.jpg","37","1","46"
"4","4","retrieval","new_objects","347","Can_GasSpout.jpg","36","0","126"
"4","4","retrieval","new_objects","348","Tortilla.jpg","37","1","189"
"4","4","retrieval","new_objects","349","Bullet.jpg","36","0","209"
"4","4","retrieval","old_objects","350","Coatrack.jpg","37","0","76"
"4","4","retrieval","old_objects","351","Speaker_OnStand.jpg","36","1","137"
"4","4","retrieval","new_objects","352","Decoration_Chinese.jpg","37","1","174"
"4","4","retrieval","new_objects","353","Flower_Daisy.jpg","37","1","74"
"4","4","retrieval","old_objects","354","Lion.jpg","36","1","166"
"4","4","retrieval","old_objects","355","Teapot.jpg","36","1","97"
"4","4","demographics_block","gender","1","Teapot.jpg","MALE","1","30649"
"4","4","demographics_block","age","1","Teapot.jpg","38","1","30649"
"4","4","demographics_block","education","1","Teapot.jpg","24","1","30649"
"4","4","demographics_block","left_right_handed","2","Teapot.jpg","Left","1","13740"
"4","4","demographics_block","raceoption1","2","Teapot.jpg","","1","13740"
"4","4","demographics_block","raceoption2","2","Teapot.jpg","","1","13740"
"4","4","demographics_block","raceoption3","2","Teapot.jpg","","1","13740"
"4","4","demographics_block","raceoption4","2","Teapot.jpg","3","1","13740"
"4","4","demographics_block","raceoption5","2","Teapot.jpg","","1","13740"
"4","4","demographics_block","raceoption6","2","Teapot.jpg","","1","13740"
"4","4","demographics_block","raceoption7","2","Teapot.jpg","","1","13740"
"4","4","demographics_block","raceoption8","2","Teapot.jpg","","1","13740"
"4","4","demographics_block","raceoption9","2","Teapot.jpg","","1","13740"
"4","4","demographics_block","raceother","2","Teapot.jpg","","1","13740"
"4","4","demographics_block","raceother","2","Teapot.jpg","","1","13740"
"4","4","demographics_block","english_language","2","Teapot.jpg","Yes","1","13740"
"4","4","demographics_block","english_languageother","2","Teapot.jpg","","1","13740"
"4","4","demographics_block","eyesight","3","Teapot.jpg","No","1","13525"
"4","4","demographics_block","colorblind","3","Teapot.jpg","No","1","13525"
"4","4","worker_id_block","worker_id_textbox","1","Teapot.jpg","A23GFZ8448A4UB","1","10388"
"3","3","encoding","encoding","1","ColoringSet.jpg","37","0","677"
"3","3","encoding","encoding","2","Telephone_TinCan.jpg","37","0","819"
"3","3","encoding","encoding","3","PaperStack.jpg","37","0","1060"
"3","3","encoding","encoding","4","Paddle_Canoe.jpg","37","0","1053"
"3","3","encoding","encoding","5","Grape.jpg","36","0","805"
"3","3","encoding","encoding","6","Plate_Decorative.jpg","36","0","1039"
"3","3","encoding","encoding","7","MouthGuard.jpg","36","0","1012"
"3","3","encoding","encoding","8","PumiceStone.jpg","37","0","1110"
"3","3","encoding","encoding","9","Stepper.jpg","37","0","1330"
"3","3","encoding","encoding","10","Pencil.jpg","36","0","958"
"3","3","encoding","encoding","11","Table_Set.jpg","36","0","930"
"3","3","encoding","encoding","12","Drum_Ramadan.jpg","37","0","870"
"3","3","encoding","encoding","13","Hammer_Reflex.jpg","37","0","1054"
"3","3","encoding","encoding","14","Chopsticks.jpg","37","0","1327"
"3","3","encoding","encoding","15","Stove_WithOven.jpg","37","0","1522"
"3","3","encoding","encoding","16","Toy_Train.jpg","37","0","1085"
"3","3","encoding","encoding","17","Dolphine.jpg","37","0","1008"
"3","3","encoding","encoding","18","Tickets_PrintWords.jpg","37","0","901"
"3","3","encoding","encoding","19","Grenade.jpg","37","0","979"
"3","3","encoding","encoding","20","Seashell_BayScallop.jpg","37","0","951"
"3","3","encoding","encoding","21","Thermostat_Digital.jpg","36","0","1092"
"3","3","encoding","encoding","22","Tofu.jpg","37","0","1245"
"3","3","encoding","encoding","23","Lipstick.jpg","36","0","1260"
"3","3","encoding","encoding","24","Cable_AudioSplitter.jpg","36","0","1222"
"3","3","encoding","encoding","25","BottleOpener.jpg","36","0","1185"
"3","3","encoding","encoding","26","Sign_SlipperyRoad.jpg","37","0","963"
"3","3","encoding","encoding","27","Lion.jpg","37","0","714"
"3","3","encoding","encoding","28","Exercise_Machine.jpg","37","0","1065"
"3","3","encoding","encoding","29","Piano_Keyboard.jpg","36","0","952"
"3","3","encoding","encoding","30","Card_TwoSpade.jpg","36","0","1366"
"3","3","encoding","encoding","31","Avocado.jpg","36","0","1100"
"3","3","encoding","encoding","32","Fork_Fondue.jpg","37","0","1075"
"3","3","encoding","encoding","33","Bag_Gift.jpg","36","0","776"
"3","3","encoding","encoding","34","Spider.jpg","37","0","1109"
"3","3","encoding","encoding","35","Stick_Stirring.jpg","36","0","1265"
"3","3","encoding","encoding","36","Mitt_Blue.jpg","36","0","1025"
"3","3","encoding","encoding","37","Tomato.jpg","36","0","1090"
"3","3","encoding","encoding","38","Computer_CPU.jpg","37","0","1190"
"3","3","encoding","encoding","39","Jar_Strawberry.jpg","36","0","956"
"3","3","encoding","encoding","40","Toys_Lego.jpg","36","0","1245"
"3","3","encoding","encoding","41","Toy_JackInTheBox.jpg","36","0","1158"
"3","3","encoding","encoding","42","Organ.jpg","37","0","987"
"3","3","encoding","encoding","43","House_CeramicGingerbread.jpg","37","0","1064"
"3","3","encoding","encoding","44","Dog_ChowChow.jpg","37","0","1221"
"3","3","encoding","encoding","45","Crate_Milk.jpg","36","0","1423"
"3","3","encoding","encoding","46","fries.jpg","36","0","1158"
"3","3","encoding","encoding","47","Mango.jpg","36","0","1744"
"3","3","encoding","encoding","48","ShoulderPads.jpg","37","0","1579"
"3","3","encoding","encoding","49","Bagel.jpg","36","0","1117"
"3","3","encoding","encoding","50","KnifeHolder.jpg","36","0","1610"
"3","3","encoding","encoding","51","Truck_Army.jpg","37","0","888"
"3","3","encoding","encoding","52","Ring_Diamond.jpg","36","0","1041"
"3","3","encoding","encoding","53","Cougar.jpg","37","0","826"
"3","3","encoding","encoding","54","Boat_Trailer.jpg","37","0","903"
"3","3","encoding","encoding","55","Playard.jpg","36","0","1103"
"3","3","encoding","encoding","56","Horseshoe.jpg","37","0","1256"
"3","3","encoding","encoding","57","Box_Staples.jpg","36","0","1433"
"3","3","encoding","encoding","58","Statue_Man.jpg","37","0","1219"
"3","3","encoding","encoding","59","Shovel_Sandbox.jpg","36","0","1213"
"3","3","encoding","encoding","60","SundaeBanana.jpg","36","0","1146"
"3","3","encoding","encoding","62","Bellows.jpg","36","0","1049"
"3","3","encoding","encoding","63","Makeup_Mascara.jpg","36","0","1097"
"3","3","encoding","encoding","64","Beaker.jpg","36","0","1293"
"3","3","encoding","encoding","65","Toy_BearBlackPlastic.jpg","37","0","765"
"3","3","encoding","encoding","66","Noisemaker.jpg","37","0","1223"
"3","3","encoding","encoding","67","LampPost_ThreeBulbs.jpg","37","0","886"
"3","3","encoding","encoding","68","White_Screen.jpg","0","0","2000"
"3","3","encoding","encoding","69","Hat_Colonial.jpg","36","0","1151"
"3","3","encoding","encoding","70","Currants.jpg","36","0","896"
"3","3","encoding","encoding","71","Backhoe.jpg","37","0","845"
"3","3","encoding","encoding","72","Bowl_Lemons.jpg","37","0","919"
"3","3","encoding","encoding","73","Paddle_Bread.jpg","36","0","834"
"3","3","encoding","encoding","74","Hand.jpg","36","0","936"
"3","3","encoding","encoding","75","Toy_StackingRing.jpg","36","0","1168"
"3","3","encoding","encoding","76","Candy_Cotton.jpg","36","0","946"
"3","3","encoding","encoding","77","Glass_Bowl.jpg","36","0","1040"
"3","3","encoding","encoding","78","BloodpPresureCuff.jpg","36","0","1074"
"3","3","encoding","encoding","79","DusterFeather.jpg","36","0","981"
"3","3","encoding","encoding","80","Fish_Rockbass.jpg","37","0","922"
"3","3","encoding","encoding","81","Helicopter.jpg","37","0","724"
"3","3","encoding","encoding","82","ProjectorScreen.jpg","37","0","914"
"3","3","encoding","encoding","83","Teapot.jpg","36","0","1016"
"3","3","encoding","encoding","84","Chair_Barber.jpg","36","0","838"
"3","3","encoding","encoding","85","Pineapple.jpg","36","0","1059"
"3","3","encoding","encoding","86","Jug_ClayAncient.jpg","36","0","903"
"3","3","encoding","encoding","87","Switch_Power.jpg","37","0","1145"
"3","3","encoding","encoding","88","Shrub_Cedar.jpg","37","0","848"
"3","3","encoding","encoding","89","Heater_ElectricPortable.jpg","36","0","1003"
"3","3","encoding","encoding","90","IceCrusher.jpg","37","0","915"
"3","3","encoding","encoding","91","Ashtray_Cigarettes.jpg","37","0","937"
"3","3","encoding","encoding","92","BridgeWooden.jpg","37","0","908"
"3","3","encoding","encoding","93","Motorcycle.jpg","37","0","805"
"3","3","encoding","encoding","94","Teabag.jpg","37","0","932"
"3","3","encoding","encoding","95","Corkboard.jpg","37","0","941"
"3","3","encoding","encoding","96","Candy_Caramel.jpg","36","0","1015"
"3","3","encoding","encoding","97","Barrel_Wine.jpg","37","0","842"
"3","3","encoding","encoding","98","FileDivider.jpg","37","0","867"
"3","3","encoding","encoding","99","Towel.jpg","36","0","894"
"3","3","encoding","encoding","100","ServiceBell.jpg","36","0","1268"
"3","3","encoding","encoding","101","Chest.jpg","36","0","1374"
"3","3","encoding","encoding","102","SnowmanDecor.jpg","36","0","1216"
"3","3","encoding","encoding","103","Pen_Calligraphy.jpg","36","0","1087"
"3","3","encoding","encoding","104","Window.jpg","37","0","891"
"3","3","encoding","encoding","105","Flamingo_Real.jpg","37","0","937"
"3","3","encoding","encoding","106","Cage_Hamster.jpg","37","0","908"
"3","3","encoding","encoding","107","Tray_Cafeteria.jpg","36","0","1062"
"3","3","encoding","encoding","108","RecorderCassette.jpg","36","0","1185"
"3","3","encoding","encoding","109","Sign_NoParking.jpg","37","0","872"
"3","3","encoding","encoding","110","Shoes_DutchClogs.jpg","36","0","907"
"3","3","encoding","encoding","111","Spraybottle.jpg","36","0","899"
"3","3","encoding","encoding","112","Toy_Shark.jpg","36","0","1084"
"3","3","encoding","encoding","113","Toy_HockeyStick.jpg","36","0","1234"
"3","3","encoding","encoding","114","Kite_Rainbow.jpg","37","0","853"
"3","3","encoding","encoding","115","Gun_Bazooka.jpg","37","0","933"
"3","3","encoding","encoding","116","RadioactiveContainer.jpg","37","0","856"
"3","3","encoding","encoding","117","Leek.jpg","37","0","909"
"3","3","encoding","encoding","118","MannequinHead.jpg","36","0","1152"
"3","3","encoding","encoding","119","Fryingpan.jpg","36","0","717"
"3","3","encoding","encoding","120","Caribou.jpg","37","0","813"
"3","3","encoding","encoding","121","Boots_Hiking.jpg","36","0","714"
"3","3","encoding","encoding","123","Speaker_OnStand.jpg","37","0","808"
"3","3","encoding","encoding","124","Pasta_Fusilli.jpg","36","0","1394"
"3","3","encoding","encoding","125","Thimble.jpg","36","0","945"
"3","3","encoding","encoding","126","SofaAntique.jpg","36","0","861"
"3","3","encoding","encoding","127","MortarPestle_WhiteMarble.jpg","36","0","871"
"3","3","encoding","encoding","128","MassageRoller.jpg","36","0","914"
"3","3","encoding","encoding","129","Candelabra.jpg","36","0","1017"
"3","3","encoding","encoding","130","Origami_Boat.jpg","36","0","1051"
"3","3","encoding","encoding","131","RibbonString.jpg","37","0","1015"
"3","3","encoding","encoding","132","Thermos_MetalSleek.jpg","36","0","1023"
"3","3","encoding","encoding","133","Toy_Slinky.jpg","37","0","1039"
"3","3","encoding","encoding","134","Film_Single.jpg","37","0","1079"
"3","3","encoding","encoding","135","Castle_Model.jpg","37","0","864"
"3","3","encoding","encoding","136","Vest.jpg","36","0","850"
"3","3","encoding","encoding","137","SewingPin_Cushion.jpg","37","0","1128"
"3","3","encoding","encoding","138","Dress_Blue.jpg","36","0","987"
"3","3","encoding","encoding","139","JumpingJack.jpg","37","0","1061"
"3","3","encoding","encoding","140","Bus_DoubleDecker.jpg","37","0","860"
"3","3","encoding","encoding","141","Oars.jpg","37","0","1018"
"3","3","encoding","encoding","142","Flags_CheckeredRacing.jpg","37","0","787"
"3","3","encoding","encoding","143","TrapAnimal.jpg","37","0","996"
"3","3","encoding","encoding","144","DentalProbe.jpg","37","0","957"
"3","3","encoding","encoding","145","NeedlesAcupuncture.jpg","37","0","1121"
"3","3","encoding","encoding","146","Envelope_Manila.jpg","37","0","1144"
"3","3","encoding","encoding","147","Box_Notepaper.jpg","37","0","929"
"3","3","encoding","encoding","148","Lettuce_Romaine.jpg","37","0","833"
"3","3","encoding","encoding","149","PersonWooden.jpg","37","0","1018"
"3","3","encoding","encoding","150","MalletJudge.jpg","37","0","983"
"3","3","encoding","encoding","151","Toy_Chicken.jpg","37","0","1107"
"3","3","encoding","encoding","152","PhoneCase.jpg","36","0","1191"
"3","3","encoding","encoding","153","Ramekin.jpg","36","0","906"
"3","3","encoding","encoding","154","Brush_Nail.jpg","36","0","877"
"3","3","encoding","encoding","155","Carbiner_Ascender.jpg","36","0","972"
"3","3","encoding","encoding","156","Trumpet.jpg","37","0","1429"
"3","3","encoding","encoding","157","SaladCaesar.jpg","36","0","915"
"3","3","encoding","encoding","158","TestTube_MultipleAndRack.jpg","36","0","911"
"3","3","encoding","encoding","159","Lock_Combination.jpg","36","0","1216"
"3","3","encoding","encoding","160","Canister_Oil.jpg","36","0","1485"
"3","3","encoding","encoding","161","Toy_BlocksPlastic Colourful.jpg","36","0","1039"
"3","3","encoding","encoding","162","Coatrack.jpg","37","0","1202"
"3","3","encoding","encoding","163","Harp.jpg","37","0","1065"
"3","3","encoding","encoding","164","Partition.jpg","37","0","968"
"3","3","encoding","encoding","165","ClothRed.jpg","36","0","997"
"3","3","encoding","encoding","166","Mask_Happy.jpg","36","0","992"
"3","3","encoding","encoding","167","Keys_Bunch.jpg","36","0","834"
"3","3","encoding","encoding","168","Statue_Head.jpg","37","0","1050"
"3","3","encoding","encoding","169","Ball_8.jpg","37","0","1045"
"3","3","encoding","encoding","170","Toy_PandaPlushie.jpg","37","0","787"
"3","3","encoding","encoding","171","Keychain_Metal.jpg","37","0","1043"
"3","3","encoding","encoding","172","Container_RedPlastic.jpg","37","0","1175"
"3","3","encoding","encoding","173","SoapDish.jpg","36","0","773"
"3","3","encoding","encoding","174","Match.jpg","36","0","715"
"3","3","encoding","encoding","175","GingerbreadMan.jpg","36","0","919"
"3","3","encoding","encoding","176","Backpack_Travel.jpg","36","0","849"
"3","3","encoding","encoding","177","DivingBoard.jpg","37","0","905"
"3","3","retrieval","new_objects","1","Cabinet_Display.jpg","37","1","1014"
"3","3","retrieval","new_objects","2","Swing_Child.jpg","37","1","811"
"3","3","retrieval","old_objects","3","Bellows.jpg","36","1","746"
"3","3","retrieval","old_objects","4","Ashtray_Cigarettes.jpg","36","1","703"
"3","3","retrieval","new_objects","5","StreetSweeper.jpg","37","1","735"
"3","3","retrieval","old_objects","6","Tray_Cafeteria.jpg","36","1","705"
"3","3","retrieval","old_objects","7","Pen_Calligraphy.jpg","36","1","617"
"3","3","retrieval","new_objects","8","Pasta_Penne.jpg","36","0","773"
"3","3","retrieval","new_objects","9","Box_Chocolate.jpg","37","1","612"
"3","3","retrieval","old_objects","10","Playard.jpg","36","1","690"
"3","3","retrieval","old_objects","11","Organ.jpg","36","1","678"
"3","3","retrieval","old_objects","12","Towel.jpg","36","1","653"
"3","3","retrieval","new_objects","13","Decoration_Chinese.jpg","37","1","665"
"3","3","retrieval","new_objects","14","Toy_RobotTransformer.jpg","37","1","755"
"3","3","retrieval","new_objects","15","FuzzyDice.jpg","37","1","681"
"3","3","retrieval","new_objects","16","DeepFryer.jpg","37","1","782"
"3","3","retrieval","new_objects","17","Chair_Deck.jpg","37","1","814"
"3","3","retrieval","old_objects","18","Shovel_Sandbox.jpg","36","1","744"
"3","3","retrieval","old_objects","19","MortarPestle_WhiteMarble.jpg","36","1","693"
"3","3","retrieval","old_objects","20","Backhoe.jpg","37","0","734"
"3","3","retrieval","old_objects","21","DentalProbe.jpg","36","1","652"
"3","3","retrieval","old_objects","22","Trumpet.jpg","36","1","596"
"3","3","retrieval","new_objects","23","Camera_Antique.jpg","36","0","737"
"3","3","retrieval","old_objects","24","Drum_Ramadan.jpg","37","0","731"
"3","3","retrieval","new_objects","25","Hat_Explorer.jpg","37","1","699"
"3","3","retrieval","old_objects","26","Shoes_DutchClogs.jpg","36","1","723"
"3","3","retrieval","new_objects","27","Sign_Construction.jpg","37","1","1196"
"3","3","retrieval","new_objects","28","Spoons_MeasuringAttached.jpg","37","1","750"
"3","3","retrieval","old_objects","29","Brush_Nail.jpg","36","1","682"
"3","3","retrieval","new_objects","30","Can_Milk.jpg","37","1","658"
"3","3","retrieval","new_objects","31","Bark.jpg","37","1","684"
"3","3","retrieval","new_objects","32","Cow.jpg","37","1","712"
"3","3","retrieval","new_objects","33","Toy_WoodenPlainSingle.jpg","36","0","779"
"3","3","retrieval","old_objects","34","Exercise_Machine.jpg","36","1","740"
"3","3","retrieval","old_objects","35","Toy_BearBlackPlastic.jpg","36","1","674"
"3","3","retrieval","new_objects","36","Clarinet.jpg","36","0","702"
"3","3","retrieval","new_objects","37","Parcel.jpg","37","1","715"
"3","3","retrieval","new_objects","38","OvenElement.jpg","37","1","713"
"3","3","retrieval","old_objects","39","Stove_WithOven.jpg","37","0","800"
"3","3","retrieval","old_objects","40","Truck_Army.jpg","37","0","673"
"3","3","retrieval","new_objects","41","Microwave.jpg","37","1","826"
"3","3","retrieval","new_objects","42","TigerWhite.jpg","37","1","787"
"3","3","retrieval","new_objects","43","Sign_Taxi.jpg","37","1","887"
"3","3","retrieval","old_objects","44","Heater_ElectricPortable.jpg","36","1","636"
"3","3","retrieval","old_objects","45","Match.jpg","36","1","674"
"3","3","retrieval","new_objects","46","Shirt_Tshirt.jpg","36","0","676"
"3","3","retrieval","old_objects","47","Card_TwoSpade.jpg","36","1","714"
"3","3","retrieval","old_objects","48","RadioactiveContainer.jpg","36","1","652"
"3","3","retrieval","old_objects","49","Bus_DoubleDecker.jpg","36","1","645"
"3","3","retrieval","new_objects","50","Blueprints.jpg","37","1","843"
"3","3","retrieval","old_objects","51","Horseshoe.jpg","36","1","747"
"3","3","retrieval","old_objects","52","Statue_Head.jpg","36","1","731"
"3","3","retrieval","new_objects","53","Mixer_Hand.jpg","37","1","757"
"3","3","retrieval","new_objects","54","Skirt_Stripes.jpg","36","0","680"
"3","3","retrieval","old_objects","55","Harp.jpg","36","1","686"
"3","3","retrieval","old_objects","56","Toy_StackingRing.jpg","36","1","592"
"3","3","retrieval","new_objects","57","Outhouse.jpg","36","0","729"
"3","3","retrieval","old_objects","58","PersonWooden.jpg","36","1","649"
"3","3","retrieval","old_objects","59","SofaAntique.jpg","36","1","641"
"3","3","retrieval","old_objects","60","Keychain_Metal.jpg","36","1","738"
"3","3","retrieval","new_objects","62","Toy_Taxi.jpg","37","1","869"
"3","3","retrieval","old_objects","63","Castle_Model.jpg","36","1","745"
"3","3","retrieval","old_objects","64","Corkboard.jpg","36","1","708"
"3","3","retrieval","new_objects","65","ElectricOutlet.jpg","37","1","707"
"3","3","retrieval","new_objects","66","Stove_Camping.jpg","37","1","776"
"3","3","retrieval","new_objects","67","PaintSprayer.jpg","37","1","870"
"3","3","retrieval","old_objects","68","Candy_Caramel.jpg","36","1","606"
"3","3","retrieval","old_objects","69","Spider.jpg","36","1","617"
"3","3","retrieval","old_objects","70","Canister_Oil.jpg","36","1","565"
"3","3","retrieval","new_objects","71","Gazebo.jpg","36","0","714"
"3","3","retrieval","old_objects","72","Bag_Gift.jpg","36","1","721"
"3","3","retrieval","old_objects","73","Cable_AudioSplitter.jpg","36","1","759"
"3","3","retrieval","old_objects","74","PhoneCase.jpg","36","1","895"
"3","3","retrieval","old_objects","75","Dress_Blue.jpg","36","1","569"
"3","3","retrieval","new_objects","76","MortarPestle_BlackStone.jpg","36","0","722"
"3","3","retrieval","new_objects","77","Notepad_WithPen.jpg","37","1","669"
"3","3","retrieval","old_objects","78","Partition.jpg","36","1","668"
"3","3","retrieval","old_objects","79","Speaker_OnStand.jpg","36","1","745"
"3","3","retrieval","new_objects","80","Box_Apples.jpg","37","1","672"
"3","3","retrieval","new_objects","81","House_Doll.jpg","36","0","740"
"3","3","retrieval","new_objects","82","Sink_Bathroom.jpg","37","1","856"
"3","3","retrieval","old_objects","83","Dog_ChowChow.jpg","36","1","702"
"3","3","retrieval","old_objects","84","Switch_Power.jpg","36","1","716"
"3","3","retrieval","new_objects","85","Toy_Christmastree.jpg","37","1","776"
"3","3","retrieval","new_objects","86","PharoahReplica.jpg","36","0","826"
"3","3","retrieval","old_objects","87","Leek.jpg","36","1","695"
"3","3","retrieval","old_objects","88","Hammer_Reflex.jpg","36","1","607"
"3","3","retrieval","new_objects","89","JuiceBox.jpg","37","1","676"
"3","3","retrieval","old_objects","90","Teabag.jpg","36","1","716"
"3","3","retrieval","old_objects","91","Toy_Chicken.jpg","36","1","626"
"3","3","retrieval","old_objects","92","DivingBoard.jpg","36","1","636"
"3","3","retrieval","new_objects","93","Sieve_SideView.jpg","37","1","858"
"3","3","retrieval","new_objects","94","CableConnecter.jpg","37","1","874"
"3","3","retrieval","new_objects","95","EnglishMuffin.jpg","37","1","842"
"3","3","retrieval","old_objects","96","Chest.jpg","36","1","630"
"3","3","retrieval","old_objects","97","ServiceBell.jpg","36","1","616"
"3","3","retrieval","new_objects","98","Briefcase_Leather.jpg","37","1","736"
"3","3","retrieval","old_objects","99","Tickets_PrintWords.jpg","36","1","646"
"3","3","retrieval","new_objects","100","BicycleSeat.jpg","36","0","891"
"3","3","retrieval","old_objects","101","Toy_Slinky.jpg","36","1","679"
"3","3","retrieval","new_objects","102","Noose.jpg","37","1","638"
"3","3","retrieval","old_objects","103","NeedlesAcupuncture.jpg","36","1","669"
"3","3","retrieval","old_objects","104","Toys_Lego.jpg","36","1","698"
"3","3","retrieval","old_objects","105","Toy_Shark.jpg","36","1","621"
"3","3","retrieval","new_objects","106","Speaker_Single.jpg","36","0","701"
"3","3","retrieval","old_objects","107","Chopsticks.jpg","36","1","665"
"3","3","retrieval","old_objects","108","Lettuce_Romaine.jpg","36","1","625"
"3","3","retrieval","new_objects","109","Cheesegrater_Box.jpg","36","0","909"
"3","3","retrieval","new_objects","110","Gameboy.jpg","37","1","628"
"3","3","retrieval","new_objects","111","Axe.jpg","37","1","646"
