"group","subject","blockcode","trialcode","trialnum","values.stimulus","response","correct","latency"
"4","4","encoding","encoding","1","Wheel_Steering.jpg","37","0","994"
"4","4","encoding","encoding","2","Outhouse.jpg","37","0","798"
"4","4","encoding","encoding","3","FlipFlop_PairBlue.jpg","37","0","788"
"4","4","encoding","encoding","4","Bowl_Sugar.jpg","37","0","587"
"4","4","encoding","encoding","5","Staples.jpg","37","0","636"
"4","4","encoding","encoding","6","Toy_WinnieThePooh.jpg","37","0","782"
"4","4","encoding","encoding","7","Stool_Camping.jpg","37","0","567"
"4","4","encoding","encoding","8","Bird_Tern.jpg","36","0","655"
"4","4","encoding","encoding","9","Lips_Real.jpg","36","0","1040"
"4","4","encoding","encoding","10","Ashtray_Cigarettes.jpg","37","0","837"
"4","4","encoding","encoding","11","Candleholder_LampShaped.jpg","37","0","964"
"4","4","encoding","encoding","12","AlcoholBar.jpg","37","0","472"
"4","4","encoding","encoding","13","Lock_Bike.jpg","37","0","506"
"4","4","encoding","encoding","14","Pot_Crock.jpg","37","0","503"
"4","4","encoding","encoding","15","Mitt_Oven.jpg","37","0","543"
"4","4","encoding","encoding","16","House_Stone.jpg","37","0","502"
"4","4","encoding","encoding","17","Helmet_Bicycle.jpg","37","0","604"
"4","4","encoding","encoding","18","ProjectorScreen.jpg","37","0","587"
"4","4","encoding","encoding","19","TreeHouse.jpg","37","0","674"
"4","4","encoding","encoding","20","BicycleBrake.jpg","37","0","576"
"4","4","encoding","encoding","21","TelescopeSpacecraft.jpg","37","0","465"
"4","4","encoding","encoding","22","Glove_Baseball.jpg","37","0","560"
"4","4","encoding","encoding","23","Slide.jpg","37","0","652"
"4","4","encoding","encoding","24","Locomotive.jpg","37","0","792"
"4","4","encoding","encoding","25","Seal_animal.jpg","36","0","729"
"4","4","encoding","encoding","26","Embosser.jpg","37","0","505"
"4","4","encoding","encoding","27","Toy_BearBrownPlushie.jpg","37","0","627"
"4","4","encoding","encoding","28","Ginger.jpg","36","0","1531"
"4","4","encoding","encoding","29","EspressoMachine.jpg","37","0","468"
"4","4","encoding","encoding","30","Suspenders.jpg","37","0","553"
"4","4","encoding","encoding","31","Cart_Janitor.jpg","37","0","441"
"4","4","encoding","encoding","32","Bottle_Baby.jpg","37","0","744"
"4","4","encoding","encoding","33","Brush_Windshield.jpg","37","0","640"
"4","4","encoding","encoding","34","Staircase_Curving.jpg","37","0","484"
"4","4","encoding","encoding","35","Boardgame_Checkers.jpg","37","0","475"
"4","4","encoding","encoding","36","Clock_Digital.jpg","37","0","545"
"4","4","encoding","encoding","37","Maraca.jpg","37","0","528"
"4","4","encoding","encoding","38","LumiereBeautyBeast.jpg","37","0","488"
"4","4","encoding","encoding","39","Clip_Binder.jpg","37","0","454"
"4","4","encoding","encoding","40","Bread_Melon.jpg","37","0","1617"
"4","4","encoding","encoding","41","Waffle.jpg","37","0","620"
"4","4","encoding","encoding","42","Mattress.jpg","37","0","735"
"4","4","encoding","encoding","43","Candy_Lozenge.jpg","37","0","704"
"4","4","encoding","encoding","44","HedgeShears.jpg","37","0","546"
"4","4","encoding","encoding","45","Bellows.jpg","37","0","614"
"4","4","encoding","encoding","46","ChessPiece_Bishop.jpg","37","0","479"
"4","4","encoding","encoding","47","Golf_Bag.jpg","37","0","577"
"4","4","encoding","encoding","48","Box_FirstAidOpen.jpg","37","0","567"
"4","4","encoding","encoding","49","PaperCutter.jpg","37","0","511"
"4","4","encoding","encoding","50","Can_Olives.jpg","37","0","1200"
"4","4","encoding","encoding","51","RiceCooker.jpg","37","0","722"
"4","4","encoding","encoding","52","Light_Fixtures.jpg","37","0","518"
"4","4","encoding","encoding","53","Briefcase_Silver.jpg","37","0","512"
"4","4","encoding","encoding","54","Film_Roll.jpg","37","0","513"
"4","4","encoding","encoding","55","Guacamole.jpg","37","0","927"
"4","4","encoding","encoding","56","Earth_Planet.jpg","36","0","1182"
"4","4","encoding","encoding","57","Drum_Bongos.jpg","37","0","515"
"4","4","encoding","encoding","58","OrangeBlood.jpg","36","0","988"
"4","4","encoding","encoding","59","Chainsaw.jpg","37","0","742"
"4","4","encoding","encoding","60","HumanSkull.jpg","36","0","1261"
"4","4","encoding","encoding","62","Abacus.jpg","37","0","837"
"4","4","encoding","encoding","63","Protractor.jpg","37","0","502"
"4","4","encoding","encoding","64","FlintIgniter.jpg","37","0","507"
"4","4","encoding","encoding","65","Monitor.jpg","37","0","860"
"4","4","encoding","encoding","66","Tetrahedron.jpg","37","0","446"
"4","4","encoding","encoding","67","Can_Milk.jpg","37","0","665"
"4","4","encoding","encoding","68","Hook_Fish.jpg","37","0","1312"
"4","4","encoding","encoding","69","BicycleWheel.jpg","37","0","496"
"4","4","encoding","encoding","70","Bolt.jpg","37","0","619"
"4","4","encoding","encoding","71","Cranberry.jpg","36","0","1025"
"4","4","encoding","encoding","72","Toy_Rooster.jpg","37","0","851"
"4","4","encoding","encoding","73","Thermostat_Digital.jpg","37","0","474"
"4","4","encoding","encoding","74","Helicopter.jpg","37","0","471"
"4","4","encoding","encoding","75","Machine_Bread.jpg","37","0","487"
"4","4","encoding","encoding","76","Tuxedo.jpg","37","0","442"
"4","4","encoding","encoding","77","Van.jpg","37","0","457"
"4","4","encoding","encoding","78","KitchenCloth.jpg","37","0","472"
"4","4","encoding","encoding","79","DogLeash.jpg","37","0","454"
"4","4","encoding","encoding","80","Bib.jpg","37","0","497"
"4","4","encoding","encoding","81","Dog_SaintBernard.jpg","36","0","625"
"4","4","encoding","encoding","82","Arch_Triomphe.jpg","37","0","472"
"4","4","encoding","encoding","83","Helmet_Motorcycle.jpg","37","0","533"
"4","4","encoding","encoding","84","Bag_Computer.jpg","37","0","448"
"4","4","encoding","encoding","85","Hat_Feather.jpg","37","0","1318"
"4","4","encoding","encoding","86","Milkshake_Strawberry.jpg","37","0","988"
"4","4","encoding","encoding","87","BumperCar.jpg","37","0","455"
"4","4","encoding","encoding","88","ShakerShekere.jpg","37","0","1681"
"4","4","encoding","encoding","89","Fence_ChainLink.jpg","37","0","489"
"4","4","encoding","encoding","90","Shoe_Men.jpg","37","0","448"
"4","4","encoding","encoding","91","Backpack_Suitcase.jpg","37","0","477"
"4","4","encoding","encoding","92","Knee.jpg","36","0","704"
"4","4","encoding","encoding","93","Makeup_Compact.jpg","37","0","604"
"4","4","encoding","encoding","94","Awning.jpg","37","0","468"
"4","4","encoding","encoding","95","Cymbals.jpg","37","0","1011"
"4","4","encoding","encoding","96","Bucket_WoodenLight.jpg","37","0","519"
"4","4","encoding","encoding","97","Toy_BearBlackPlastic.jpg","37","0","949"
"4","4","encoding","encoding","98","Candle_Blue.jpg","37","0","608"
"4","4","encoding","encoding","99","Sushi.jpg","37","0","934"
"4","4","encoding","encoding","100","Grenade.jpg","37","0","551"
"4","4","encoding","encoding","101","Mug_Ceramic.jpg","37","0","589"
"4","4","encoding","encoding","102","Autocreeper.jpg","37","0","580"
"4","4","encoding","encoding","103","LintRemover.jpg","37","0","553"
"4","4","encoding","encoding","104","Cup_sippy.jpg","37","0","573"
"4","4","encoding","encoding","105","Stove_Portable.jpg","37","0","469"
"4","4","encoding","encoding","106","Toad.jpg","36","0","578"
"4","4","encoding","encoding","107","ToothBrush.jpg","37","0","546"
"4","4","encoding","encoding","108","Gun_Nerf.jpg","37","0","525"
"4","4","encoding","encoding","109","Rope_Manila.jpg","37","0","427"
"4","4","encoding","encoding","110","ReindeerHeadband.jpg","37","0","467"
"4","4","encoding","encoding","111","Tricycle.jpg","37","0","537"
"4","4","encoding","encoding","112","IceCreamCone.jpg","37","0","836"
"4","4","encoding","encoding","113","Milkshake_Chocolate.jpg","37","0","564"
"4","4","encoding","encoding","114","EyeDrops.jpg","37","0","979"
"4","4","encoding","encoding","115","Drum_Set.jpg","37","0","512"
"4","4","encoding","encoding","116","BookShelf.jpg","37","0","561"
"4","4","encoding","encoding","117","Steamer.jpg","37","0","524"
"4","4","encoding","encoding","118","Snowpea.jpg","36","0","818"
"4","4","encoding","encoding","119","Button.jpg","37","0","451"
"4","4","encoding","encoding","120","Toy_LambPlushie.jpg","37","0","666"
"4","4","encoding","encoding","121","PersonWooden.jpg","37","0","819"
"4","4","encoding","encoding","123","Clothespin_Beige.jpg","37","0","779"
"4","4","encoding","encoding","124","Bag_String.jpg","37","0","561"
"4","4","encoding","encoding","125","Toy_Car.jpg","37","0","399"
"4","4","encoding","encoding","126","Table_Saw.jpg","37","0","528"
"4","4","encoding","encoding","127","Bench_Wooden.jpg","37","0","474"
"4","4","encoding","encoding","128","Origami_Ox.jpg","37","0","465"
"4","4","encoding","encoding","129","Loveseat.jpg","37","0","471"
"4","4","encoding","encoding","130","Statue_Buddha.jpg","37","0","500"
"4","4","encoding","encoding","131","LeatherPuncherTool.jpg","37","0","476"
"4","4","encoding","encoding","132","Arm.jpg","36","0","767"
"4","4","encoding","encoding","133","Noisemaker_Streamers.jpg","37","0","542"
"4","4","encoding","encoding","134","Bowl_Lemons.jpg","37","0","459"
"4","4","encoding","encoding","135","Iguana.jpg","36","0","821"
"4","4","encoding","encoding","136","Beaker.jpg","37","0","1023"
"4","4","encoding","encoding","137","Hat_Beret.jpg","37","0","970"
"4","4","encoding","encoding","138","TelephoneJack.jpg","37","0","722"
"4","4","encoding","encoding","139","Ladybug.jpg","36","0","604"
"4","4","encoding","encoding","140","Cherry.jpg","36","0","547"
"4","4","encoding","encoding","141","Desk_White.jpg","37","0","542"
"4","4","encoding","encoding","142","Barbecue_Charcoal.jpg","37","0","484"
"4","4","encoding","encoding","143","Bucket_Halloween.jpg","37","0","646"
"4","4","encoding","encoding","144","Caribou.jpg","36","0","628"
"4","4","encoding","encoding","145","Lobster.jpg","36","0","616"
"4","4","encoding","encoding","146","Playard.jpg","37","0","620"
"4","4","encoding","encoding","147","Boat_Colourful.jpg","37","0","817"
"4","4","encoding","encoding","148","AnsweringMachine.jpg","37","0","593"
"4","4","encoding","encoding","149","Chair_Office.jpg","37","0","703"
"4","4","encoding","encoding","150","BasketballHoop.jpg","37","0","498"
"4","4","encoding","encoding","151","PuppetTheatre_BlueRed.jpg","37","0","639"
"4","4","encoding","encoding","152","Mask_VenetianLongNose.jpg","37","0","601"
"4","4","encoding","encoding","153","Foam_Accoustic.jpg","37","0","594"
"4","4","encoding","encoding","154","FlipFlop_SingleRed.jpg","37","0","530"
"4","4","encoding","encoding","155","Cornucopia.jpg","37","0","1931"
"4","4","encoding","encoding","156","Glove_Rubber.jpg","37","0","662"
"4","4","encoding","encoding","157","Cracker_Saltine.jpg","37","0","1039"
"4","4","encoding","encoding","158","Birdhouse.jpg","37","0","491"
"4","4","encoding","encoding","159","PanCooking.jpg","37","0","543"
"4","4","encoding","encoding","160","ToothPick.jpg","37","0","812"
"4","4","encoding","encoding","161","Taco.jpg","37","0","657"
"4","4","encoding","encoding","162","PotatoMasher_Grate.jpg","37","0","502"
"4","4","encoding","encoding","163","Shoes_Mould.jpg","37","0","748"
"4","4","encoding","encoding","164","Toy_Chicken.jpg","37","0","567"
"4","4","encoding","encoding","165","Stamper.jpg","37","0","497"
"4","4","encoding","encoding","166","Camera_Video.jpg","37","0","563"
"4","4","encoding","encoding","167","Olives.jpg","36","0","1159"
"4","4","encoding","encoding","168","Cannister_GasVintage.jpg","37","0","511"
"4","4","encoding","encoding","169","ChocolateBar_HalfUnwrapped.jpg","37","0","1001"
"4","4","encoding","encoding","170","Cane_Wooden.jpg","37","0","732"
"4","4","encoding","encoding","171","Mixer_Hand.jpg","37","0","466"
"4","4","encoding","encoding","172","Gun_Bazooka.jpg","37","0","487"
"4","4","encoding","encoding","173","Truck_Army.jpg","37","0","448"
"4","4","encoding","encoding","174","Bugle.jpg","37","0","436"
"4","4","encoding","encoding","175","WaterGun.jpg","37","0","557"
"4","4","encoding","encoding","176","Lilypad.jpg","36","0","627"
"4","4","encoding","encoding","177","House_Rural.jpg","37","0","724"
"4","4","retrieval","old_objects","1","ToothPick.jpg","36","1","1119"
"4","4","retrieval","new_objects","2","Computer_ExpansionCard.jpg","37","1","721"
"4","4","retrieval","new_objects","3","CashRegister_Antique.jpg","37","1","1035"
"4","4","retrieval","old_objects","4","Mitt_Oven.jpg","36","1","920"
"4","4","retrieval","old_objects","5","Van.jpg","36","1","770"
"4","4","retrieval","old_objects","6","Cart_Janitor.jpg","36","1","791"
"4","4","retrieval","old_objects","7","Glove_Baseball.jpg","36","1","783"
"4","4","retrieval","new_objects","8","Can_Gas.jpg","37","1","593"
"4","4","retrieval","new_objects","9","CuttingBoard.jpg","37","1","682"
"4","4","retrieval","old_objects","10","Arch_Triomphe.jpg","36","1","623"
"4","4","retrieval","old_objects","11","Clock_Digital.jpg","36","1","604"
"4","4","retrieval","old_objects","12","Taco.jpg","36","1","530"
"4","4","retrieval","new_objects","13","Toaster_Antique.jpg","37","1","1079"
"4","4","retrieval","new_objects","14","Projector_Film.jpg","37","1","1055"
"4","4","retrieval","old_objects","15","Chair_Office.jpg","36","1","523"
"4","4","retrieval","old_objects","16","TelephoneJack.jpg","36","1","497"
"4","4","retrieval","new_objects","17","Window.jpg","37","1","517"
"4","4","retrieval","old_objects","18","Drum_Set.jpg","36","1","597"
"4","4","retrieval","new_objects","19","Door_Blue.jpg","37","1","779"
"4","4","retrieval","old_objects","20","Helmet_Motorcycle.jpg","36","1","526"
"4","4","retrieval","new_objects","21","Toy_SandRake.jpg","37","1","584"
"4","4","retrieval","new_objects","22","PaintRoller.jpg","37","1","681"
"4","4","retrieval","old_objects","23","Cannister_GasVintage.jpg","36","1","614"
"4","4","retrieval","new_objects","24","Harp.jpg","37","1","599"
"4","4","retrieval","old_objects","25","TreeHouse.jpg","36","1","546"
"4","4","retrieval","new_objects","26","USBKey.jpg","37","1","705"
"4","4","retrieval","new_objects","27","Phone_Military.jpg","37","1","719"
"4","4","retrieval","old_objects","28","Abacus.jpg","36","1","607"
"4","4","retrieval","old_objects","29","Stamper.jpg","36","1","622"
"4","4","retrieval","old_objects","30","PotatoMasher_Grate.jpg","36","1","537"
"4","4","retrieval","new_objects","31","Statue_Cat.jpg","37","1","493"
"4","4","retrieval","new_objects","32","FuseBox.jpg","37","1","598"
"4","4","retrieval","old_objects","33","Rope_Manila.jpg","36","1","700"
"4","4","retrieval","old_objects","34","Bag_String.jpg","36","1","598"
"4","4","retrieval","old_objects","35","Mug_Ceramic.jpg","36","1","574"
"4","4","retrieval","new_objects","36","Jar_Honey.jpg","37","1","560"
"4","4","retrieval","old_objects","37","Tricycle.jpg","37","0","721"
"4","4","retrieval","new_objects","38","Plate_Ceramic.jpg","37","1","673"
"4","4","retrieval","new_objects","39","Gecko.jpg","37","1","686"
"4","4","retrieval","new_objects","40","Chair_Student.jpg","37","1","852"
"4","4","retrieval","new_objects","41","DogToy.jpg","37","1","600"
"4","4","retrieval","old_objects","42","Foam_Accoustic.jpg","36","1","517"
"4","4","retrieval","new_objects","43","Makeup_Eyeshadow.jpg","37","1","610"
"4","4","retrieval","new_objects","44","MetalChain.jpg","37","1","705"
"4","4","retrieval","old_objects","45","Pot_Crock.jpg","36","1","749"
"4","4","retrieval","new_objects","46","GasStation.jpg","37","1","527"
"4","4","retrieval","old_objects","47","Bird_Tern.jpg","37","0","993"
"4","4","retrieval","new_objects","48","Tiara.jpg","37","1","510"
"4","4","retrieval","new_objects","49","Jars_PetFood.jpg","37","1","553"
"4","4","retrieval","old_objects","50","Cup_sippy.jpg","36","1","609"
"4","4","retrieval","old_objects","51","Candle_Blue.jpg","36","1","572"
"4","4","retrieval","new_objects","52","Vase_EarthToned.jpg","37","1","604"
"4","4","retrieval","old_objects","53","Seal_animal.jpg","36","1","530"
"4","4","retrieval","new_objects","54","Pliers_NeedleNose.jpg","36","0","755"
"4","4","retrieval","old_objects","55","Can_Milk.jpg","36","1","638"
"4","4","retrieval","old_objects","56","Box_FirstAidOpen.jpg","36","1","708"
"4","4","retrieval","old_objects","57","Machine_Bread.jpg","36","1","956"
"4","4","retrieval","new_objects","58","Phone_Public.jpg","37","1","585"
"4","4","retrieval","old_objects","59","Locomotive.jpg","37","0","516"
"4","4","retrieval","new_objects","60","Swan.jpg","37","1","633"
"4","4","retrieval","old_objects","62","Shoes_Mould.jpg","36","1","761"
"4","4","retrieval","new_objects","63","Stroller.jpg","37","1","576"
"4","4","retrieval","new_objects","64","OnionRed.jpg","37","1","508"
"4","4","retrieval","old_objects","65","Toy_LambPlushie.jpg","37","0","443"
"4","4","retrieval","new_objects","66","Syrup_Maple.jpg","37","1","547"
"4","4","retrieval","new_objects","67","Radio_Vintage.jpg","37","1","479"
"4","4","retrieval","old_objects","68","ChocolateBar_HalfUnwrapped.jpg","36","1","539"
"4","4","retrieval","new_objects","69","Funnel.jpg","37","1","524"
"4","4","retrieval","old_objects","70","ReindeerHeadband.jpg","36","1","557"
"4","4","retrieval","new_objects","71","Clarinet.jpg","37","1","478"
"4","4","retrieval","new_objects","72","Peach.jpg","37","1","556"
"4","4","retrieval","new_objects","73","Brace_Neck.jpg","37","1","564"
"4","4","retrieval","old_objects","74","Noisemaker_Streamers.jpg","37","0","447"
"4","4","retrieval","old_objects","75","Drum_Bongos.jpg","36","1","786"
"4","4","retrieval","new_objects","76","Shirt_SportsJersey.jpg","37","1","486"
"4","4","retrieval","old_objects","77","Guacamole.jpg","36","1","565"
"4","4","retrieval","new_objects","78","Bicycle_Kids.jpg","37","1","651"
"4","4","retrieval","new_objects","79","Broom_Long.jpg","37","1","598"
"4","4","retrieval","new_objects","80","Egg_Cup.jpg","37","1","559"
"4","4","retrieval","new_objects","81","Bag_Doctor.jpg","36","0","862"
"4","4","retrieval","old_objects","82","Awning.jpg","36","1","618"
"4","4","retrieval","old_objects","83","Backpack_Suitcase.jpg","36","1","574"
"4","4","retrieval","new_objects","84","Axe.jpg","37","1","527"
"4","4","retrieval","new_objects","85","Flower_Orchid.jpg","37","1","600"
"4","4","retrieval","old_objects","86","Staircase_Curving.jpg","36","1","677"
"4","4","retrieval","old_objects","87","Bugle.jpg","36","1","535"
"4","4","retrieval","new_objects","88","Lens_ColourFilter.jpg","37","1","514"
"4","4","retrieval","new_objects","89","Spoon_Serving.jpg","37","1","614"
"4","4","retrieval","new_objects","90","Bag_Saline.jpg","37","1","581"
"4","4","retrieval","old_objects","91","Stool_Camping.jpg","36","1","726"
"4","4","retrieval","old_objects","92","PersonWooden.jpg","36","1","605"
"4","4","retrieval","old_objects","93","Desk_White.jpg","36","1","622"
"4","4","retrieval","new_objects","94","Scorpion.jpg","37","1","759"
"4","4","retrieval","new_objects","95","Toy_SeeSaw.jpg","37","1","489"
"4","4","retrieval","old_objects","96","Bag_Computer.jpg","36","1","658"
"4","4","retrieval","old_objects","97","Brush_Windshield.jpg","36","1","678"
"4","4","retrieval","new_objects","98","LampPost_ThreeBulbs.jpg","37","1","486"
"4","4","retrieval","old_objects","99","Hat_Beret.jpg","36","1","693"
"4","4","retrieval","new_objects","100","Brush_Toilet.jpg","37","1","523"
"4","4","retrieval","old_objects","101","Golf_Bag.jpg","36","1","927"
"4","4","retrieval","new_objects","102","Keyhole.jpg","37","1","548"
"4","4","retrieval","old_objects","103","Table_Saw.jpg","37","0","489"
"4","4","retrieval","old_objects","104","Lock_Bike.jpg","36","1","1282"
"4","4","retrieval","new_objects","105","AmberWithMosquito.jpg","37","1","596"
"4","4","retrieval","old_objects","106","Autocreeper.jpg","36","1","834"
"4","4","retrieval","new_objects","107","Ostrich.jpg","37","1","556"
"4","4","retrieval","new_objects","108","Skates.jpg","37","1","651"
"4","4","retrieval","old_objects","109","EyeDrops.jpg","36","1","621"
"4","4","retrieval","old_objects","110","Can_Olives.jpg","36","1","553"
"4","4","retrieval","old_objects","111","BasketballHoop.jpg","37","0","711"
"4","4","retrieval","new_objects","112","Pot_FlowerClay.jpg","37","1","535"
"4","4","retrieval","old_objects","113","Bread_Melon.jpg","36","1","707"
"4","4","retrieval","new_objects","114","BabyMonitor.jpg","37","1","600"
"4","4","retrieval","old_objects","115","Tetrahedron.jpg","36","1","681"
"4","4","retrieval","old_objects","116","PanCooking.jpg","36","1","626"
"4","4","retrieval","new_objects","117","MeatGrinder.jpg","37","1","509"
"4","4","retrieval","old_objects","118","LintRemover.jpg","37","0","553"
"4","4","retrieval","old_objects","119","Grenade.jpg","36","1","638"
"4","4","retrieval","new_objects","120","Bird_Toucan.jpg","37","1","649"
"4","4","retrieval","new_objects","121","Decoration_WallOrnament.jpg","37","1","548"
"4","4","retrieval","old_objects","123","Bellows.jpg","37","0","448"
"4","4","retrieval","old_objects","124","Playard.jpg","37","0","488"
"4","4","retrieval","old_objects","125","AnsweringMachine.jpg","36","1","726"
"4","4","retrieval","old_objects","126","Embosser.jpg","36","1","688"
"4","4","retrieval","old_objects","127","Milkshake_Strawberry.jpg","36","1","677"
"4","4","retrieval","old_objects","128","WaterGun.jpg","37","0","459"
"4","4","retrieval","old_objects","129","Hook_Fish.jpg","37","0","723"
"4","4","retrieval","old_objects","130","Candleholder_LampShaped.jpg","36","1","622"
"4","4","retrieval","old_objects","131","Bucket_Halloween.jpg","36","1","664"
"4","4","retrieval","new_objects","132","Pancakes.jpg","37","1","615"
"4","4","retrieval","new_objects","133","RollerBlade.jpg","37","1","586"
"4","4","retrieval","new_objects","134","PropellerFan.jpg","37","1","486"
"4","4","retrieval","old_objects","135","Toy_BearBrownPlushie.jpg","36","1","582"
"4","4","retrieval","new_objects","136","EnglishMuffin.jpg","37","1","833"
"4","4","retrieval","new_objects","137","Eggplant.jpg","37","1","558"
"4","4","retrieval","new_objects","138","CarLighter.jpg","37","1","463"
"4","4","retrieval","old_objects","139","BicycleWheel.jpg","37","0","450"
"4","4","retrieval","new_objects","140","Sign_Taxi.jpg","37","1","440"
"4","4","retrieval","new_objects","141","Heater_Infrared.jpg","37","1","380"
"4","4","retrieval","new_objects","142","Chair_Dining.jpg","37","1","464"
"4","4","retrieval","new_objects","143","DormerWindow.jpg","37","1","440"
"4","4","retrieval","old_objects","144","Bowl_Sugar.jpg","36","1","700"
"4","4","retrieval","old_objects","145","OrangeBlood.jpg","36","1","524"
"4","4","retrieval","old_objects","146","Hat_Feather.jpg","36","1","637"
"4","4","retrieval","new_objects","147","Bag_Gym.jpg","37","1","640"
"4","4","retrieval","new_objects","148","Hat_Baseball.jpg","37","1","487"
"4","4","retrieval","old_objects","149","ShakerShekere.jpg","36","1","664"
"4","4","retrieval","new_objects","150","Spoons_MeasuringDetached.jpg","37","1","504"
"4","4","retrieval","old_objects","151","Bottle_Baby.jpg","36","1","1111"
"4","4","retrieval","new_objects","152","Barrel_Upright.jpg","37","1","495"
"4","4","retrieval","new_objects","153","PyramidWooden.jpg","37","1","485"
"4","4","retrieval","new_objects","154","Croissant.jpg","37","1","693"
"4","4","retrieval","new_objects","155","Sink_Bathroom.jpg","37","1","591"
"4","4","retrieval","old_objects","156","Loveseat.jpg","36","1","694"
"4","4","retrieval","old_objects","157","FlintIgniter.jpg","36","1","794"
"4","4","retrieval","old_objects","158","Bench_Wooden.jpg","37","0","509"
"4","4","retrieval","new_objects","159","Toy_ElephantPlastic.jpg","37","1","449"
"4","4","retrieval","old_objects","160","Cherry.jpg","36","1","706"
"4","4","retrieval","new_objects","161","Snorkle.jpg","37","1","534"
"4","4","retrieval","old_objects","162","Mattress.jpg","36","1","644"
"4","4","retrieval","new_objects","163","Glass_Martini.jpg","37","1","499"
"4","4","retrieval","old_objects","164","Chainsaw.jpg","36","1","734"
"4","4","retrieval","old_objects","165","Protractor.jpg","36","1","648"
"4","4","retrieval","new_objects","166","Mousetrap.jpg","37","1","507"
"4","4","retrieval","new_objects","167","Spoon_Baby.jpg","37","1","455"
"4","4","retrieval","new_objects","168","Wardrobe.jpg","37","1","536"
"4","4","retrieval","new_objects","169","Ruler_Metal.jpg","37","1","728"
"4","4","retrieval","new_objects","170","Cow.jpg","37","1","765"
"4","4","retrieval","old_objects","171","BookShelf.jpg","36","1","625"
"4","4","retrieval","old_objects","172","FlipFlop_PairBlue.jpg","36","1","764"
"4","4","retrieval","old_objects","173","AlcoholBar.jpg","36","1","585"
"4","4","retrieval","old_objects","174","Maraca.jpg","37","0","742"
"4","4","retrieval","new_objects","175","Statue_Man.jpg","37","1","548"
"4","4","retrieval","old_objects","176","Monitor.jpg","37","0","439"
"4","4","retrieval","new_objects","177","DeepFryer.jpg","37","1","487"
"4","4","retrieval","old_objects","178","Toy_WinnieThePooh.jpg","37","0","473"
"4","4","retrieval","new_objects","179","Egg_Chocolate.jpg","37","1","531"
"4","4","retrieval","new_objects","180","Leaf_Clover.jpg","37","1","774"
"4","4","retrieval","new_objects","181","Jacks.jpg","37","1","412"
"4","4","retrieval","new_objects","182","Pencil.jpg","37","1","420"
"4","4","retrieval","new_objects","184","Battery_AA.jpg","37","1","472"
"4","4","retrieval","old_objects","185","House_Stone.jpg","36","1","791"
"4","4","retrieval","new_objects","186","Cucumber.jpg","37","1","495"
"4","4","retrieval","new_objects","187","MovieSlate.jpg","37","1","428"
"4","4","retrieval","old_objects","188","Thermostat_Digital.jpg","36","1","621"
"4","4","retrieval","old_objects","189","Mask_VenetianLongNose.jpg","36","1","712"
"4","4","retrieval","old_objects","190","Suspenders.jpg","37","0","498"
"4","4","retrieval","new_objects","191","Currants.jpg","37","1","725"
"4","4","retrieval","old_objects","192","Fence_ChainLink.jpg","36","1","609"
"4","4","retrieval","new_objects","193","Cord_Ethernet.jpg","36","0","559"
"4","4","retrieval","old_objects","194","Steamer.jpg","36","1","509"
"4","4","retrieval","new_objects","195","Jug_GallonRed.jpg","37","1","886"
"4","4","retrieval","new_objects","196","Fence_Wooden.jpg","37","1","465"
"4","4","retrieval","old_objects","197","Milkshake_Chocolate.jpg","36","1","641"
"4","4","retrieval","new_objects","198","Toy_Alien.jpg","37","1","466"
"4","4","retrieval","old_objects","199","Clip_Binder.jpg","36","1","651"
"4","4","retrieval","new_objects","200","Bandage_Wrap.jpg","37","1","490"
"4","4","retrieval","old_objects","201","Shoe_Men.jpg","37","0","504"
"4","4","retrieval","new_objects","202","Milkshake_StrawberryStraw.jpg","37","1","808"
"4","4","retrieval","old_objects","203","Waffle.jpg","36","1","603"
"4","4","retrieval","new_objects","204","ClothRed.jpg","37","1","590"
"4","4","retrieval","old_objects","205","Briefcase_Silver.jpg","37","0","472"
"4","4","retrieval","new_objects","206","Blade_Tablesaw.jpg","37","1","510"
"4","4","retrieval","old_objects","207","LeatherPuncherTool.jpg","37","0","612"
"4","4","retrieval","new_objects","208","Lectern.jpg","37","1","463"
"4","4","retrieval","new_objects","209","Dynamite.jpg","37","1","473"
"4","4","retrieval","old_objects","210","Makeup_Compact.jpg","37","0","437"
"4","4","retrieval","new_objects","211","Canister_Oil.jpg","37","1","431"
"4","4","retrieval","old_objects","212","Bib.jpg","37","0","423"
"4","4","retrieval","old_objects","213","Truck_Army.jpg","36","1","661"
"4","4","retrieval","new_objects","214","Torpedo.jpg","37","1","479"
"4","4","retrieval","new_objects","215","Ball_Football.jpg","37","1","472"
"4","4","retrieval","new_objects","216","Plate_Decorative.jpg","37","1","452"
"4","4","retrieval","new_objects","217","Fork_Fondue.jpg","37","1","465"
"4","4","retrieval","new_objects","218","LetterMail.jpg","37","1","511"
"4","4","retrieval","new_objects","219","Dog_CockerSpaniel.jpg","37","1","722"
"4","4","retrieval","new_objects","220","Snowboard.jpg","37","1","571"
"4","4","retrieval","new_objects","221","Nuts_Peanuts.jpg","37","1","570"
"4","4","retrieval","new_objects","222","Pyramid.jpg","37","1","691"
"4","4","retrieval","old_objects","223","Cornucopia.jpg","36","1","681"
"4","4","retrieval","old_objects","224","Ashtray_Cigarettes.jpg","36","1","671"
"4","4","retrieval","old_objects","225","Gun_Nerf.jpg","37","0","726"
"4","4","retrieval","old_objects","226","Earth_Planet.jpg","36","1","671"
"4","4","retrieval","old_objects","227","Toad.jpg","36","1","543"
"4","4","retrieval","new_objects","228","Tape_Dispenser.jpg","37","1","511"
"4","4","retrieval","new_objects","229","Kiwi.jpg","37","1","497"
"4","4","retrieval","old_objects","230","Bolt.jpg","37","0","429"
"4","4","retrieval","new_objects","231","IceCubes.jpg","37","1","478"
"4","4","retrieval","new_objects","232","Cheesegrater_Handheld.jpg","37","1","449"
"4","4","retrieval","old_objects","233","House_Rural.jpg","37","0","876"
"4","4","retrieval","old_objects","234","ToothBrush.jpg","36","1","703"
"4","4","retrieval","new_objects","235","Chair_MedicalToilet.jpg","37","1","505"
"4","4","retrieval","new_objects","236","Hat_Visor.jpg","37","1","571"
"4","4","retrieval","new_objects","237","Toaster_MetalSleek.jpg","37","1","588"
"4","4","retrieval","old_objects","238","Lips_Real.jpg","36","1","606"
"4","4","retrieval","new_objects","239","BicycleReflector.jpg","37","1","499"
"4","4","retrieval","new_objects","240","Seahorse.jpg","37","1","552"
"4","4","retrieval","new_objects","241","Swing_Child.jpg","37","1","405"
"4","4","retrieval","new_objects","242","BearPolar.jpg","37","1","519"
"4","4","retrieval","new_objects","243","Hook_Fishing.jpg","37","1","502"
"4","4","retrieval","old_objects","245","Caribou.jpg","36","1","640"
"4","4","retrieval","new_objects","246","OperaGlasses.jpg","37","1","481"
"4","4","retrieval","old_objects","247","Sushi.jpg","36","1","652"
"4","4","retrieval","old_objects","248","Slide.jpg","37","0","428"
"4","4","retrieval","old_objects","249","ProjectorScreen.jpg","37","0","395"
"4","4","retrieval","new_objects","250","IceCubes copy.jpg","37","1","395"
"4","4","retrieval","old_objects","251","Clothespin_Beige.jpg","37","0","427"
"4","4","retrieval","old_objects","252","Helmet_Bicycle.jpg","37","0","535"
"4","4","retrieval","new_objects","253","Chairs_Stacked.jpg","37","1","444"
"4","4","retrieval","new_objects","254","Light_Halogen.jpg","37","1","425"
"4","4","retrieval","new_objects","255","Table_Poker.jpg","37","1","415"
"4","4","retrieval","old_objects","256","Ladybug.jpg","36","1","973"
"4","4","retrieval","old_objects","257","Gun_Bazooka.jpg","37","0","452"
"4","4","retrieval","new_objects","258","Tire_Hollow.jpg","37","1","478"
"4","4","retrieval","old_objects","259","Tuxedo.jpg","36","1","742"
"4","4","retrieval","new_objects","260","Glass_Bowl.jpg","37","1","445"
"4","4","retrieval","new_objects","261","Frame_Oval.jpg","37","1","471"
"4","4","retrieval","new_objects","262","Machine_EKG.jpg","37","1","463"
"4","4","retrieval","old_objects","263","Toy_Car.jpg","36","1","661"
"4","4","retrieval","old_objects","264","RiceCooker.jpg","36","1","1026"
"4","4","retrieval","old_objects","265","Lobster.jpg","36","1","567"
"4","4","retrieval","new_objects","266","Cage_Bird.jpg","37","1","517"
"4","4","retrieval","old_objects","267","Cracker_Saltine.jpg","36","1","610"
"4","4","retrieval","old_objects","268","ChessPiece_Bishop.jpg","37","0","473"
"4","4","retrieval","new_objects","269","IceCream_Chocolate.jpg","37","1","689"
"4","4","retrieval","new_objects","270","Exercise_Stepper.jpg","37","1","537"
"4","4","retrieval","old_objects","271","TelescopeSpacecraft.jpg","37","0","537"
"4","4","retrieval","old_objects","272","Toy_BearBlackPlastic.jpg","36","1","903"
"4","4","retrieval","new_objects","273","Can_GasSpout.jpg","37","1","597"
"4","4","retrieval","old_objects","274","Boat_Colourful.jpg","36","1","753"
"4","4","retrieval","new_objects","275","Can_Oblong.jpg","37","1","509"
"4","4","retrieval","old_objects","276","Ginger.jpg","36","1","671"
"4","4","retrieval","old_objects","277","IceCreamCone.jpg","36","1","612"
"4","4","retrieval","new_objects","278","Pillow_Heart.jpg","37","1","482"
"4","4","retrieval","old_objects","279","Bucket_WoodenLight.jpg","36","1","632"
"4","4","retrieval","new_objects","280","TubeRing.jpg","37","1","461"
"4","4","retrieval","old_objects","281","Film_Roll.jpg","37","0","503"
"4","4","retrieval","new_objects","282","AllTerrain.jpg","37","1","802"
"4","4","retrieval","new_objects","283","JukeboxAntique.jpg","37","1","553"
"4","4","retrieval","old_objects","284","Dog_SaintBernard.jpg","36","1","839"
"4","4","retrieval","new_objects","285","Toy_Stroller.jpg","37","1","444"
"4","4","retrieval","new_objects","286","Hose_Garden.jpg","37","1","632"
"4","4","retrieval","new_objects","287","Lipstick.jpg","37","1","515"
"4","4","retrieval","new_objects","288","DivingBoard.jpg","37","1","504"
"4","4","retrieval","new_objects","289","DVDPlayer.jpg","37","1","465"
"4","4","retrieval","new_objects","290","BicycleSeat.jpg","37","1","797"
"4","4","retrieval","old_objects","291","BumperCar.jpg","37","0","506"
"4","4","retrieval","new_objects","292","Light_Studio.jpg","37","1","557"
"4","4","retrieval","old_objects","293","Wheel_Steering.jpg","37","0","565"
"4","4","retrieval","old_objects","294","Bowl_Lemons.jpg","36","1","598"
"4","4","retrieval","new_objects","295","Table_Side.jpg","37","1","469"
"4","4","retrieval","old_objects","296","Snowpea.jpg","36","1","550"
"4","4","retrieval","new_objects","297","CinderBlock.jpg","37","1","461"
"4","4","retrieval","new_objects","298","SnowGlobe.jpg","37","1","482"
"4","4","retrieval","old_objects","299","Beaker.jpg","36","1","711"
"4","4","retrieval","old_objects","300","PaperCutter.jpg","37","0","418"
"4","4","retrieval","new_objects","301","Stool_Metal.jpg","37","1","538"
"4","4","retrieval","old_objects","302","Knee.jpg","36","1","677"
"4","4","retrieval","old_objects","303","Button.jpg","37","0","415"
"4","4","retrieval","old_objects","304","Light_Fixtures.jpg","37","0","664"
"4","4","retrieval","old_objects","306","Boardgame_Checkers.jpg","36","1","828"
"4","4","retrieval","old_objects","307","Cane_Wooden.jpg","36","1","717"
"4","4","retrieval","old_objects","308","Outhouse.jpg","37","0","526"
"4","4","retrieval","old_objects","309","Helicopter.jpg","36","1","681"
"4","4","retrieval","old_objects","310","Stove_Portable.jpg","37","0","552"
"4","4","retrieval","old_objects","311","Cranberry.jpg","36","1","554"
"4","4","retrieval","old_objects","312","Toy_Chicken.jpg","37","0","464"
"4","4","retrieval","new_objects","313","Tree_Fir.jpg","37","1","488"
"4","4","retrieval","old_objects","314","Lilypad.jpg","36","1","584"
"4","4","retrieval","old_objects","315","KitchenCloth.jpg","36","1","609"
"4","4","retrieval","new_objects","316","Hat_Party.jpg","37","1","481"
"4","4","retrieval","new_objects","317","Hotdog_Weiner.jpg","37","1","482"
"4","4","retrieval","old_objects","318","EspressoMachine.jpg","37","0","486"
"4","4","retrieval","old_objects","319","Origami_Ox.jpg","36","1","724"
"4","4","retrieval","old_objects","320","Mixer_Hand.jpg","37","0","728"
"4","4","retrieval","old_objects","321","Toy_Rooster.jpg","36","1","594"
"4","4","retrieval","old_objects","322","Staples.jpg","37","0","510"
"4","4","retrieval","new_objects","323","ElectricOutlet.jpg","37","1","686"
"4","4","retrieval","old_objects","324","Iguana.jpg","36","1","789"
"4","4","retrieval","new_objects","325","BicycleHandleGrip.jpg","37","1","493"
"4","4","retrieval","new_objects","326","Garlic_Clove.jpg","37","1","515"
"4","4","retrieval","new_objects","327","ColoringSet.jpg","37","1","538"
"4","4","retrieval","old_objects","328","Camera_Video.jpg","37","0","504"
"4","4","retrieval","old_objects","329","Glove_Rubber.jpg","36","1","713"
"4","4","retrieval","old_objects","330","Arm.jpg","36","1","795"
"4","4","retrieval","old_objects","331","BicycleBrake.jpg","37","0","583"
"4","4","retrieval","new_objects","332","Nuts_PeanutsPeeled.jpg","37","1","636"
"4","4","retrieval","new_objects","333","Pipe_Drain.jpg","37","1","497"
"4","4","retrieval","new_objects","334","Toy_Moose.jpg","37","1","657"
"4","4","retrieval","old_objects","335","Statue_Buddha.jpg","36","1","744"
"4","4","retrieval","old_objects","336","DogLeash.jpg","36","1","596"
"4","4","retrieval","new_objects","337","Ruler_Triangle.jpg","37","1","488"
"4","4","retrieval","old_objects","338","Candy_Lozenge.jpg","36","1","685"
"4","4","retrieval","old_objects","339","Cymbals.jpg","37","0","484"
"4","4","retrieval","new_objects","340","Hook_Ceiling.jpg","37","1","692"
"4","4","retrieval","old_objects","341","PuppetTheatre_BlueRed.jpg","36","1","650"
"4","4","retrieval","new_objects","342","Fruit_Cactus.jpg","37","1","514"
"4","4","retrieval","old_objects","343","FlipFlop_SingleRed.jpg","37","0","559"
"4","4","retrieval","new_objects","344","Potato.jpg","37","1","695"
"4","4","retrieval","old_objects","345","LumiereBeautyBeast.jpg","37","0","472"
"4","4","retrieval","old_objects","346","Olives.jpg","36","1","594"
"4","4","retrieval","old_objects","347","Barbecue_Charcoal.jpg","37","0","549"
"4","4","retrieval","new_objects","348","Boat_Row.jpg","37","1","481"
"4","4","retrieval","old_objects","349","HumanSkull.jpg","36","1","669"
"4","4","retrieval","new_objects","350","Keg.jpg","37","1","535"
"4","4","retrieval","new_objects","351","Corn_Kernels.jpg","37","1","470"
"4","4","retrieval","new_objects","352","CartonEggs.jpg","37","1","507"
"4","4","retrieval","old_objects","353","HedgeShears.jpg","37","0","825"
"4","4","retrieval","new_objects","354","Shield_Antique.jpg","37","1","492"
"4","4","retrieval","old_objects","355","Birdhouse.jpg","36","1","625"
"4","4","demographics_block","gender","1","Birdhouse.jpg","female","1","7411"
"4","4","demographics_block","age","1","Birdhouse.jpg","27","1","7411"
"4","4","demographics_block","education","1","Birdhouse.jpg","16","1","7411"
"4","4","demographics_block","left_right_handed","2","Birdhouse.jpg","Right","1","5996"
"4","4","demographics_block","raceoption1","2","Birdhouse.jpg","0","1","5996"
"4","4","demographics_block","raceoption2","2","Birdhouse.jpg","","1","5996"
"4","4","demographics_block","raceoption3","2","Birdhouse.jpg","","1","5996"
"4","4","demographics_block","raceoption4","2","Birdhouse.jpg","","1","5996"
"4","4","demographics_block","raceoption5","2","Birdhouse.jpg","","1","5996"
"4","4","demographics_block","raceoption6","2","Birdhouse.jpg","","1","5996"
"4","4","demographics_block","raceoption7","2","Birdhouse.jpg","","1","5996"
"4","4","demographics_block","raceoption8","2","Birdhouse.jpg","","1","5996"
"4","4","demographics_block","raceoption9","2","Birdhouse.jpg","","1","5996"
"4","4","demographics_block","raceother","2","Birdhouse.jpg","","1","5996"
"4","4","demographics_block","raceother","2","Birdhouse.jpg","","1","5996"
"4","4","demographics_block","english_language","2","Birdhouse.jpg","Yes","1","5996"
"4","4","demographics_block","english_languageother","2","Birdhouse.jpg","","1","5996"
"4","4","demographics_block","eyesight","3","Birdhouse.jpg","Yes","1","3663"
"4","4","demographics_block","colorblind","3","Birdhouse.jpg","No","1","3663"
"4","4","worker_id_block","worker_id_textbox","1","Birdhouse.jpg","A1OBB3PWYWK9KK","1","3468"
"3","3","encoding","encoding","1","Toad.jpg","36","0","801"
"3","3","encoding","encoding","2","Cane_Wooden.jpg","37","0","1447"
"3","3","encoding","encoding","3","Slide.jpg","37","0","993"
"3","3","encoding","encoding","4","BicycleBrake.jpg","37","0","924"
"3","3","encoding","encoding","5","Cherry.jpg","36","0","928"
"3","3","encoding","encoding","6","Origami_Ox.jpg","37","0","1565"
"3","3","encoding","encoding","7","Stove_Portable.jpg","37","0","818"
"3","3","encoding","encoding","8","HumanSkull.jpg","36","0","1293"
"3","3","encoding","encoding","9","Drum_Bongos.jpg","37","0","912"
"3","3","encoding","encoding","10","Drum_Set.jpg","37","0","733"
"3","3","encoding","encoding","11","Ginger.jpg","36","0","1170"
"3","3","encoding","encoding","12","TelephoneJack.jpg","37","0","728"
"3","3","encoding","encoding","13","Guacamole.jpg","37","0","1958"
"3","3","encoding","encoding","14","ToothPick.jpg","37","0","1248"
"3","3","encoding","encoding","15","Makeup_Compact.jpg","37","0","666"
"3","3","encoding","encoding","16","Barbecue_Charcoal.jpg","37","0","926"
"3","3","encoding","encoding","17","Wheel_Steering.jpg","37","0","655"
"3","3","encoding","encoding","18","Clock_Digital.jpg","37","0","695"
"3","3","encoding","encoding","19","Shoes_Mould.jpg","37","0","1065"
"3","3","encoding","encoding","20","BasketballHoop.jpg","37","0","666"
"3","3","encoding","encoding","21","Briefcase_Silver.jpg","37","0","634"
"3","3","encoding","encoding","22","Toy_BearBrownPlushie.jpg","37","0","674"
"3","3","encoding","encoding","23","LintRemover.jpg","37","0","605"
"3","3","encoding","encoding","24","Can_Olives.jpg","0","0","2000"
"3","3","encoding","encoding","25","Toy_WinnieThePooh.jpg","37","0","941"
"3","3","encoding","encoding","26","Knee.jpg","36","0","927"
"3","3","encoding","encoding","27","Outhouse.jpg","37","0","894"
"3","3","encoding","encoding","28","TreeHouse.jpg","37","0","1753"
"3","3","encoding","encoding","29","Sushi.jpg","36","0","1976"
"3","3","encoding","encoding","30","Toy_Car.jpg","37","0","936"
"3","3","encoding","encoding","31","Golf_Bag.jpg","37","0","812"
"3","3","encoding","encoding","32","Camera_Video.jpg","37","0","798"
"3","3","encoding","encoding","33","Table_Saw.jpg","37","0","728"
"3","3","encoding","encoding","34","FlintIgniter.jpg","37","0","897"
"3","3","encoding","encoding","35","Bread_Melon.jpg","37","0","1175"
"3","3","encoding","encoding","36","Chair_Office.jpg","37","0","594"
"3","3","encoding","encoding","37","Cannister_GasVintage.jpg","37","0","579"
"3","3","encoding","encoding","38","IceCreamCone.jpg","37","0","1498"
"3","3","encoding","encoding","39","EspressoMachine.jpg","37","0","733"
"3","3","encoding","encoding","40","Candy_Lozenge.jpg","37","0","810"
"3","3","encoding","encoding","41","Truck_Army.jpg","37","0","685"
"3","3","encoding","encoding","42","Waffle.jpg","37","0","872"
"3","3","encoding","encoding","43","TelescopeSpacecraft.jpg","37","0","602"
"3","3","encoding","encoding","44","PersonWooden.jpg","37","0","660"
"3","3","encoding","encoding","45","Snowpea.jpg","36","0","792"
"3","3","encoding","encoding","46","Gun_Nerf.jpg","37","0","540"
"3","3","encoding","encoding","47","Mitt_Oven.jpg","37","0","745"
"3","3","encoding","encoding","48","Suspenders.jpg","37","0","707"
"3","3","encoding","encoding","49","Toy_Rooster.jpg","37","0","656"
"3","3","encoding","encoding","50","Film_Roll.jpg","37","0","862"
"3","3","encoding","encoding","51","FlipFlop_SingleRed.jpg","37","0","591"
"3","3","encoding","encoding","52","KitchenCloth.jpg","37","0","650"
"3","3","encoding","encoding","53","PanCooking.jpg","37","0","654"
"3","3","encoding","encoding","54","Mixer_Hand.jpg","37","0","493"
"3","3","encoding","encoding","55","Clothespin_Beige.jpg","37","0","606"
"3","3","encoding","encoding","56","PuppetTheatre_BlueRed.jpg","37","0","642"
"3","3","encoding","encoding","57","Ladybug.jpg","36","0","810"
"3","3","encoding","encoding","58","Statue_Buddha.jpg","37","0","558"
"3","3","encoding","encoding","59","Stool_Camping.jpg","37","0","635"
"3","3","encoding","encoding","60","Bowl_Lemons.jpg","36","0","1133"
"3","3","encoding","encoding","62","Playard.jpg","37","0","743"
"3","3","encoding","encoding","63","Fence_ChainLink.jpg","37","0","655"
"3","3","encoding","encoding","64","Bucket_Halloween.jpg","37","0","695"
"3","3","encoding","encoding","65","Arch_Triomphe.jpg","37","0","809"
"3","3","encoding","encoding","66","Helicopter.jpg","37","0","575"
"3","3","encoding","encoding","67","Mattress.jpg","37","0","579"
"3","3","encoding","encoding","68","Boardgame_Checkers.jpg","37","0","583"
"3","3","encoding","encoding","69","Bird_Tern.jpg","36","0","696"
"3","3","encoding","encoding","70","Bellows.jpg","37","0","645"
"3","3","encoding","encoding","71","Birdhouse.jpg","37","0","704"
"3","3","encoding","encoding","72","Maraca.jpg","37","0","561"
"3","3","encoding","encoding","73","Bench_Wooden.jpg","37","0","858"
"3","3","encoding","encoding","74","BumperCar.jpg","37","0","642"
"3","3","encoding","encoding","75","Embosser.jpg","37","0","572"
"3","3","encoding","encoding","76","Awning.jpg","37","0","576"
"3","3","encoding","encoding","77","Staples.jpg","37","0","762"
"3","3","encoding","encoding","78","Button.jpg","37","0","565"
"3","3","encoding","encoding","79","Helmet_Motorcycle.jpg","37","0","550"
"3","3","encoding","encoding","80","Noisemaker_Streamers.jpg","37","0","591"
"3","3","encoding","encoding","81","Lilypad.jpg","36","0","704"
"3","3","encoding","encoding","82","Locomotive.jpg","37","0","507"
"3","3","encoding","encoding","83","Cornucopia.jpg","36","0","1353"
"3","3","encoding","encoding","84","Mask_VenetianLongNose.jpg","37","0","643"
"3","3","encoding","encoding","85","Shoe_Men.jpg","37","0","537"
"3","3","encoding","encoding","86","ChocolateBar_HalfUnwrapped.jpg","37","0","1035"
"3","3","encoding","encoding","87","Bag_String.jpg","37","0","599"
"3","3","encoding","encoding","88","ReindeerHeadband.jpg","37","0","658"
"3","3","encoding","encoding","89","Glove_Baseball.jpg","37","0","638"
"3","3","encoding","encoding","90","Cart_Janitor.jpg","37","0","495"
"3","3","encoding","encoding","91","Beaker.jpg","37","0","664"
"3","3","encoding","encoding","92","Helmet_Bicycle.jpg","37","0","503"
"3","3","encoding","encoding","93","Can_Milk.jpg","37","0","763"
"3","3","encoding","encoding","94","Gun_Bazooka.jpg","37","0","566"
"3","3","encoding","encoding","95","Tricycle.jpg","37","0","765"
"3","3","encoding","encoding","96","Bag_Computer.jpg","37","0","513"
"3","3","encoding","encoding","97","AlcoholBar.jpg","37","0","626"
"3","3","encoding","encoding","98","Hat_Feather.jpg","37","0","539"
"3","3","encoding","encoding","99","House_Stone.jpg","37","0","1275"
"3","3","encoding","encoding","100","Cracker_Saltine.jpg","37","0","912"
"3","3","encoding","encoding","101","PotatoMasher_Grate.jpg","37","0","605"
"3","3","encoding","encoding","102","ChessPiece_Bishop.jpg","37","0","609"
"3","3","encoding","encoding","103","OrangeBlood.jpg","36","0","667"
"3","3","encoding","encoding","104","Autocreeper.jpg","37","0","635"
"3","3","encoding","encoding","105","Lock_Bike.jpg","37","0","694"
"3","3","encoding","encoding","106","Desk_White.jpg","37","0","619"
"3","3","encoding","encoding","107","Bugle.jpg","37","0","623"
"3","3","encoding","encoding","108","Cup_sippy.jpg","37","0","554"
"3","3","encoding","encoding","109","Dog_SaintBernard.jpg","36","0","887"
"3","3","encoding","encoding","110","RiceCooker.jpg","37","0","671"
"3","3","encoding","encoding","111","ShakerShekere.jpg","37","0","1572"
"3","3","encoding","encoding","112","Earth_Planet.jpg","36","0","935"
"3","3","encoding","encoding","113","Protractor.jpg","37","0","701"
"3","3","encoding","encoding","114","Light_Fixtures.jpg","37","0","796"
"3","3","encoding","encoding","115","Pot_Crock.jpg","37","0","653"
"3","3","encoding","encoding","116","LeatherPuncherTool.jpg","37","0","547"
"3","3","encoding","encoding","117","AnsweringMachine.jpg","37","0","551"
"3","3","encoding","encoding","118","Iguana.jpg","36","0","683"
"3","3","encoding","encoding","119","BookShelf.jpg","37","0","504"
"3","3","encoding","encoding","120","Lobster.jpg","36","0","746"
"3","3","encoding","encoding","121","Mug_Ceramic.jpg","37","0","598"
"3","3","encoding","encoding","123","Boat_Colourful.jpg","37","0","1255"
"3","3","encoding","encoding","124","Thermostat_Digital.jpg","37","0","564"
"3","3","encoding","encoding","125","Hook_Fish.jpg","37","0","732"
"3","3","encoding","encoding","126","LumiereBeautyBeast.jpg","37","0","700"
"3","3","encoding","encoding","127","Van.jpg","37","0","612"
"3","3","encoding","encoding","128","Clip_Binder.jpg","37","0","597"
"3","3","encoding","encoding","129","Chainsaw.jpg","37","0","638"
"3","3","encoding","encoding","130","Bucket_WoodenLight.jpg","37","0","715"
"3","3","encoding","encoding","131","PaperCutter.jpg","37","0","591"
"3","3","encoding","encoding","132","DogLeash.jpg","37","0","595"
"3","3","encoding","encoding","133","EyeDrops.jpg","37","0","690"
"3","3","encoding","encoding","134","Glove_Rubber.jpg","37","0","639"
"3","3","encoding","encoding","135","HedgeShears.jpg","37","0","551"
"3","3","encoding","encoding","136","Monitor.jpg","37","0","519"
"3","3","encoding","encoding","137","Bolt.jpg","37","0","705"
"3","3","encoding","encoding","138","House_Rural.jpg","37","0","654"
"3","3","encoding","encoding","139","Olives.jpg","36","0","677"
"3","3","encoding","encoding","140","Toy_Chicken.jpg","37","0","644"
"3","3","encoding","encoding","141","Milkshake_Strawberry.jpg","37","0","1215"
"3","3","encoding","encoding","142","Lips_Real.jpg","36","0","1127"
"3","3","encoding","encoding","143","Hat_Beret.jpg","0","0","2000"
"3","3","encoding","encoding","144","Tetrahedron.jpg","37","0","878"
"3","3","encoding","encoding","145","Brush_Windshield.jpg","37","0","608"
"3","3","encoding","encoding","146","Foam_Accoustic.jpg","37","0","611"
"3","3","encoding","encoding","147","Milkshake_Chocolate.jpg","37","0","817"
"3","3","encoding","encoding","148","FlipFlop_PairBlue.jpg","37","0","673"
"3","3","encoding","encoding","149","Backpack_Suitcase.jpg","37","0","714"
"3","3","encoding","encoding","150","Tuxedo.jpg","37","0","627"
"3","3","encoding","encoding","151","Rope_Manila.jpg","37","0","814"
"3","3","encoding","encoding","152","Bottle_Baby.jpg","37","0","836"
"3","3","encoding","encoding","153","Loveseat.jpg","37","0","693"
"3","3","encoding","encoding","154","Toy_BearBlackPlastic.jpg","37","0","843"
"3","3","encoding","encoding","155","Cranberry.jpg","36","0","787"
"3","3","encoding","encoding","156","Ashtray_Cigarettes.jpg","37","0","645"
"3","3","encoding","encoding","157","Arm.jpg","36","0","722"
"3","3","encoding","encoding","158","Candleholder_LampShaped.jpg","37","0","524"
"3","3","encoding","encoding","159","WaterGun.jpg","37","0","583"
"3","3","encoding","encoding","160","Taco.jpg","37","0","1081"
"3","3","encoding","encoding","161","ProjectorScreen.jpg","37","0","829"
"3","3","encoding","encoding","162","Candle_Blue.jpg","37","0","613"
"3","3","encoding","encoding","163","Caribou.jpg","36","0","635"
"3","3","encoding","encoding","164","Staircase_Curving.jpg","37","0","565"
"3","3","encoding","encoding","165","Grenade.jpg","37","0","807"
"3","3","encoding","encoding","166","Cymbals.jpg","37","0","884"
"3","3","encoding","encoding","167","ToothBrush.jpg","37","0","779"
"3","3","encoding","encoding","168","Seal_animal.jpg","36","0","942"
"3","3","encoding","encoding","169","Bib.jpg","37","0","1110"
"3","3","encoding","encoding","170","Steamer.jpg","37","0","675"
"3","3","encoding","encoding","171","Abacus.jpg","37","0","880"
"3","3","encoding","encoding","172","Machine_Bread.jpg","37","0","609"
"3","3","encoding","encoding","173","Bowl_Sugar.jpg","37","0","943"
"3","3","encoding","encoding","174","Toy_LambPlushie.jpg","37","0","654"
"3","3","encoding","encoding","175","Stamper.jpg","37","0","658"
"3","3","encoding","encoding","176","BicycleWheel.jpg","37","0","625"
"3","3","encoding","encoding","177","Box_FirstAidOpen.jpg","37","0","647"
"3","3","retrieval","old_objects","1","Shoe_Men.jpg","36","1","1149"
"3","3","retrieval","old_objects","2","Autocreeper.jpg","36","1","881"
"3","3","retrieval","new_objects","3","Spoons_MeasuringDetached.jpg","37","1","886"
"3","3","retrieval","old_objects","4","Sushi.jpg","36","1","819"
"3","3","retrieval","old_objects","5","Rope_Manila.jpg","37","0","689"
"3","3","retrieval","old_objects","6","Tricycle.jpg","36","1","950"
"3","3","retrieval","old_objects","7","Noisemaker_Streamers.jpg","36","1","815"
"3","3","retrieval","new_objects","8","IceCubes.jpg","37","1","843"
"3","3","retrieval","new_objects","9","Dog_CockerSpaniel.jpg","36","0","863"
"3","3","retrieval","old_objects","10","Stool_Camping.jpg","37","0","776"
"3","3","retrieval","new_objects","11","RollerBlade.jpg","36","0","844"
"3","3","retrieval","new_objects","12","Hat_Party.jpg","37","1","1121"
"3","3","retrieval","new_objects","13","Toy_SandRake.jpg","37","1","1040"
"3","3","retrieval","new_objects","14","Jars_PetFood.jpg","37","1","767"
"3","3","retrieval","old_objects","15","Staircase_Curving.jpg","36","1","1072"
"3","3","retrieval","old_objects","16","ToothPick.jpg","36","1","1077"
"3","3","retrieval","old_objects","17","House_Stone.jpg","36","1","1192"
"3","3","retrieval","new_objects","18","Decoration_WallOrnament.jpg","37","1","876"
"3","3","retrieval","old_objects","19","WaterGun.jpg","36","1","1177"
"3","3","retrieval","new_objects","20","PaintRoller.jpg","37","1","864"
"3","3","retrieval","old_objects","21","Briefcase_Silver.jpg","36","1","959"
"3","3","retrieval","new_objects","22","Table_Poker.jpg","37","1","918"
"3","3","retrieval","new_objects","23","Pot_FlowerClay.jpg","37","1","780"
"3","3","retrieval","old_objects","24","Bench_Wooden.jpg","36","1","878"
"3","3","retrieval","new_objects","25","Harp.jpg","37","1","829"
"3","3","retrieval","old_objects","26","TelephoneJack.jpg","36","1","939"
"3","3","retrieval","old_objects","27","Awning.jpg","37","0","730"
"3","3","retrieval","new_objects","28","Cucumber.jpg","37","1","1068"
"3","3","retrieval","new_objects","29","Pancakes.jpg","36","0","762"
"3","3","retrieval","old_objects","30","PanCooking.jpg","36","1","976"
"3","3","retrieval","new_objects","31","CuttingBoard.jpg","37","1","1044"
"3","3","retrieval","new_objects","32","Cow.jpg","37","1","1042"
"3","3","retrieval","old_objects","33","Stove_Portable.jpg","36","1","877"
"3","3","retrieval","new_objects","34","Exercise_Stepper.jpg","37","1","921"
"3","3","retrieval","new_objects","35","Bicycle_Kids.jpg","37","1","820"
"3","3","retrieval","new_objects","36","Swing_Child.jpg","37","1","727"
"3","3","retrieval","old_objects","37","Abacus.jpg","36","1","716"
"3","3","retrieval","old_objects","38","Boardgame_Checkers.jpg","36","1","679"
"3","3","retrieval","new_objects","39","GasStation.jpg","37","1","665"
"3","3","retrieval","old_objects","40","LumiereBeautyBeast.jpg","36","1","704"
"3","3","retrieval","new_objects","41","Door_Blue.jpg","37","1","820"
"3","3","retrieval","old_objects","42","Bugle.jpg","37","0","873"
"3","3","retrieval","old_objects","43","PuppetTheatre_BlueRed.jpg","36","1","804"
"3","3","retrieval","old_objects","44","Earth_Planet.jpg","36","1","721"
"3","3","retrieval","old_objects","45","Boat_Colourful.jpg","36","1","801"
"3","3","retrieval","new_objects","46","Phone_Military.jpg","37","1","707"
"3","3","retrieval","new_objects","47","Swan.jpg","37","1","780"
"3","3","retrieval","new_objects","48","Heater_Infrared.jpg","37","1","959"
"3","3","retrieval","new_objects","49","PyramidWooden.jpg","37","1","788"
"3","3","retrieval","new_objects","50","CarLighter.jpg","37","1","856"
"3","3","retrieval","new_objects","51","Broom_Long.jpg","37","1","821"
"3","3","retrieval","old_objects","52","FlipFlop_SingleRed.jpg","36","1","747"
"3","3","retrieval","new_objects","53","Plate_Decorative.jpg","37","1","667"
"3","3","retrieval","old_objects","54","Gun_Nerf.jpg","36","1","1017"
"3","3","retrieval","new_objects","55","Keg.jpg","37","1","1035"
"3","3","retrieval","old_objects","56","BicycleBrake.jpg","36","1","799"
"3","3","retrieval","old_objects","57","Toy_Chicken.jpg","36","1","814"
"3","3","retrieval","old_objects","58","Wheel_Steering.jpg","36","1","740"
"3","3","retrieval","new_objects","59","Brace_Neck.jpg","37","1","804"
"3","3","retrieval","new_objects","60","JukeboxAntique.jpg","37","1","874"
"3","3","retrieval","new_objects","62","Hook_Ceiling.jpg","37","1","1308"
"3","3","retrieval","old_objects","63","Candle_Blue.jpg","36","1","768"
"3","3","retrieval","old_objects","64","House_Rural.jpg","36","1","974"
"3","3","retrieval","old_objects","65","Grenade.jpg","36","1","748"
"3","3","retrieval","new_objects","66","Hotdog_Weiner.jpg","37","1","614"
"3","3","retrieval","new_objects","67","Ball_Football.jpg","36","0","630"
"3","3","retrieval","old_objects","68","Dog_SaintBernard.jpg","36","1","849"
"3","3","retrieval","new_objects","69","Radio_Vintage.jpg","37","1","699"
"3","3","retrieval","old_objects","70","Can_Milk.jpg","36","1","759"
"3","3","retrieval","new_objects","71","Skates.jpg","37","1","790"
"3","3","retrieval","new_objects","72","AllTerrain.jpg","37","1","799"
"3","3","retrieval","new_objects","73","Gecko.jpg","37","1","686"
"3","3","retrieval","new_objects","74","Scorpion.jpg","37","1","764"
"3","3","retrieval","old_objects","75","RiceCooker.jpg","37","0","1050"
"3","3","retrieval","old_objects","76","Tuxedo.jpg","36","1","761"
"3","3","retrieval","new_objects","77","Vase_EarthToned.jpg","37","1","694"
"3","3","retrieval","new_objects","78","Snowboard.jpg","37","1","832"
"3","3","retrieval","old_objects","79","ProjectorScreen.jpg","36","1","759"
"3","3","retrieval","old_objects","80","LeatherPuncherTool.jpg","36","1","825"
"3","3","retrieval","old_objects","81","Glove_Rubber.jpg","36","1","693"
"3","3","retrieval","new_objects","82","Egg_Chocolate.jpg","37","1","719"
"3","3","retrieval","old_objects","83","Tetrahedron.jpg","36","1","745"
"3","3","retrieval","new_objects","84","Bag_Doctor.jpg","37","1","719"
"3","3","retrieval","new_objects","85","Bag_Saline.jpg","37","1","873"
"3","3","retrieval","new_objects","86","Flower_Orchid.jpg","36","0","767"
"3","3","retrieval","old_objects","87","Chainsaw.jpg","36","1","1145"
"3","3","retrieval","old_objects","88","Box_FirstAidOpen.jpg","36","1","955"
"3","3","retrieval","old_objects","89","Bucket_Halloween.jpg","36","1","857"
"3","3","retrieval","old_objects","90","Truck_Army.jpg","36","1","896"
"3","3","retrieval","old_objects","91","Film_Roll.jpg","36","1","757"
"3","3","retrieval","old_objects","92","Ginger.jpg","36","1","803"
"3","3","retrieval","old_objects","93","Mug_Ceramic.jpg","36","1","691"
"3","3","retrieval","new_objects","94","MetalChain.jpg","37","1","604"
"3","3","retrieval","new_objects","95","Computer_ExpansionCard.jpg","37","1","709"
"3","3","retrieval","new_objects","96","BabyMonitor.jpg","37","1","644"
"3","3","retrieval","new_objects","97","Toy_ElephantPlastic.jpg","37","1","584"
"3","3","retrieval","new_objects","98","Bandage_Wrap.jpg","37","1","743"
"3","3","retrieval","old_objects","99","Golf_Bag.jpg","36","1","858"
"3","3","retrieval","old_objects","100","Cherry.jpg","36","1","882"
"3","3","retrieval","new_objects","101","CinderBlock.jpg","37","1","833"
"3","3","retrieval","new_objects","102","Boat_Row.jpg","37","1","778"
"3","3","retrieval","old_objects","103","Clock_Digital.jpg","36","1","877"
"3","3","retrieval","old_objects","104","Candleholder_LampShaped.jpg","36","1","752"
"3","3","retrieval","new_objects","105","Frame_Oval.jpg","37","1","745"
"3","3","retrieval","new_objects","106","TubeRing.jpg","37","1","657"
"3","3","retrieval","new_objects","107","Tire_Hollow.jpg","37","1","866"
"3","3","retrieval","old_objects","108","Candy_Lozenge.jpg","36","1","741"
"3","3","retrieval","old_objects","109","Drum_Set.jpg","36","1","787"
"3","3","retrieval","new_objects","110","Spoon_Serving.jpg","37","1","874"
"3","3","retrieval","old_objects","111","Iguana.jpg","36","1","805"
"3","3","retrieval","new_objects","112","Canister_Oil.jpg","37","1","673"
"3","3","retrieval","new_objects","113","Leaf_Clover.jpg","37","1","689"
"3","3","retrieval","old_objects","114","Toy_BearBlackPlastic.jpg","36","1","1096"
"3","3","retrieval","new_objects","115","ColoringSet.jpg","37","1","738"
"3","3","retrieval","new_objects","116","Cage_Bird.jpg","37","1","912"
"3","3","retrieval","old_objects","117","IceCreamCone.jpg","36","1","827"
"3","3","retrieval","old_objects","118","Mask_VenetianLongNose.jpg","36","1","899"
"3","3","retrieval","new_objects","119","PropellerFan.jpg","37","1","668"
"3","3","retrieval","old_objects","120","Chair_Office.jpg","37","0","671"
"3","3","retrieval","new_objects","121","Tape_Dispenser.jpg","37","1","814"
"3","3","retrieval","old_objects","123","Birdhouse.jpg","36","1","949"
"3","3","retrieval","old_objects","124","Steamer.jpg","37","0","764"
"3","3","retrieval","new_objects","125","Cheesegrater_Handheld.jpg","37","1","722"
"3","3","retrieval","new_objects","126","Peach.jpg","37","1","803"
"3","3","retrieval","old_objects","127","Bolt.jpg","36","1","672"
"3","3","retrieval","new_objects","128","Toaster_Antique.jpg","37","1","711"
"3","3","retrieval","old_objects","129","Arch_Triomphe.jpg","36","1","874"
"3","3","retrieval","new_objects","130","LampPost_ThreeBulbs.jpg","37","1","749"
"3","3","retrieval","old_objects","131","Monitor.jpg","36","1","870"
"3","3","retrieval","old_objects","132","Cart_Janitor.jpg","36","1","708"
"3","3","retrieval","old_objects","133","Hat_Beret.jpg","36","1","678"
"3","3","retrieval","new_objects","134","Tiara.jpg","37","1","682"
"3","3","retrieval","new_objects","135","Pillow_Heart.jpg","37","1","686"
"3","3","retrieval","old_objects","136","HedgeShears.jpg","36","1","653"
"3","3","retrieval","new_objects","137","SnowGlobe.jpg","37","1","665"
"3","3","retrieval","old_objects","138","Olives.jpg","36","1","796"
"3","3","retrieval","new_objects","139","Bag_Gym.jpg","37","1","537"
"3","3","retrieval","old_objects","140","Maraca.jpg","37","0","581"
"3","3","retrieval","new_objects","141","Hat_Baseball.jpg","37","1","831"
"3","3","retrieval","old_objects","142","Lock_Bike.jpg","37","0","795"
"3","3","retrieval","new_objects","143","Hook_Fishing.jpg","37","1","1049"
"3","3","retrieval","new_objects","144","EnglishMuffin.jpg","37","1","869"
"3","3","retrieval","new_objects","145","Corn_Kernels.jpg","37","1","763"
"3","3","retrieval","old_objects","146","Bib.jpg","36","1","958"
"3","3","retrieval","new_objects","147","IceCubes copy.jpg","37","1","1388"
"3","3","retrieval","new_objects","148","Pipe_Drain.jpg","37","1","1625"
"3","3","retrieval","new_objects","149","Glass_Martini.jpg","37","1","1242"
"3","3","retrieval","new_objects","150","Chair_MedicalToilet.jpg","37","1","792"
"3","3","retrieval","old_objects","151","Mattress.jpg","36","1","843"
"3","3","retrieval","old_objects","152","Hat_Feather.jpg","36","1","804"
"3","3","retrieval","old_objects","153","Bag_String.jpg","36","1","767"
"3","3","retrieval","new_objects","154","Eggplant.jpg","37","1","791"
"3","3","retrieval","new_objects","155","Chair_Student.jpg","37","1","1225"
"3","3","retrieval","new_objects","156","Table_Side.jpg","37","1","761"
"3","3","retrieval","old_objects","157","TelescopeSpacecraft.jpg","36","1","923"
"3","3","retrieval","old_objects","158","Lilypad.jpg","36","1","767"
"3","3","retrieval","new_objects","159","Wardrobe.jpg","37","1","706"
"3","3","retrieval","old_objects","160","BicycleWheel.jpg","36","1","761"
"3","3","retrieval","old_objects","161","ToothBrush.jpg","36","1","913"
"3","3","retrieval","old_objects","162","EspressoMachine.jpg","36","1","811"
"3","3","retrieval","old_objects","163","Toy_BearBrownPlushie.jpg","36","1","662"
"3","3","retrieval","old_objects","164","Desk_White.jpg","36","1","738"
"3","3","retrieval","new_objects","165","IceCream_Chocolate.jpg","37","1","673"
"3","3","retrieval","new_objects","166","Jug_GallonRed.jpg","37","1","584"
"3","3","retrieval","old_objects","167","Helmet_Bicycle.jpg","36","1","670"
"3","3","retrieval","new_objects","168","MovieSlate.jpg","37","1","673"
"3","3","retrieval","new_objects","169","Blade_Tablesaw.jpg","37","1","803"
"3","3","retrieval","old_objects","170","Bread_Melon.jpg","36","1","947"
"3","3","retrieval","new_objects","171","Torpedo.jpg","37","1","739"
"3","3","retrieval","new_objects","172","Shirt_SportsJersey.jpg","37","1","766"
"3","3","retrieval","old_objects","173","Clothespin_Beige.jpg","36","1","742"
"3","3","retrieval","old_objects","174","Milkshake_Chocolate.jpg","36","1","769"
"3","3","retrieval","old_objects","175","Button.jpg","36","1","763"
"3","3","retrieval","old_objects","176","Embosser.jpg","36","1","812"
"3","3","retrieval","old_objects","177","Lobster.jpg","36","1","809"
"3","3","retrieval","old_objects","178","Lips_Real.jpg","36","1","751"
"3","3","retrieval","new_objects","179","Jacks.jpg","37","1","780"
"3","3","retrieval","old_objects","180","Shoes_Mould.jpg","36","1","885"
"3","3","retrieval","old_objects","181","BookShelf.jpg","36","1","847"
"3","3","retrieval","new_objects","182","Syrup_Maple.jpg","37","1","683"
"3","3","retrieval","old_objects","184","Mixer_Hand.jpg","37","0","1034"
"3","3","retrieval","old_objects","185","Cannister_GasVintage.jpg","37","0","761"
"3","3","retrieval","new_objects","186","Currants.jpg","37","1","883"
"3","3","retrieval","old_objects","187","Bowl_Lemons.jpg","36","1","632"
"3","3","retrieval","old_objects","188","Caribou.jpg","36","1","558"
"3","3","retrieval","old_objects","189","Seal_animal.jpg","36","1","567"
"3","3","retrieval","old_objects","190","Outhouse.jpg","36","1","596"
"3","3","retrieval","old_objects","191","Backpack_Suitcase.jpg","37","0","629"
"3","3","retrieval","old_objects","192","Statue_Buddha.jpg","36","1","976"
"3","3","retrieval","new_objects","193","Nuts_Peanuts.jpg","37","1","771"
"3","3","retrieval","old_objects","194","Cracker_Saltine.jpg","36","1","893"
"3","3","retrieval","new_objects","195","Lipstick.jpg","37","1","730"
"3","3","retrieval","new_objects","196","Machine_EKG.jpg","37","1","688"
"3","3","retrieval","old_objects","197","Van.jpg","36","1","765"
"3","3","retrieval","old_objects","198","Waffle.jpg","36","1","760"
"3","3","retrieval","new_objects","199","Funnel.jpg","37","1","729"
"3","3","retrieval","old_objects","200","Snowpea.jpg","36","1","669"
"3","3","retrieval","old_objects","201","Bird_Tern.jpg","36","1","653"
"3","3","retrieval","new_objects","202","Makeup_Eyeshadow.jpg","37","1","709"
"3","3","retrieval","old_objects","203","Origami_Ox.jpg","36","1","658"
"3","3","retrieval","old_objects","204","Camera_Video.jpg","36","1","770"
"3","3","retrieval","new_objects","205","Stool_Metal.jpg","37","1","837"
"3","3","retrieval","old_objects","206","Bowl_Sugar.jpg","36","1","783"
"3","3","retrieval","new_objects","207","Battery_AA.jpg","37","1","687"
"3","3","retrieval","new_objects","208","DogToy.jpg","37","1","837"
"3","3","retrieval","new_objects","209","ClothRed.jpg","37","1","864"
"3","3","retrieval","new_objects","210","Glass_Bowl.jpg","37","1","776"
"3","3","retrieval","old_objects","211","Foam_Accoustic.jpg","36","1","712"
"3","3","retrieval","new_objects","212","DVDPlayer.jpg","37","1","796"
"3","3","retrieval","old_objects","213","Barbecue_Charcoal.jpg","36","1","866"
"3","3","retrieval","new_objects","214","BicycleHandleGrip.jpg","37","1","632"
"3","3","retrieval","old_objects","215","Fence_ChainLink.jpg","36","1","953"
"3","3","retrieval","new_objects","216","Stroller.jpg","37","1","819"
"3","3","retrieval","new_objects","217","Barrel_Upright.jpg","37","1","817"
"3","3","retrieval","new_objects","218","Ostrich.jpg","37","1","756"
"3","3","retrieval","new_objects","219","BicycleReflector.jpg","37","1","858"
"3","3","retrieval","old_objects","220","Cane_Wooden.jpg","36","1","750"
"3","3","retrieval","old_objects","221","Bag_Computer.jpg","36","1","706"
"3","3","retrieval","new_objects","222","ElectricOutlet.jpg","37","1","821"
"3","3","retrieval","old_objects","223","Glove_Baseball.jpg","36","1","765"
"3","3","retrieval","new_objects","224","Hose_Garden.jpg","37","1","704"
"3","3","retrieval","old_objects","225","Gun_Bazooka.jpg","37","0","838"
"3","3","retrieval","old_objects","226","Drum_Bongos.jpg","36","1","820"
"3","3","retrieval","new_objects","227","Fruit_Cactus.jpg","37","1","673"
"3","3","retrieval","old_objects","228","Toy_Car.jpg","36","1","858"
"3","3","retrieval","new_objects","229","Potato.jpg","37","1","805"
"3","3","retrieval","new_objects","230","Statue_Cat.jpg","37","1","674"
"3","3","retrieval","old_objects","231","Ashtray_Cigarettes.jpg","36","1","732"
"3","3","retrieval","old_objects","232","Cornucopia.jpg","36","1","631"
"3","3","retrieval","new_objects","233","Shield_Antique.jpg","37","1","575"
"3","3","retrieval","old_objects","234","ReindeerHeadband.jpg","36","1","712"
"3","3","retrieval","new_objects","235","Light_Studio.jpg","37","1","648"
"3","3","retrieval","old_objects","236","ChessPiece_Bishop.jpg","37","0","644"
"3","3","retrieval","old_objects","237","Locomotive.jpg","36","1","881"
"3","3","retrieval","new_objects","238","Plate_Ceramic.jpg","37","1","703"
"3","3","retrieval","old_objects","239","Can_Olives.jpg","36","1","819"
"3","3","retrieval","old_objects","240","Pot_Crock.jpg","36","1","708"
"3","3","retrieval","old_objects","241","Brush_Windshield.jpg","37","0","768"
"3","3","retrieval","old_objects","242","Toy_Rooster.jpg","36","1","720"
"3","3","retrieval","old_objects","243","BumperCar.jpg","36","1","789"
"3","3","retrieval","old_objects","245","Ladybug.jpg","36","1","729"
"3","3","retrieval","old_objects","246","Toy_WinnieThePooh.jpg","36","1","641"
"3","3","retrieval","old_objects","247","Beaker.jpg","36","1","586"
"3","3","retrieval","old_objects","248","Cranberry.jpg","36","1","818"
"3","3","retrieval","old_objects","249","Table_Saw.jpg","37","0","684"
"3","3","retrieval","old_objects","250","Loveseat.jpg","36","1","852"
"3","3","retrieval","new_objects","251","BearPolar.jpg","37","1","745"
"3","3","retrieval","new_objects","252","Pliers_NeedleNose.jpg","37","1","884"
"3","3","retrieval","new_objects","253","MeatGrinder.jpg","37","1","792"
"3","3","retrieval","old_objects","254","Cymbals.jpg","36","1","678"
"3","3","retrieval","old_objects","255","Thermostat_Digital.jpg","36","1","699"
"3","3","retrieval","old_objects","256","TreeHouse.jpg","36","1","741"
"3","3","retrieval","old_objects","257","Taco.jpg","36","1","640"
"3","3","retrieval","new_objects","258","Keyhole.jpg","37","1","585"
"3","3","retrieval","new_objects","259","Light_Halogen.jpg","37","1","744"
"3","3","retrieval","old_objects","260","Mitt_Oven.jpg","36","1","859"
"3","3","retrieval","old_objects","261","Bucket_WoodenLight.jpg","36","1","958"
"3","3","retrieval","old_objects","262","PaperCutter.jpg","36","1","860"
"3","3","retrieval","new_objects","263","Pyramid.jpg","37","1","706"
"3","3","retrieval","old_objects","264","Bellows.jpg","36","1","807"
"3","3","retrieval","new_objects","265","Chairs_Stacked.jpg","37","1","676"
"3","3","retrieval","old_objects","266","AlcoholBar.jpg","36","1","1521"
"3","3","retrieval","old_objects","267","Slide.jpg","36","1","728"
"3","3","retrieval","old_objects","268","OrangeBlood.jpg","36","1","1120"
"3","3","retrieval","new_objects","269","Toy_SeeSaw.jpg","37","1","636"
"3","3","retrieval","new_objects","270","Window.jpg","37","1","689"
"3","3","retrieval","new_objects","271","Bird_Toucan.jpg","37","1","712"
"3","3","retrieval","new_objects","272","Can_Gas.jpg","36","0","1122"
"3","3","retrieval","new_objects","273","Axe.jpg","37","1","967"
"3","3","retrieval","new_objects","274","Lectern.jpg","37","1","688"
"3","3","retrieval","new_objects","275","Nuts_PeanutsPeeled.jpg","37","1","765"
"3","3","retrieval","new_objects","276","Sink_Bathroom.jpg","37","1","741"
"3","3","retrieval","new_objects","277","Can_GasSpout.jpg","37","1","732"
"3","3","retrieval","old_objects","278","Hook_Fish.jpg","36","1","722"
"3","3","retrieval","new_objects","279","Hat_Visor.jpg","37","1","748"
"3","3","retrieval","new_objects","280","Sign_Taxi.jpg","37","1","685"
"3","3","retrieval","new_objects","281","Projector_Film.jpg","37","1","964"
"3","3","retrieval","new_objects","282","Jar_Honey.jpg","37","1","867"
"3","3","retrieval","old_objects","283","AnsweringMachine.jpg","37","0","1365"
"3","3","retrieval","new_objects","284","Pencil.jpg","37","1","1070"
"3","3","retrieval","new_objects","285","Mousetrap.jpg","37","1","929"
"3","3","retrieval","new_objects","286","Fence_Wooden.jpg","37","1","958"
"3","3","retrieval","new_objects","287","Spoon_Baby.jpg","37","1","842"
"3","3","retrieval","new_objects","288","Fork_Fondue.jpg","37","1","892"
"3","3","retrieval","new_objects","289","Garlic_Clove.jpg","37","1","879"
"3","3","retrieval","old_objects","290","Toy_LambPlushie.jpg","36","1","756"
"3","3","retrieval","new_objects","291","Cord_Ethernet.jpg","37","1","822"
"3","3","retrieval","old_objects","292","Playard.jpg","36","1","857"
"3","3","retrieval","new_objects","293","BicycleSeat.jpg","37","1","786"
"3","3","retrieval","new_objects","294","Seahorse.jpg","37","1","1202"
"3","3","retrieval","new_objects","295","Ruler_Metal.jpg","37","1","744"
"3","3","retrieval","new_objects","296","Tree_Fir.jpg","37","1","627"
"3","3","retrieval","new_objects","297","Egg_Cup.jpg","37","1","817"
"3","3","retrieval","new_objects","298","Can_Oblong.jpg","37","1","801"
"3","3","retrieval","old_objects","299","Light_Fixtures.jpg","36","1","926"
"3","3","retrieval","new_objects","300","Toaster_MetalSleek.jpg","37","1","772"
"3","3","retrieval","old_objects","301","Toad.jpg","36","1","876"
"3","3","retrieval","old_objects","302","EyeDrops.jpg","36","1","696"
"3","3","retrieval","new_objects","303","Brush_Toilet.jpg","37","1","684"
"3","3","retrieval","old_objects","304","Helmet_Motorcycle.jpg","36","1","798"
"3","3","retrieval","new_objects","306","Chair_Dining.jpg","37","1","1864"
"3","3","retrieval","new_objects","307","USBKey.jpg","37","1","649"
"3","3","retrieval","old_objects","308","Protractor.jpg","36","1","704"
"3","3","retrieval","old_objects","309","HumanSkull.jpg","36","1","648"
"3","3","retrieval","new_objects","310","Dynamite.jpg","37","1","667"
"3","3","retrieval","new_objects","311","OperaGlasses.jpg","37","1","906"
"3","3","retrieval","old_objects","312","Helicopter.jpg","36","1","694"
"3","3","retrieval","old_objects","313","Arm.jpg","36","1","534"
"3","3","retrieval","new_objects","314","DivingBoard.jpg","37","1","614"
"3","3","retrieval","old_objects","315","Stamper.jpg","36","1","824"
"3","3","retrieval","new_objects","316","Lens_ColourFilter.jpg","37","1","658"
"3","3","retrieval","old_objects","317","BasketballHoop.jpg","37","0","1300"
"3","3","retrieval","old_objects","318","ShakerShekere.jpg","36","1","650"
"3","3","retrieval","old_objects","319","Suspenders.jpg","37","0","596"
"3","3","retrieval","old_objects","320","Bottle_Baby.jpg","36","1","921"
"3","3","retrieval","old_objects","321","Milkshake_Strawberry.jpg","36","1","784"
"3","3","retrieval","old_objects","322","FlipFlop_PairBlue.jpg","36","1","797"
"3","3","retrieval","old_objects","323","Knee.jpg","36","1","868"
"3","3","retrieval","old_objects","324","PersonWooden.jpg","36","1","725"
"3","3","retrieval","new_objects","325","Kiwi.jpg","37","1","765"
"3","3","retrieval","new_objects","326","LetterMail.jpg","37","1","723"
"3","3","retrieval","old_objects","327","Clip_Binder.jpg","36","1","730"
"3","3","retrieval","new_objects","328","AmberWithMosquito.jpg","37","1","750"
"3","3","retrieval","new_objects","329","DormerWindow.jpg","37","1","962"
"3","3","retrieval","new_objects","330","Toy_Stroller.jpg","37","1","994"
"3","3","retrieval","new_objects","331","Statue_Man.jpg","37","1","904"
"3","3","retrieval","old_objects","332","Makeup_Compact.jpg","36","1","961"
"3","3","retrieval","old_objects","333","FlintIgniter.jpg","37","0","771"
"3","3","retrieval","old_objects","334","Guacamole.jpg","36","1","802"
"3","3","retrieval","new_objects","335","Croissant.jpg","37","1","707"
"3","3","retrieval","old_objects","336","Cup_sippy.jpg","36","1","859"
"3","3","retrieval","old_objects","337","Staples.jpg","36","1","807"
"3","3","retrieval","old_objects","338","LintRemover.jpg","37","0","731"
"3","3","retrieval","new_objects","339","DeepFryer.jpg","37","1","831"
"3","3","retrieval","new_objects","340","Toy_Alien.jpg","37","1","722"
"3","3","retrieval","new_objects","341","FuseBox.jpg","37","1","911"
"3","3","retrieval","old_objects","342","KitchenCloth.jpg","37","0","883"
"3","3","retrieval","new_objects","343","OnionRed.jpg","37","1","688"
"3","3","retrieval","new_objects","344","Milkshake_StrawberryStraw.jpg","36","0","1058"
"3","3","retrieval","old_objects","345","Machine_Bread.jpg","37","0","1025"
"3","3","retrieval","new_objects","346","CashRegister_Antique.jpg","37","1","712"
"3","3","retrieval","old_objects","347","DogLeash.jpg","36","1","771"
"3","3","retrieval","old_objects","348","PotatoMasher_Grate.jpg","36","1","746"
"3","3","retrieval","new_objects","349","CartonEggs.jpg","37","1","684"
"3","3","retrieval","new_objects","350","Clarinet.jpg","37","1","798"
"3","3","retrieval","new_objects","351","Ruler_Triangle.jpg","37","1","795"
"3","3","retrieval","new_objects","352","Toy_Moose.jpg","37","1","792"
"3","3","retrieval","new_objects","353","Phone_Public.jpg","37","1","716"
"3","3","retrieval","new_objects","354","Snorkle.jpg","37","1","705"
"3","3","retrieval","old_objects","355","ChocolateBar_HalfUnwrapped.jpg","36","1","765"
"3","3","demographics_block","gender","1","ChocolateBar_HalfUnwrapped.jpg","female","1","13598"
"3","3","demographics_block","age","1","ChocolateBar_HalfUnwrapped.jpg","40","1","13598"
"3","3","demographics_block","education","1","ChocolateBar_HalfUnwrapped.jpg","7","1","13598"
"3","3","demographics_block","left_right_handed","2","ChocolateBar_HalfUnwrapped.jpg","Right","1","6607"
"3","3","demographics_block","raceoption1","2","ChocolateBar_HalfUnwrapped.jpg","0","1","6607"
"3","3","demographics_block","raceoption2","2","ChocolateBar_HalfUnwrapped.jpg","","1","6607"
"3","3","demographics_block","raceoption3","2","ChocolateBar_HalfUnwrapped.jpg","","1","6607"
"3","3","demographics_block","raceoption4","2","ChocolateBar_HalfUnwrapped.jpg","","1","6607"
"3","3","demographics_block","raceoption5","2","ChocolateBar_HalfUnwrapped.jpg","","1","6607"
"3","3","demographics_block","raceoption6","2","ChocolateBar_HalfUnwrapped.jpg","","1","6607"
"3","3","demographics_block","raceoption7","2","ChocolateBar_HalfUnwrapped.jpg","","1","6607"
"3","3","demographics_block","raceoption8","2","ChocolateBar_HalfUnwrapped.jpg","","1","6607"
"3","3","demographics_block","raceoption9","2","ChocolateBar_HalfUnwrapped.jpg","","1","6607"
"3","3","demographics_block","raceother","2","ChocolateBar_HalfUnwrapped.jpg","","1","6607"
"3","3","demographics_block","raceother","2","ChocolateBar_HalfUnwrapped.jpg","","1","6607"
"3","3","demographics_block","english_language","2","ChocolateBar_HalfUnwrapped.jpg","Yes","1","6607"
"3","3","demographics_block","english_languageother","2","ChocolateBar_HalfUnwrapped.jpg","","1","6607"
"3","3","demographics_block","eyesight","3","ChocolateBar_HalfUnwrapped.jpg","Yes","1","5149"
"3","3","demographics_block","colorblind","3","ChocolateBar_HalfUnwrapped.jpg","No","1","5149"
"3","3","worker_id_block","worker_id_textbox","1","ChocolateBar_HalfUnwrapped.jpg","A3HY5JBIKMH0PL","1","3982"
"8","8","encoding","encoding","1","Ladybug.jpg","36","0","1039"
"8","8","encoding","encoding","2","Guacamole.jpg","37","0","1125"
"8","8","encoding","encoding","3","Cup_sippy.jpg","37","0","1324"
"8","8","encoding","encoding","4","Bib.jpg","37","0","1218"
"8","8","encoding","encoding","5","Cornucopia.jpg","36","0","681"
"8","8","encoding","encoding","6","Mitt_Oven.jpg","37","0","863"
"8","8","encoding","encoding","7","HedgeShears.jpg","37","0","714"
"8","8","encoding","encoding","8","Shoes_Mould.jpg","37","0","1228"
"8","8","encoding","encoding","9","Monitor.jpg","37","0","1114"
"8","8","encoding","encoding","10","BasketballHoop.jpg","37","0","808"
"8","8","encoding","encoding","11","AlcoholBar.jpg","37","0","599"
"8","8","encoding","encoding","12","Barbecue_Charcoal.jpg","37","0","1013"
"8","8","encoding","encoding","13","Toy_BearBlackPlastic.jpg","36","0","1298"
"8","8","encoding","encoding","14","Bellows.jpg","37","0","633"
"8","8","encoding","encoding","15","Seal_animal.jpg","36","0","791"
"8","8","encoding","encoding","16","Glove_Rubber.jpg","37","0","558"
"8","8","encoding","encoding","17","Light_Fixtures.jpg","37","0","596"
"8","8","encoding","encoding","18","Box_FirstAidOpen.jpg","37","0","579"
"8","8","encoding","encoding","19","Lobster.jpg","37","0","1018"
"8","8","encoding","encoding","20","LintRemover.jpg","37","0","952"
"8","8","encoding","encoding","21","Knee.jpg","36","0","1182"
"8","8","encoding","encoding","22","Earth_Planet.jpg","36","0","1796"
"8","8","encoding","encoding","23","Golf_Bag.jpg","37","0","1554"
"8","8","encoding","encoding","24","AnsweringMachine.jpg","37","0","1009"
"8","8","encoding","encoding","25","Drum_Set.jpg","37","0","551"
"8","8","encoding","encoding","26","Helmet_Bicycle.jpg","37","0","629"
"8","8","encoding","encoding","27","Maraca.jpg","37","0","716"
"8","8","encoding","encoding","28","RiceCooker.jpg","37","0","891"
"8","8","encoding","encoding","29","Table_Saw.jpg","37","0","665"
"8","8","encoding","encoding","30","Cracker_Saltine.jpg","37","0","474"
"8","8","encoding","encoding","31","Waffle.jpg","37","0","878"
"8","8","encoding","encoding","32","Grenade.jpg","37","0","1125"
"8","8","encoding","encoding","33","Milkshake_Strawberry.jpg","37","0","842"
"8","8","encoding","encoding","34","Bugle.jpg","37","0","785"
"8","8","encoding","encoding","35","Candle_Blue.jpg","37","0","999"
"8","8","encoding","encoding","36","Thermostat_Digital.jpg","37","0","1198"
"8","8","encoding","encoding","37","Rope_Manila.jpg","37","0","557"
"8","8","encoding","encoding","38","Loveseat.jpg","37","0","467"
"8","8","encoding","encoding","39","Cart_Janitor.jpg","37","0","874"
"8","8","encoding","encoding","40","Ginger.jpg","37","0","1112"
"8","8","encoding","encoding","41","FlintIgniter.jpg","37","0","823"
"8","8","encoding","encoding","42","Hat_Beret.jpg","36","0","1405"
"8","8","encoding","encoding","43","LeatherPuncherTool.jpg","37","0","491"
"8","8","encoding","encoding","44","Slide.jpg","37","0","626"
"8","8","encoding","encoding","45","Autocreeper.jpg","37","0","1018"
"8","8","encoding","encoding","46","Foam_Accoustic.jpg","37","0","959"
"8","8","encoding","encoding","47","Hook_Fish.jpg","37","0","1750"
"8","8","encoding","encoding","48","LumiereBeautyBeast.jpg","37","0","636"
"8","8","encoding","encoding","49","Hat_Feather.jpg","37","0","1338"
"8","8","encoding","encoding","50","WaterGun.jpg","37","0","480"
"8","8","encoding","encoding","51","Suspenders.jpg","37","0","534"
"8","8","encoding","encoding","52","TelephoneJack.jpg","37","0","604"
"8","8","encoding","encoding","53","ToothPick.jpg","37","0","899"
"8","8","encoding","encoding","54","Glove_Baseball.jpg","37","0","951"
"8","8","encoding","encoding","55","Toad.jpg","36","0","1303"
"8","8","encoding","encoding","56","BookShelf.jpg","37","0","957"
"8","8","encoding","encoding","57","Olives.jpg","36","0","956"
"8","8","encoding","encoding","58","ChocolateBar_HalfUnwrapped.jpg","37","0","1130"
"8","8","encoding","encoding","59","Abacus.jpg","37","0","1121"
"8","8","encoding","encoding","60","Desk_White.jpg","37","0","504"
"8","8","encoding","encoding","62","Boardgame_Checkers.jpg","37","0","775"
"8","8","encoding","encoding","63","Toy_Car.jpg","37","0","958"
"8","8","encoding","encoding","64","Backpack_Suitcase.jpg","37","0","484"
"8","8","encoding","encoding","65","Statue_Buddha.jpg","37","0","555"
"8","8","encoding","encoding","66","Tetrahedron.jpg","37","0","906"
"8","8","encoding","encoding","67","TelescopeSpacecraft.jpg","37","0","559"
"8","8","encoding","encoding","68","Taco.jpg","37","0","959"
"8","8","encoding","encoding","69","Toy_LambPlushie.jpg","37","0","996"
"8","8","encoding","encoding","70","Van.jpg","0","0","2000"
"8","8","encoding","encoding","71","Bench_Wooden.jpg","37","0","440"
"8","8","encoding","encoding","72","Cymbals.jpg","37","0","543"
"8","8","encoding","encoding","73","Camera_Video.jpg","37","0","590"
"8","8","encoding","encoding","74","Stool_Camping.jpg","37","0","524"
"8","8","encoding","encoding","75","PuppetTheatre_BlueRed.jpg","37","0","483"
"8","8","encoding","encoding","76","Chair_Office.jpg","37","0","425"
"8","8","encoding","encoding","77","Toy_Chicken.jpg","37","0","543"
"8","8","encoding","encoding","78","Toy_WinnieThePooh.jpg","37","0","454"
"8","8","encoding","encoding","79","Cane_Wooden.jpg","37","0","548"
"8","8","encoding","encoding","80","Protractor.jpg","37","0","707"
"8","8","encoding","encoding","81","Cranberry.jpg","36","0","1057"
"8","8","encoding","encoding","82","Tuxedo.jpg","0","0","2000"
"8","8","encoding","encoding","83","Bowl_Sugar.jpg","37","0","597"
"8","8","encoding","encoding","84","Can_Milk.jpg","37","0","1203"
"8","8","encoding","encoding","85","Lips_Real.jpg","36","0","1409"
"8","8","encoding","encoding","86","Helmet_Motorcycle.jpg","37","0","568"
"8","8","encoding","encoding","87","Makeup_Compact.jpg","37","0","710"
"8","8","encoding","encoding","88","Milkshake_Chocolate.jpg","37","0","797"
"8","8","encoding","encoding","89","Bag_String.jpg","37","0","1075"
"8","8","encoding","encoding","90","Lilypad.jpg","37","0","729"
"8","8","encoding","encoding","91","Bag_Computer.jpg","37","0","904"
"8","8","encoding","encoding","92","Bottle_Baby.jpg","37","0","918"
"8","8","encoding","encoding","93","EyeDrops.jpg","37","0","1236"
"8","8","encoding","encoding","94","IceCreamCone.jpg","37","0","1594"
"8","8","encoding","encoding","95","Film_Roll.jpg","37","0","632"
"8","8","encoding","encoding","96","Machine_Bread.jpg","37","0","590"
"8","8","encoding","encoding","97","BumperCar.jpg","37","0","644"
"8","8","encoding","encoding","98","Mixer_Hand.jpg","37","0","642"
"8","8","encoding","encoding","99","Truck_Army.jpg","37","0","802"
"8","8","encoding","encoding","100","PersonWooden.jpg","37","0","486"
"8","8","encoding","encoding","101","Staircase_Curving.jpg","37","0","452"
"8","8","encoding","encoding","102","Shoe_Men.jpg","37","0","840"
"8","8","encoding","encoding","103","Toy_Rooster.jpg","37","0","921"
"8","8","encoding","encoding","104","Fence_ChainLink.jpg","37","0","959"
"8","8","encoding","encoding","105","Chainsaw.jpg","37","0","581"
"8","8","encoding","encoding","106","Awning.jpg","37","0","484"
"8","8","encoding","encoding","107","ReindeerHeadband.jpg","37","0","1130"
"8","8","encoding","encoding","108","PotatoMasher_Grate.jpg","37","0","553"
"8","8","encoding","encoding","109","FlipFlop_SingleRed.jpg","37","0","478"
"8","8","encoding","encoding","110","Bird_Tern.jpg","37","0","484"
"8","8","encoding","encoding","111","Playard.jpg","37","0","570"
"8","8","encoding","encoding","112","Iguana.jpg","0","0","2000"
"8","8","encoding","encoding","113","Clothespin_Beige.jpg","37","0","614"
"8","8","encoding","encoding","114","ToothBrush.jpg","37","0","492"
"8","8","encoding","encoding","115","Mug_Ceramic.jpg","37","0","474"
"8","8","encoding","encoding","116","Sushi.jpg","37","0","1096"
"8","8","encoding","encoding","117","Birdhouse.jpg","37","0","965"
"8","8","encoding","encoding","118","Mattress.jpg","37","0","748"
"8","8","encoding","encoding","119","Mask_VenetianLongNose.jpg","37","0","490"
"8","8","encoding","encoding","120","Bread_Melon.jpg","37","0","706"
"8","8","encoding","encoding","121","TreeHouse.jpg","37","0","615"
"8","8","encoding","encoding","123","BicycleBrake.jpg","37","0","1463"
"8","8","encoding","encoding","124","PanCooking.jpg","37","0","533"
"8","8","encoding","encoding","125","Candleholder_LampShaped.jpg","37","0","483"
"8","8","encoding","encoding","126","Steamer.jpg","37","0","665"
"8","8","encoding","encoding","127","Bolt.jpg","37","0","655"
"8","8","encoding","encoding","128","Cherry.jpg","36","0","949"
"8","8","encoding","encoding","129","FlipFlop_PairBlue.jpg","37","0","515"
"8","8","encoding","encoding","130","Helicopter.jpg","37","0","673"
"8","8","encoding","encoding","131","DogLeash.jpg","37","0","407"
"8","8","encoding","encoding","132","Bucket_Halloween.jpg","37","0","725"
"8","8","encoding","encoding","133","Gun_Bazooka.jpg","37","0","667"
"8","8","encoding","encoding","134","Stamper.jpg","37","0","1137"
"8","8","encoding","encoding","135","Noisemaker_Streamers.jpg","37","0","655"
"8","8","encoding","encoding","136","OrangeBlood.jpg","37","0","1229"
"8","8","encoding","encoding","137","EspressoMachine.jpg","37","0","978"
"8","8","encoding","encoding","138","Toy_BearBrownPlushie.jpg","37","0","777"
"8","8","encoding","encoding","139","Outhouse.jpg","37","0","516"
"8","8","encoding","encoding","140","House_Stone.jpg","37","0","445"
"8","8","encoding","encoding","141","Stove_Portable.jpg","37","0","531"
"8","8","encoding","encoding","142","Button.jpg","37","0","801"
"8","8","encoding","encoding","143","Dog_SaintBernard.jpg","37","0","663"
"8","8","encoding","encoding","144","Lock_Bike.jpg","37","0","957"
"8","8","encoding","encoding","145","Beaker.jpg","37","0","723"
"8","8","encoding","encoding","146","Boat_Colourful.jpg","37","0","1793"
"8","8","encoding","encoding","147","Candy_Lozenge.jpg","37","0","935"
"8","8","encoding","encoding","148","Clip_Binder.jpg","37","0","1100"
"8","8","encoding","encoding","149","Caribou.jpg","37","0","523"
"8","8","encoding","encoding","150","KitchenCloth.jpg","37","0","481"
"8","8","encoding","encoding","151","Arm.jpg","36","0","695"
"8","8","encoding","encoding","152","Bowl_Lemons.jpg","37","0","606"
"8","8","encoding","encoding","153","Pot_Crock.jpg","37","0","890"
"8","8","encoding","encoding","154","Briefcase_Silver.jpg","37","0","808"
"8","8","encoding","encoding","155","Embosser.jpg","37","0","487"
"8","8","encoding","encoding","156","Locomotive.jpg","37","0","453"
"8","8","encoding","encoding","157","Clock_Digital.jpg","37","0","419"
"8","8","encoding","encoding","158","Staples.jpg","37","0","616"
"8","8","encoding","encoding","159","Drum_Bongos.jpg","37","0","463"
"8","8","encoding","encoding","160","House_Rural.jpg","37","0","557"
"8","8","encoding","encoding","161","Bucket_WoodenLight.jpg","37","0","692"
"8","8","encoding","encoding","162","Ashtray_Cigarettes.jpg","37","0","546"
"8","8","encoding","encoding","163","BicycleWheel.jpg","37","0","440"
"8","8","encoding","encoding","164","Can_Olives.jpg","36","0","766"
"8","8","encoding","encoding","165","PaperCutter.jpg","37","0","764"
"8","8","encoding","encoding","166","Brush_Windshield.jpg","37","0","483"
"8","8","encoding","encoding","167","Origami_Ox.jpg","37","0","609"
"8","8","encoding","encoding","168","HumanSkull.jpg","37","0","1152"
"8","8","encoding","encoding","169","ChessPiece_Bishop.jpg","37","0","573"
"8","8","encoding","encoding","170","Arch_Triomphe.jpg","37","0","515"
"8","8","encoding","encoding","171","ProjectorScreen.jpg","37","0","697"
"8","8","encoding","encoding","172","Tricycle.jpg","37","0","608"
"8","8","encoding","encoding","173","Wheel_Steering.jpg","37","0","518"
"8","8","encoding","encoding","174","Snowpea.jpg","37","0","709"
"8","8","encoding","encoding","175","Cannister_GasVintage.jpg","37","0","755"
"8","8","encoding","encoding","176","ShakerShekere.jpg","37","0","1481"
"8","8","encoding","encoding","177","Gun_Nerf.jpg","37","0","591"
"8","8","retrieval","old_objects","1","PersonWooden.jpg","36","1","1434"
"8","8","retrieval","new_objects","2","Can_GasSpout.jpg","37","1","1086"
"8","8","retrieval","new_objects","3","DeepFryer.jpg","37","1","1552"
"8","8","retrieval","old_objects","4","ToothPick.jpg","36","1","848"
"8","8","retrieval","old_objects","5","Toy_BearBlackPlastic.jpg","36","1","588"
"8","8","retrieval","new_objects","6","Jar_Honey.jpg","37","1","810"
"8","8","retrieval","new_objects","7","Croissant.jpg","37","1","1040"
"8","8","retrieval","old_objects","8","Pot_Crock.jpg","37","0","717"
"8","8","retrieval","new_objects","9","BicycleReflector.jpg","37","1","702"
"8","8","retrieval","old_objects","10","Bugle.jpg","36","1","936"
"8","8","retrieval","old_objects","11","BasketballHoop.jpg","36","1","553"
"8","8","retrieval","new_objects","12","Toy_SeeSaw.jpg","37","1","665"
"8","8","retrieval","old_objects","13","Button.jpg","36","1","572"
"8","8","retrieval","new_objects","14","Chair_Student.jpg","36","0","811"
"8","8","retrieval","old_objects","15","Bolt.jpg","36","1","560"
"8","8","retrieval","new_objects","16","Toy_ElephantPlastic.jpg","37","1","631"
"8","8","retrieval","old_objects","17","FlintIgniter.jpg","36","1","756"
"8","8","retrieval","new_objects","18","AmberWithMosquito.jpg","37","1","563"
"8","8","retrieval","old_objects","19","Origami_Ox.jpg","36","1","611"
"8","8","retrieval","old_objects","20","Bucket_WoodenLight.jpg","36","1","672"
"8","8","retrieval","new_objects","21","Seahorse.jpg","37","1","850"
"8","8","retrieval","new_objects","22","Bag_Saline.jpg","37","1","766"
"8","8","retrieval","old_objects","23","BookShelf.jpg","36","1","598"
"8","8","retrieval","new_objects","24","Jacks.jpg","37","1","580"
"8","8","retrieval","old_objects","25","Truck_Army.jpg","37","0","643"
"8","8","retrieval","old_objects","26","Sushi.jpg","36","1","502"
"8","8","retrieval","new_objects","27","Shirt_SportsJersey.jpg","37","1","600"
"8","8","retrieval","new_objects","28","CarLighter.jpg","37","1","670"
"8","8","retrieval","new_objects","29","Hotdog_Weiner.jpg","37","1","561"
"8","8","retrieval","new_objects","30","Snorkle.jpg","37","1","515"
"8","8","retrieval","new_objects","31","Spoons_MeasuringDetached.jpg","37","1","665"
"8","8","retrieval","new_objects","32","Ostrich.jpg","37","1","626"
"8","8","retrieval","old_objects","33","Milkshake_Chocolate.jpg","36","1","639"
"8","8","retrieval","new_objects","34","Eggplant.jpg","37","1","699"
"8","8","retrieval","new_objects","35","DormerWindow.jpg","37","1","581"
"8","8","retrieval","new_objects","36","Computer_ExpansionCard.jpg","37","1","947"
"8","8","retrieval","old_objects","37","Earth_Planet.jpg","36","1","595"
"8","8","retrieval","old_objects","38","EyeDrops.jpg","37","0","818"
"8","8","retrieval","old_objects","39","Iguana.jpg","36","1","623"
"8","8","retrieval","new_objects","40","Sign_Taxi.jpg","37","1","540"
"8","8","retrieval","old_objects","41","Barbecue_Charcoal.jpg","36","1","589"
"8","8","retrieval","old_objects","42","ChessPiece_Bishop.jpg","36","1","532"
"8","8","retrieval","new_objects","43","OnionRed.jpg","37","1","716"
"8","8","retrieval","new_objects","44","Stroller.jpg","37","1","596"
"8","8","retrieval","old_objects","45","Machine_Bread.jpg","36","1","779"
"8","8","retrieval","old_objects","46","Toy_BearBrownPlushie.jpg","36","1","714"
"8","8","retrieval","new_objects","47","PropellerFan.jpg","37","1","619"
"8","8","retrieval","new_objects","48","Plate_Ceramic.jpg","37","1","511"
"8","8","retrieval","new_objects","49","Cord_Ethernet.jpg","37","1","680"
"8","8","retrieval","old_objects","50","Birdhouse.jpg","36","1","579"
"8","8","retrieval","old_objects","51","Slide.jpg","36","1","706"
"8","8","retrieval","old_objects","52","Waffle.jpg","36","1","556"
"8","8","retrieval","old_objects","53","House_Rural.jpg","36","1","700"
"8","8","retrieval","old_objects","54","Bag_Computer.jpg","36","1","606"
"8","8","retrieval","old_objects","55","Backpack_Suitcase.jpg","36","1","500"
"8","8","retrieval","old_objects","56","Ladybug.jpg","36","1","486"
"8","8","retrieval","old_objects","57","Can_Olives.jpg","36","1","560"
"8","8","retrieval","old_objects","58","ProjectorScreen.jpg","36","1","552"
"8","8","retrieval","old_objects","59","Cart_Janitor.jpg","36","1","592"
"8","8","retrieval","new_objects","60","Chairs_Stacked.jpg","37","1","510"
"8","8","retrieval","old_objects","62","TreeHouse.jpg","36","1","657"
"8","8","retrieval","new_objects","63","Light_Studio.jpg","37","1","652"
"8","8","retrieval","new_objects","64","Pipe_Drain.jpg","37","1","504"
"8","8","retrieval","old_objects","65","Bucket_Halloween.jpg","36","1","562"
"8","8","retrieval","new_objects","66","IceCubes copy.jpg","37","1","649"
"8","8","retrieval","old_objects","67","ReindeerHeadband.jpg","36","1","589"
"8","8","retrieval","new_objects","68","Cage_Bird.jpg","37","1","538"
"8","8","retrieval","new_objects","69","LampPost_ThreeBulbs.jpg","37","1","523"
"8","8","retrieval","old_objects","70","Cherry.jpg","36","1","540"
"8","8","retrieval","old_objects","71","PaperCutter.jpg","37","0","589"
"8","8","retrieval","new_objects","72","Blade_Tablesaw.jpg","37","1","595"
"8","8","retrieval","old_objects","73","Hook_Fish.jpg","36","1","618"
"8","8","retrieval","new_objects","74","Pliers_NeedleNose.jpg","37","1","943"
"8","8","retrieval","new_objects","75","Bird_Toucan.jpg","37","1","679"
"8","8","retrieval","new_objects","76","Jug_GallonRed.jpg","36","0","506"
"8","8","retrieval","old_objects","77","Desk_White.jpg","36","1","604"
"8","8","retrieval","old_objects","78","Foam_Accoustic.jpg","36","1","522"
"8","8","retrieval","new_objects","79","BicycleHandleGrip.jpg","37","1","522"
"8","8","retrieval","old_objects","80","Dog_SaintBernard.jpg","36","1","628"
"8","8","retrieval","new_objects","81","Funnel.jpg","37","1","521"
"8","8","retrieval","old_objects","82","Glove_Rubber.jpg","36","1","602"
"8","8","retrieval","new_objects","83","Plate_Decorative.jpg","37","1","528"
"8","8","retrieval","old_objects","84","Mattress.jpg","36","1","584"
"8","8","retrieval","new_objects","85","Sink_Bathroom.jpg","37","1","559"
"8","8","retrieval","old_objects","86","Clock_Digital.jpg","36","1","750"
"8","8","retrieval","new_objects","87","Window.jpg","37","1","518"
"8","8","retrieval","new_objects","88","Torpedo.jpg","37","1","536"
"8","8","retrieval","new_objects","89","Table_Side.jpg","36","0","648"
"8","8","retrieval","old_objects","90","Noisemaker_Streamers.jpg","36","1","564"
"8","8","retrieval","old_objects","91","Helmet_Motorcycle.jpg","37","0","571"
"8","8","retrieval","old_objects","92","Cymbals.jpg","36","1","530"
"8","8","retrieval","new_objects","93","Statue_Cat.jpg","36","0","547"
"8","8","retrieval","old_objects","94","Arch_Triomphe.jpg","36","1","627"
"8","8","retrieval","new_objects","95","Corn_Kernels.jpg","37","1","607"
"8","8","retrieval","new_objects","96","Makeup_Eyeshadow.jpg","36","0","541"
"8","8","retrieval","new_objects","97","LetterMail.jpg","37","1","629"
"8","8","retrieval","new_objects","98","ColoringSet.jpg","37","1","554"
"8","8","retrieval","old_objects","99","Bird_Tern.jpg","36","1","778"
"8","8","retrieval","new_objects","100","Statue_Man.jpg","37","1","552"
"8","8","retrieval","new_objects","101","DVDPlayer.jpg","37","1","544"
"8","8","retrieval","old_objects","102","Hat_Feather.jpg","36","1","608"
"8","8","retrieval","old_objects","103","Toy_Chicken.jpg","37","0","535"
"8","8","retrieval","old_objects","104","Lilypad.jpg","36","1","551"
"8","8","retrieval","new_objects","105","MeatGrinder.jpg","37","1","590"
"8","8","retrieval","new_objects","106","Nuts_PeanutsPeeled.jpg","36","0","509"
"8","8","retrieval","old_objects","107","RiceCooker.jpg","36","1","542"
"8","8","retrieval","old_objects","108","Olives.jpg","36","1","527"
