"group","subject","blockcode","trialcode","trialnum","values.stimulus","response","correct","latency"
"2","2","encoding","encoding","1","Cup_Styrofoam.jpg","37","0","1017"
"2","2","encoding","encoding","2","ButterChurn.jpg","37","0","1302"
"2","2","encoding","encoding","3","VialLab.jpg","37","0","541"
"2","2","encoding","encoding","4","NewspaperStack.jpg","37","0","1197"
"2","2","encoding","encoding","5","GPS.jpg","37","0","645"
"2","2","encoding","encoding","6","Drum_Ramadan.jpg","37","0","705"
"2","2","encoding","encoding","7","Flask_Metal.jpg","37","0","903"
"2","2","encoding","encoding","8","Bag_Groceries.jpg","37","0","1128"
"2","2","encoding","encoding","9","Shoes_Sneakers.jpg","37","0","522"
"2","2","encoding","encoding","10","Kettle.jpg","37","0","704"
"2","2","encoding","encoding","11","Decoration_Chinese.jpg","37","0","686"
"2","2","encoding","encoding","12","RickShaw.jpg","37","0","781"
"2","2","encoding","encoding","13","Cooler.jpg","37","0","893"
"2","2","encoding","encoding","14","DryingMachine.jpg","37","0","571"
"2","2","encoding","encoding","15","Bullet.jpg","37","0","836"
"2","2","encoding","encoding","16","Notebook.jpg","37","0","847"
"2","2","encoding","encoding","17","Mug_Travel.jpg","37","0","761"
"2","2","encoding","encoding","18","Chair_Rocking.jpg","37","0","453"
"2","2","encoding","encoding","19","GogglesSwim.jpg","37","0","466"
"2","2","encoding","encoding","20","Dreidel.jpg","37","0","486"
"2","2","encoding","encoding","21","Scoop_Flour.jpg","37","0","603"
"2","2","encoding","encoding","22","Plate_Wooden.jpg","37","0","539"
"2","2","encoding","encoding","23","Magnifying_Glass.jpg","37","0","517"
"2","2","encoding","encoding","24","Dill.jpg","37","0","612"
"2","2","encoding","encoding","25","KnifeHolder.jpg","37","0","535"
"2","2","encoding","encoding","26","Table_Conference.jpg","37","0","535"
"2","2","encoding","encoding","27","Sign_SpeedLimit30.jpg","37","0","1379"
"2","2","encoding","encoding","28","Staircase_Straight.jpg","37","0","660"
"2","2","encoding","encoding","29","Sandcastle.jpg","36","0","737"
"2","2","encoding","encoding","30","Mat_Door.jpg","37","0","1148"
"2","2","encoding","encoding","31","NetButterfly.jpg","37","0","764"
"2","2","encoding","encoding","32","Ship_Model.jpg","37","0","1294"
"2","2","encoding","encoding","33","Bottle_Spray.jpg","37","0","786"
"2","2","encoding","encoding","34","Shoe_Pink.jpg","37","0","620"
"2","2","encoding","encoding","35","Stove_WithOven.jpg","37","0","803"
"2","2","encoding","encoding","36","Lychee.jpg","36","0","1056"
"2","2","encoding","encoding","37","SpinningWheel.jpg","37","0","512"
"2","2","encoding","encoding","38","Toy_BlocksLetter.jpg","37","0","717"
"2","2","encoding","encoding","39","Distaff.jpg","37","0","731"
"2","2","encoding","encoding","40","HoseNozzle.jpg","37","0","712"
"2","2","encoding","encoding","41","Man.jpg","37","0","796"
"2","2","encoding","encoding","42","Toys_Lego.jpg","37","0","562"
"2","2","encoding","encoding","43","Watch.jpg","37","0","996"
"2","2","encoding","encoding","44","Trowel.jpg","37","0","562"
"2","2","encoding","encoding","45","MouthGuard.jpg","37","0","514"
"2","2","encoding","encoding","46","Skirt_Long.jpg","37","0","945"
"2","2","encoding","encoding","47","Backhoe.jpg","37","0","562"
"2","2","encoding","encoding","48","BrainSagittal.jpg","37","0","1231"
"2","2","encoding","encoding","49","Licorice.jpg","36","0","955"
"2","2","encoding","encoding","50","Toy_Witch.jpg","37","0","802"
"2","2","encoding","encoding","51","LawnMower.jpg","37","0","647"
"2","2","encoding","encoding","52","Shoes_Pumps.jpg","37","0","1441"
"2","2","encoding","encoding","53","ProcessorFood_Old.jpg","37","0","551"
"2","2","encoding","encoding","54","Bolt_WithNut.jpg","37","0","812"
"2","2","encoding","encoding","55","Case_WoodenOrnate.jpg","37","0","627"
"2","2","encoding","encoding","56","Tube.jpg","37","0","684"
"2","2","encoding","encoding","57","Celery.jpg","36","0","695"
"2","2","encoding","encoding","58","CandleSnuffer.jpg","0","0","2000"
"2","2","encoding","encoding","59","Jar_Cookie.jpg","37","0","1178"
"2","2","encoding","encoding","60","Feet.jpg","36","0","1106"
"2","2","encoding","encoding","62","Telephone_TinCan.jpg","37","0","838"
"2","2","encoding","encoding","63","SoapBottle.jpg","37","0","678"
"2","2","encoding","encoding","64","Bed_Hospital.jpg","37","0","862"
"2","2","encoding","encoding","65","Keychain_Leather.jpg","37","0","828"
"2","2","encoding","encoding","66","Altar.jpg","37","0","588"
"2","2","encoding","encoding","67","Bird_CanadianGoose.jpg","36","0","904"
"2","2","encoding","encoding","68","Ramekin.jpg","37","0","938"
"2","2","encoding","encoding","69","Sign_Wetfloor.jpg","37","0","881"
"2","2","encoding","encoding","70","Bus_School.jpg","37","0","619"
"2","2","encoding","encoding","71","Basket_Bread.jpg","37","0","1502"
"2","2","encoding","encoding","72","Tickets_Blank.jpg","37","0","957"
"2","2","encoding","encoding","73","Ghost.jpg","37","0","1037"
"2","2","encoding","encoding","74","AirCompressor.jpg","37","0","655"
"2","2","encoding","encoding","75","Pipe_Pitch.jpg","37","0","802"
"2","2","encoding","encoding","76","CraneMachine.jpg","37","0","869"
"2","2","encoding","encoding","77","Light_Traffic.jpg","37","0","1435"
"2","2","encoding","encoding","78","Playdoh.jpg","37","0","1575"
"2","2","encoding","encoding","79","Shoes_WomenBoots.jpg","37","0","961"
"2","2","encoding","encoding","80","GuineaPig.jpg","36","0","1525"
"2","2","encoding","encoding","81","ChainRusty.jpg","37","0","777"
"2","2","encoding","encoding","82","Pasta_Fusilli.jpg","36","0","1351"
"2","2","encoding","encoding","83","Toy_RockingHorseBeige.jpg","37","0","566"
"2","2","encoding","encoding","84","Goose_Canadian.jpg","36","0","689"
"2","2","encoding","encoding","85","Thermos_MetalSleek.jpg","37","0","718"
"2","2","encoding","encoding","86","Leek.jpg","36","0","964"
"2","2","encoding","encoding","87","Hotdog_WithBun.jpg","37","0","1381"
"2","2","encoding","encoding","88","Fork_Regular.jpg","37","0","985"
"2","2","encoding","encoding","89","RemoteControl.jpg","37","0","909"
"2","2","encoding","encoding","90","FuzzyDice.jpg","37","0","1192"
"2","2","encoding","encoding","91","Condom.jpg","37","0","1089"
"2","2","encoding","encoding","92","ManholeCover.jpg","37","0","895"
"2","2","encoding","encoding","93","Shrub_Boxwood.jpg","36","0","812"
"2","2","encoding","encoding","94","Hookah.jpg","37","0","911"
"2","2","encoding","encoding","95","Harmonica.jpg","37","0","585"
"2","2","encoding","encoding","96","DiaperChangingStation.jpg","37","0","733"
"2","2","encoding","encoding","97","Clamp.jpg","37","0","668"
"2","2","encoding","encoding","98","Lettuce_Iceberg.jpg","36","0","804"
"2","2","encoding","encoding","99","Level.jpg","37","0","664"
"2","2","encoding","encoding","100","PaintSprayer.jpg","37","0","1302"
"2","2","encoding","encoding","101","Fossil.jpg","36","0","837"
"2","2","encoding","encoding","102","Can_Peas.jpg","37","0","1042"
"2","2","encoding","encoding","103","HairBand.jpg","37","0","697"
"2","2","encoding","encoding","104","KeyHook_Empty.jpg","37","0","630"
"2","2","encoding","encoding","105","Noisemaker.jpg","37","0","712"
"2","2","encoding","encoding","106","RamAnimal.jpg","37","0","677"
"2","2","encoding","encoding","107","Brush_Shoe.jpg","37","0","545"
"2","2","encoding","encoding","108","Toy_Shapesorter.jpg","37","0","597"
"2","2","encoding","encoding","109","Mixer_Cement.jpg","37","0","778"
"2","2","encoding","encoding","110","PickupTruck.jpg","37","0","1630"
"2","2","encoding","encoding","111","Cup_Fruits.jpg","37","0","1543"
"2","2","encoding","encoding","112","Vest.jpg","37","0","608"
"2","2","encoding","encoding","113","Boat_Dinghy.jpg","37","0","648"
"2","2","encoding","encoding","114","Eraser.jpg","37","0","631"
"2","2","encoding","encoding","115","Brush_Paint.jpg","37","0","604"
"2","2","encoding","encoding","116","Bottle_Plastic.jpg","37","0","911"
"2","2","encoding","encoding","117","Bat_Baseball.jpg","37","0","1035"
"2","2","encoding","encoding","118","PeasSplit.jpg","36","0","1155"
"2","2","encoding","encoding","119","Otoscope.jpg","37","0","754"
"2","2","encoding","encoding","120","Bottle_Blue.jpg","37","0","695"
"2","2","encoding","encoding","121","sign_traffic.jpg","37","0","1157"
"2","2","encoding","encoding","123","Umbrella_Classic.jpg","37","0","787"
"2","2","encoding","encoding","124","Toy_DonkeyPlastic.jpg","37","0","762"
"2","2","encoding","encoding","125","Stone_Spa.jpg","36","0","1121"
"2","2","encoding","encoding","126","Suit_Women.jpg","37","0","496"
"2","2","encoding","encoding","127","Seashell_RoseMurex.jpg","36","0","622"
"2","2","encoding","encoding","128","CoolingFan_Engine2.jpg","37","0","829"
"2","2","encoding","encoding","129","DryRack_Dishes.jpg","37","0","788"
"2","2","encoding","encoding","130","Television.jpg","37","0","653"
"2","2","encoding","encoding","131","Boat_Trailer.jpg","37","0","686"
"2","2","encoding","encoding","132","OrigamiPaper.jpg","37","0","621"
"2","2","encoding","encoding","133","RecorderCassette.jpg","37","0","610"
"2","2","encoding","encoding","134","TowelRack_Metal.jpg","37","0","690"
"2","2","encoding","encoding","135","Grill_Electric.jpg","37","0","646"
"2","2","encoding","encoding","136","Toy_DollHomeMade.jpg","37","0","632"
"2","2","encoding","encoding","137","Flower_Daisy.jpg","36","0","777"
"2","2","encoding","encoding","138","Sculpture_MetalMan.jpg","37","0","557"
"2","2","encoding","encoding","139","Paratrooper.jpg","37","0","787"
"2","2","encoding","encoding","140","Tweezers.jpg","37","0","862"
"2","2","encoding","encoding","141","Mug_Beer.jpg","37","0","1051"
"2","2","encoding","encoding","142","Chicken_FriedWing.jpg","36","0","1619"
"2","2","encoding","encoding","143","Sign_HumpBridgeAhead.jpg","37","0","1561"
"2","2","encoding","encoding","144","Rock_Agate.jpg","36","0","950"
"2","2","encoding","encoding","145","PostageStamps.jpg","37","0","874"
"2","2","encoding","encoding","146","Pickle.jpg","36","0","1102"
"2","2","encoding","encoding","147","Steamroller.jpg","37","0","666"
"2","2","encoding","encoding","148","DentistOverheadLight.jpg","37","0","678"
"2","2","encoding","encoding","149","LampPost_WhiteOrnate.jpg","37","0","1150"
"2","2","encoding","encoding","150","Kangaroo.jpg","36","0","958"
"2","2","encoding","encoding","151","MannequinBust.jpg","37","0","694"
"2","2","encoding","encoding","152","Grape.jpg","37","0","1126"
"2","2","encoding","encoding","153","MeatRaw.jpg","36","0","1046"
"2","2","encoding","encoding","154","Suitcase.jpg","37","0","695"
"2","2","encoding","encoding","155","TimerKitchen.jpg","37","0","1243"
"2","2","encoding","encoding","156","MonkeyPuppet.jpg","37","0","492"
"2","2","encoding","encoding","157","Bat_Cricket.jpg","37","0","648"
"2","2","encoding","encoding","158","ElectricSwitchboard.jpg","37","0","561"
"2","2","encoding","encoding","159","Pouch_PotPourri.jpg","36","0","1091"
"2","2","encoding","encoding","160","OnionRings.jpg","37","0","1070"
"2","2","encoding","encoding","161","Glass_bottle.jpg","0","0","2000"
"2","2","encoding","encoding","162","LeafBlower.jpg","37","0","705"
"2","2","encoding","encoding","163","SaltShaker.jpg","37","0","1076"
"2","2","encoding","encoding","164","Razor.jpg","37","0","679"
"2","2","encoding","encoding","165","Steeple.jpg","37","0","719"
"2","2","encoding","encoding","166","Bomb.jpg","37","0","779"
"2","2","encoding","encoding","167","SoundMixer_White.jpg","37","0","537"
"2","2","encoding","encoding","168","Exercise_HandTrainer.jpg","37","0","562"
"2","2","encoding","encoding","169","HerbsInBag.jpg","36","0","1903"
"2","2","encoding","encoding","170","Hand.jpg","36","0","765"
"2","2","encoding","encoding","171","WaterColorPaintset.jpg","37","0","511"
"2","2","encoding","encoding","172","Sign_SpeedLimit25.jpg","37","0","705"
"2","2","encoding","encoding","173","Headset.jpg","37","0","778"
"2","2","encoding","encoding","174","ScannerShoplifting.jpg","37","0","627"
"2","2","encoding","encoding","175","Horn_Hunting.jpg","37","0","635"
"2","2","encoding","encoding","176","Sign_Airport.jpg","37","0","494"
"2","2","encoding","encoding","177","Igloo.jpg","37","0","1072"
"2","2","retrieval","old_objects","1","Light_Traffic.jpg","37","0","1844"
"2","2","retrieval","new_objects","2","BridgeWooden.jpg","36","0","1007"
"2","2","retrieval","new_objects","3","Oyster.jpg","37","1","1174"
"2","2","retrieval","old_objects","4","TowelRack_Metal.jpg","36","1","763"
"2","2","retrieval","old_objects","5","RemoteControl.jpg","36","1","1362"
"2","2","retrieval","new_objects","6","ScrewDriver.jpg","37","1","841"
"2","2","retrieval","new_objects","7","Candle_ChristmasDecor.jpg","37","1","854"
"2","2","retrieval","old_objects","8","OrigamiPaper.jpg","36","1","973"
"2","2","retrieval","old_objects","9","Tweezers.jpg","37","0","703"
"2","2","retrieval","old_objects","10","Toy_DollHomeMade.jpg","36","1","778"
"2","2","retrieval","old_objects","11","Pickle.jpg","36","1","535"
"2","2","retrieval","new_objects","12","Carbiner_Ascender.jpg","37","1","651"
"2","2","retrieval","old_objects","13","Bullet.jpg","36","1","1020"
"2","2","retrieval","old_objects","14","VialLab.jpg","36","1","662"
"2","2","retrieval","old_objects","15","Pipe_Pitch.jpg","36","1","769"
"2","2","retrieval","old_objects","16","Plate_Wooden.jpg","36","1","719"
"2","2","retrieval","new_objects","17","Shrub_Cedar.jpg","37","1","820"
"2","2","retrieval","old_objects","18","Man.jpg","37","0","774"
"2","2","retrieval","new_objects","19","Bed_ChildBirch.jpg","37","1","821"
"2","2","retrieval","old_objects","20","DryRack_Dishes.jpg","36","1","845"
"2","2","retrieval","old_objects","21","RamAnimal.jpg","36","1","883"
"2","2","retrieval","new_objects","22","Dog_Bulldog.jpg","37","1","651"
"2","2","retrieval","new_objects","23","Headphones.jpg","37","1","1170"
"2","2","retrieval","new_objects","24","Comb_1.jpg","37","1","683"
"2","2","retrieval","new_objects","25","Tape_Scotch.jpg","37","1","978"
"2","2","retrieval","new_objects","26","Shoe_Sneaker.jpg","37","1","592"
"2","2","retrieval","new_objects","27","Fireplace_Outdoor.jpg","37","1","653"
"2","2","retrieval","old_objects","28","Stove_WithOven.jpg","36","1","728"
"2","2","retrieval","old_objects","29","Shoes_Sneakers.jpg","36","1","477"
"2","2","retrieval","old_objects","30","Igloo.jpg","36","1","533"
"2","2","retrieval","old_objects","31","Distaff.jpg","36","1","643"
"2","2","retrieval","old_objects","32","Celery.jpg","36","1","757"
"2","2","retrieval","old_objects","33","ManholeCover.jpg","36","1","658"
"2","2","retrieval","new_objects","34","Spider.jpg","37","1","535"
"2","2","retrieval","new_objects","35","Boombox.jpg","37","1","601"
"2","2","retrieval","old_objects","36","SoapBottle.jpg","36","1","857"
"2","2","retrieval","new_objects","37","Drum_Conga.jpg","37","1","812"
"2","2","retrieval","old_objects","38","Magnifying_Glass.jpg","36","1","744"
"2","2","retrieval","new_objects","39","Hat_Tuque.jpg","37","1","785"
"2","2","retrieval","old_objects","40","Mixer_Cement.jpg","36","1","727"
"2","2","retrieval","old_objects","41","LampPost_WhiteOrnate.jpg","36","1","653"
"2","2","retrieval","new_objects","42","ColumnMarble.jpg","37","1","611"
"2","2","retrieval","new_objects","43","Knife_Kitchen.jpg","37","1","661"
"2","2","retrieval","old_objects","44","Mug_Beer.jpg","37","0","724"
"2","2","retrieval","old_objects","45","Stone_Spa.jpg","36","1","571"
"2","2","retrieval","old_objects","46","SoundMixer_White.jpg","36","1","603"
"2","2","retrieval","new_objects","47","Airplane_Commercial.jpg","37","1","1386"
"2","2","retrieval","old_objects","48","Flask_Metal.jpg","36","1","1219"
"2","2","retrieval","old_objects","49","Toys_Lego.jpg","36","1","821"
"2","2","retrieval","old_objects","50","Sculpture_MetalMan.jpg","36","1","1098"
"2","2","retrieval","old_objects","51","Bottle_Spray.jpg","37","0","891"
"2","2","retrieval","old_objects","52","Ghost.jpg","36","1","714"
"2","2","retrieval","old_objects","53","SaltShaker.jpg","36","1","637"
"2","2","retrieval","new_objects","54","Box_GiftTopView.jpg","37","1","930"
"2","2","retrieval","new_objects","55","BuildingChinese.jpg","37","1","667"
"2","2","retrieval","old_objects","56","Hookah.jpg","36","1","883"
"2","2","retrieval","new_objects","57","Sieve_SideView.jpg","37","1","807"
"2","2","retrieval","new_objects","58","Thermos_Decorated.jpg","37","1","705"
"2","2","retrieval","new_objects","59","Cabasa.jpg","37","1","681"
"2","2","retrieval","old_objects","60","Harmonica.jpg","36","1","636"
"2","2","retrieval","old_objects","62","NewspaperStack.jpg","36","1","883"
"2","2","retrieval","new_objects","63","Cannon.jpg","37","1","741"
"2","2","retrieval","new_objects","64","Wheelbarrow_Green.jpg","0","0","2000"
"2","2","retrieval","old_objects","65","Basket_Bread.jpg","36","1","872"
"2","2","retrieval","new_objects","66","Speaker_Computer.jpg","37","1","712"
"2","2","retrieval","new_objects","67","Squash_Pumpkin.jpg","36","0","727"
"2","2","retrieval","old_objects","68","Telephone_TinCan.jpg","36","1","979"
"2","2","retrieval","new_objects","69","Toy_Slinky.jpg","37","1","580"
"2","2","retrieval","new_objects","70","Lemon.jpg","37","1","913"
"2","2","retrieval","old_objects","71","RecorderCassette.jpg","36","1","889"
"2","2","retrieval","new_objects","72","Cord_usb.jpg","37","1","839"
"2","2","retrieval","new_objects","73","Tape_Washi.jpg","37","1","717"
"2","2","retrieval","new_objects","74","BinRecycling.jpg","37","1","979"
"2","2","retrieval","new_objects","75","DartBoard.jpg","37","1","590"
"2","2","retrieval","old_objects","76","CoolingFan_Engine2.jpg","37","0","1463"
"2","2","retrieval","old_objects","77","PostageStamps.jpg","36","1","864"
"2","2","retrieval","old_objects","78","DentistOverheadLight.jpg","37","0","1096"
"2","2","retrieval","new_objects","79","Pumpkin.jpg","37","1","1095"
"2","2","retrieval","old_objects","80","Bat_Cricket.jpg","0","0","2000"
"2","2","retrieval","new_objects","81","Bus_DoubleDecker.jpg","37","1","669"
"2","2","retrieval","new_objects","82","Ruler_Wooden.jpg","37","1","624"
"2","2","retrieval","new_objects","83","FortuneCookie.jpg","37","1","739"
"2","2","retrieval","new_objects","84","Hat_Hard.jpg","37","1","744"
"2","2","retrieval","old_objects","85","Chicken_FriedWing.jpg","37","0","812"
"2","2","retrieval","old_objects","86","KnifeHolder.jpg","36","1","1222"
"2","2","retrieval","old_objects","87","Toy_RockingHorseBeige.jpg","36","1","664"
"2","2","retrieval","old_objects","88","WaterColorPaintset.jpg","36","1","795"
"2","2","retrieval","old_objects","89","Vest.jpg","36","1","648"
"2","2","retrieval","new_objects","90","PillBottle_Prescription.jpg","37","1","1080"
"2","2","retrieval","new_objects","91","Carrot.jpg","37","1","916"
"2","2","retrieval","new_objects","92","Bread_Loaf.jpg","36","0","595"
"2","2","retrieval","new_objects","93","RecorderInstrument.jpg","37","1","696"
"2","2","retrieval","old_objects","94","Headset.jpg","37","0","646"
"2","2","retrieval","new_objects","95","Keychain_Metal.jpg","37","1","791"
"2","2","retrieval","old_objects","96","Umbrella_Classic.jpg","36","1","706"
"2","2","retrieval","new_objects","97","Scooter.jpg","37","1","1089"
"2","2","retrieval","new_objects","98","Statue_Head.jpg","37","1","831"
"2","2","retrieval","old_objects","99","NetButterfly.jpg","36","1","813"
"2","2","retrieval","old_objects","100","Can_Peas.jpg","36","1","600"
"2","2","retrieval","new_objects","101","Car_Sedan.jpg","37","1","567"
"2","2","retrieval","old_objects","102","Grape.jpg","36","1","687"
"2","2","retrieval","old_objects","103","Bolt_WithNut.jpg","36","1","795"
"2","2","retrieval","new_objects","104","Toy_Octopus.jpg","37","1","712"
"2","2","retrieval","old_objects","105","Fossil.jpg","36","1","858"
"2","2","retrieval","new_objects","106","Container_RedPlastic.jpg","36","0","1038"
"2","2","retrieval","new_objects","107","Compact_Powder.jpg","37","1","679"
"2","2","retrieval","old_objects","108","Notebook.jpg","37","0","604"
"2","2","retrieval","old_objects","109","Sign_Airport.jpg","36","1","769"
"2","2","retrieval","new_objects","110","Jar_JellyBeans.jpg","37","1","670"
"2","2","retrieval","new_objects","111","Airplane_Fighter.jpg","37","1","1103"
"2","2","retrieval","old_objects","112","Toy_DonkeyPlastic.jpg","36","1","828"
"2","2","retrieval","new_objects","113","Glass_Beer.jpg","37","1","794"
"2","2","retrieval","new_objects","114","DonaldDuck_Toy.jpg","37","1","655"
"2","2","retrieval","new_objects","115","Plunger.jpg","0","0","2000"
"2","2","retrieval","old_objects","116","Pasta_Fusilli.jpg","36","1","823"
"2","2","retrieval","old_objects","117","Table_Conference.jpg","36","1","840"
"2","2","retrieval","old_objects","118","Bomb.jpg","36","1","830"
"2","2","retrieval","new_objects","119","Bird_Falcon.jpg","37","1","530"
"2","2","retrieval","old_objects","120","HerbsInBag.jpg","36","1","588"
"2","2","retrieval","new_objects","121","Box_Chocolate.jpg","37","1","596"
"2","2","retrieval","old_objects","123","Seashell_RoseMurex.jpg","36","1","602"
"2","2","retrieval","old_objects","124","Lettuce_Iceberg.jpg","36","1","615"
"2","2","retrieval","old_objects","125","Leek.jpg","36","1","569"
"2","2","retrieval","old_objects","126","Cooler.jpg","37","0","544"
"2","2","retrieval","new_objects","127","Helmet_Football.jpg","37","1","568"
"2","2","retrieval","old_objects","128","CraneMachine.jpg","37","0","625"
"2","2","retrieval","new_objects","129","Boots_KneeHigh.jpg","36","0","557"
"2","2","retrieval","old_objects","130","Bottle_Blue.jpg","36","1","745"
"2","2","retrieval","new_objects","131","TeethMould.jpg","37","1","654"
"2","2","retrieval","new_objects","132","Toy_BlocksPlastic Colourful.jpg","37","1","814"
"2","2","retrieval","new_objects","133","Sandwich_Egg.jpg","37","1","874"
"2","2","retrieval","old_objects","134","Tube.jpg","36","1","796"
"2","2","retrieval","old_objects","135","Boat_Dinghy.jpg","36","1","718"
"2","2","retrieval","old_objects","136","Flower_Daisy.jpg","36","1","645"
"2","2","retrieval","old_objects","137","Keychain_Leather.jpg","37","0","634"
"2","2","retrieval","new_objects","138","Bindings_Snowboard.jpg","37","1","796"
"2","2","retrieval","new_objects","139","SledgeHammer.jpg","37","1","913"
"2","2","retrieval","old_objects","140","AirCompressor.jpg","37","0","917"
"2","2","retrieval","old_objects","141","Case_WoodenOrnate.jpg","36","1","1544"
"2","2","retrieval","old_objects","142","MeatRaw.jpg","36","1","613"
"2","2","retrieval","old_objects","143","Goose_Canadian.jpg","37","0","744"
"2","2","retrieval","old_objects","144","Altar.jpg","37","0","663"
"2","2","retrieval","new_objects","145","Fortress.jpg","37","1","609"
"2","2","retrieval","old_objects","146","Glass_bottle.jpg","37","0","1414"
"2","2","retrieval","new_objects","147","Gloves_Winter.jpg","37","1","1079"
"2","2","retrieval","new_objects","148","MilkPitcher.jpg","37","1","621"
"2","2","retrieval","old_objects","149","MouthGuard.jpg","36","1","761"
"2","2","retrieval","old_objects","150","Noisemaker.jpg","36","1","797"
"2","2","retrieval","new_objects","151","MemoPaperSpike.jpg","37","1","743"
"2","2","retrieval","new_objects","152","Guitarcase.jpg","37","1","920"
"2","2","retrieval","new_objects","153","Pot_BlackOld.jpg","37","1","535"
"2","2","retrieval","new_objects","154","Mallet.jpg","37","1","711"
"2","2","retrieval","old_objects","155","Dreidel.jpg","36","1","554"
"2","2","retrieval","new_objects","156","PirateFlag.jpg","36","0","588"
"2","2","retrieval","old_objects","157","Drum_Ramadan.jpg","36","1","1148"
"2","2","retrieval","old_objects","158","HairBand.jpg","36","1","854"
"2","2","retrieval","old_objects","159","Steeple.jpg","37","0","756"
"2","2","retrieval","new_objects","160","Speaker_OnStand.jpg","36","0","665"
"2","2","retrieval","new_objects","161","Light_PostIsolated.jpg","37","1","616"
"2","2","retrieval","new_objects","162","Cleaver_Meat.jpg","37","1","621"
"2","2","retrieval","new_objects","163","MatchBook.jpg","37","1","596"
"2","2","retrieval","old_objects","164","ButterChurn.jpg","36","1","1097"
"2","2","retrieval","new_objects","165","PedestalGreek.jpg","37","1","769"
"2","2","retrieval","new_objects","166","Toy_RockingHorseBlack.jpg","37","1","462"
"2","2","retrieval","old_objects","167","Tickets_Blank.jpg","36","1","892"
"2","2","retrieval","old_objects","168","Television.jpg","37","0","855"
"2","2","retrieval","new_objects","169","Bread_Carrot.jpg","37","1","729"
"2","2","retrieval","old_objects","170","Dill.jpg","36","1","621"
"2","2","retrieval","new_objects","171","MannequinHead.jpg","37","1","604"
"2","2","retrieval","new_objects","172","Balalaika.jpg","37","1","746"
"2","2","retrieval","old_objects","173","Pouch_PotPourri.jpg","36","1","548"
"2","2","retrieval","new_objects","174","Ambulance.jpg","37","1","649"
"2","2","retrieval","new_objects","175","PeriodicTable.jpg","37","1","714"
"2","2","retrieval","new_objects","176","Trash_Medical.jpg","37","1","691"
"2","2","retrieval","new_objects","177","Statue_SouthAmerican.jpg","37","1","861"
"2","2","retrieval","new_objects","178","Backpack_Travel.jpg","37","1","671"
"2","2","retrieval","old_objects","179","FuzzyDice.jpg","37","0","784"
"2","2","retrieval","old_objects","180","Ramekin.jpg","36","1","929"
"2","2","retrieval","old_objects","181","Licorice.jpg","36","1","1019"
"2","2","retrieval","new_objects","182","Heater_Outdoor.jpg","37","1","659"
"2","2","retrieval","new_objects","184","Toy_Train.jpg","37","1","638"
"2","2","retrieval","old_objects","185","CandleSnuffer.jpg","37","0","662"
"2","2","retrieval","new_objects","186","Toy_Helicopter.jpg","37","1","698"
"2","2","retrieval","new_objects","187","Cologne.jpg","37","1","643"
"2","2","retrieval","new_objects","188","Clock_Wall.jpg","37","1","774"
"2","2","retrieval","old_objects","189","Brush_Shoe.jpg","37","0","1105"
"2","2","retrieval","old_objects","190","Shoes_WomenBoots.jpg","36","1","679"
"2","2","retrieval","new_objects","191","Brush_Nail.jpg","37","1","573"
"2","2","retrieval","new_objects","192","DJMixer.jpg","37","1","779"
"2","2","retrieval","new_objects","193","Hulahoop.jpg","37","1","598"
"2","2","retrieval","new_objects","194","Hockey_Puck.jpg","37","1","728"
"2","2","retrieval","new_objects","195","Chair_PlasticGreen.jpg","37","1","587"
"2","2","retrieval","new_objects","196","Camera_Digital.jpg","37","1","740"
"2","2","retrieval","new_objects","197","Lettuce_Romaine.jpg","36","0","614"
"2","2","retrieval","new_objects","198","Plum.jpg","37","1","580"
"2","2","retrieval","old_objects","199","Kangaroo.jpg","36","1","588"
"2","2","retrieval","new_objects","200","TomatoSauce.jpg","37","1","568"
"2","2","retrieval","old_objects","201","SpinningWheel.jpg","36","1","645"
"2","2","retrieval","new_objects","202","Bicycle_Adult.jpg","37","1","627"
"2","2","retrieval","new_objects","203","AirVent.jpg","37","1","720"
"2","2","retrieval","old_objects","204","Watch.jpg","36","1","630"
"2","2","retrieval","new_objects","205","FireExtinguisher.jpg","37","1","653"
"2","2","retrieval","new_objects","206","Socks_Winter.jpg","37","1","687"
"2","2","retrieval","new_objects","207","Jar_Strawberry.jpg","36","0","617"
"2","2","retrieval","new_objects","208","Toy_RaceTrack.jpg","37","1","565"
"2","2","retrieval","old_objects","209","Staircase_Straight.jpg","37","0","429"
"2","2","retrieval","new_objects","210","Hat_Cowboy.jpg","37","1","761"
"2","2","retrieval","new_objects","211","Banana.jpg","37","1","921"
"2","2","retrieval","new_objects","212","Envelope_Manila.jpg","37","1","689"
"2","2","retrieval","old_objects","213","Toy_BlocksLetter.jpg","37","0","727"
"2","2","retrieval","new_objects","214","Wontons.jpg","36","0","689"
"2","2","retrieval","new_objects","215","Canister_Tea.jpg","37","1","654"
"2","2","retrieval","new_objects","216","Partition.jpg","37","1","679"
"2","2","retrieval","new_objects","217","Shoes_Snowboarding.jpg","37","1","678"
"2","2","retrieval","old_objects","218","Thermos_MetalSleek.jpg","36","1","667"
"2","2","retrieval","old_objects","219","Kettle.jpg","36","1","512"
"2","2","retrieval","new_objects","220","Star.jpg","37","1","557"
"2","2","retrieval","old_objects","221","LeafBlower.jpg","37","0","512"
"2","2","retrieval","old_objects","222","Cup_Fruits.jpg","36","1","570"
"2","2","retrieval","old_objects","223","Sign_SpeedLimit30.jpg","36","1","471"
"2","2","retrieval","new_objects","224","Nail.jpg","37","1","632"
"2","2","retrieval","old_objects","225","Lychee.jpg","36","1","722"
"2","2","retrieval","new_objects","226","SmokingPipe.jpg","37","1","687"
"2","2","retrieval","old_objects","227","Otoscope.jpg","37","0","586"
"2","2","retrieval","old_objects","228","Bag_Groceries.jpg","36","1","725"
"2","2","retrieval","old_objects","229","Sign_HumpBridgeAhead.jpg","37","0","691"
"2","2","retrieval","new_objects","230","Brooch_Fish.jpg","36","0","436"
"2","2","retrieval","new_objects","231","Zucchini.jpg","36","0","572"
"2","2","retrieval","old_objects","232","ProcessorFood_Old.jpg","37","0","413"
"2","2","retrieval","new_objects","233","WaterFountain.jpg","37","1","521"
"2","2","retrieval","new_objects","234","Toolbox_BlackOpen.jpg","37","1","493"
"2","2","retrieval","new_objects","235","Envelope_Letter.jpg","37","1","688"
"2","2","retrieval","old_objects","236","Mat_Door.jpg","37","0","467"
"2","2","retrieval","old_objects","237","Clamp.jpg","37","0","378"
"2","2","retrieval","new_objects","238","Toy_Babydoll.jpg","37","1","564"
"2","2","retrieval","old_objects","239","Ship_Model.jpg","37","0","438"
"2","2","retrieval","old_objects","240","Toy_Witch.jpg","37","0","646"
"2","2","retrieval","new_objects","241","Pineapple.jpg","37","1","703"
"2","2","retrieval","old_objects","242","Condom.jpg","36","1","565"
"2","2","retrieval","new_objects","243","Bowl_Glass.jpg","37","1","687"
"2","2","retrieval","old_objects","245","Shrub_Boxwood.jpg","36","1","620"
"2","2","retrieval","new_objects","246","Chicken_Raw.jpg","37","1","563"
"2","2","retrieval","new_objects","247","Chicken_Dinner.jpg","37","1","587"
"2","2","retrieval","new_objects","248","Speakers_Theatre.jpg","37","1","603"
"2","2","retrieval","new_objects","249","Sign_Caution.jpg","37","1","590"
"2","2","retrieval","new_objects","250","ControlPanel.jpg","37","1","661"
"2","2","retrieval","new_objects","251","Apple_RedAndGreen.jpg","37","1","650"
"2","2","retrieval","old_objects","252","PaintSprayer.jpg","37","0","528"
"2","2","retrieval","new_objects","253","MetalDetector.jpg","36","0","578"
"2","2","retrieval","new_objects","254","Bowl_Cereal.jpg","37","1","1615"
"2","2","retrieval","new_objects","255","Cassette_Audio.jpg","37","1","596"
"2","2","retrieval","new_objects","256","Tape_Clear.jpg","37","1","640"
"2","2","retrieval","new_objects","257","Puffin.jpg","37","1","597"
"2","2","retrieval","old_objects","258","PeasSplit.jpg","36","1","537"
"2","2","retrieval","old_objects","259","Sandcastle.jpg","36","1","372"
"2","2","retrieval","new_objects","260","Fan_Blades.jpg","37","1","556"
"2","2","retrieval","old_objects","261","Paratrooper.jpg","37","0","528"
"2","2","retrieval","old_objects","262","RickShaw.jpg","36","1","628"
"2","2","retrieval","old_objects","263","LawnMower.jpg","36","1","546"
"2","2","retrieval","old_objects","264","Level.jpg","36","1","671"
"2","2","retrieval","old_objects","265","Steamroller.jpg","37","0","941"
"2","2","retrieval","new_objects","266","Toy_Shark.jpg","37","1","612"
"2","2","retrieval","new_objects","267","Camera_Antique.jpg","37","1","562"
"2","2","retrieval","new_objects","268","Pot_TurkishCoffee.jpg","37","1","887"
"2","2","retrieval","old_objects","269","Fork_Regular.jpg","37","0","690"
"2","2","retrieval","old_objects","270","DryingMachine.jpg","36","1","598"
"2","2","retrieval","new_objects","271","Noose.jpg","37","1","695"
"2","2","retrieval","old_objects","272","Bed_Hospital.jpg","36","1","462"
"2","2","retrieval","old_objects","273","Cup_Styrofoam.jpg","36","1","503"
"2","2","retrieval","old_objects","274","Rock_Agate.jpg","36","1","587"
"2","2","retrieval","old_objects","275","sign_traffic.jpg","36","1","463"
"2","2","retrieval","old_objects","276","Suitcase.jpg","37","0","522"
"2","2","retrieval","old_objects","277","Sign_SpeedLimit25.jpg","36","1","636"
"2","2","retrieval","new_objects","278","MassageRoller.jpg","37","1","510"
"2","2","retrieval","old_objects","279","OnionRings.jpg","37","0","448"
"2","2","retrieval","new_objects","280","Mask_Masquerade.jpg","37","1","744"
"2","2","retrieval","old_objects","281","Hotdog_WithBun.jpg","36","1","657"
"2","2","retrieval","new_objects","282","Crossbow.jpg","37","1","642"
"2","2","retrieval","old_objects","283","Feet.jpg","37","0","568"
"2","2","retrieval","old_objects","284","ScannerShoplifting.jpg","37","0","530"
"2","2","retrieval","old_objects","285","Toy_Shapesorter.jpg","36","1","687"
"2","2","retrieval","old_objects","286","Horn_Hunting.jpg","37","0","601"
"2","2","retrieval","old_objects","287","Trowel.jpg","36","1","568"
"2","2","retrieval","old_objects","288","Playdoh.jpg","36","1","526"
"2","2","retrieval","new_objects","289","Organ.jpg","36","0","454"
"2","2","retrieval","new_objects","290","Toy_Drill.jpg","36","0","571"
"2","2","retrieval","new_objects","291","Soap.jpg","37","1","493"
"2","2","retrieval","new_objects","292","Mask_Viking.jpg","37","1","460"
"2","2","retrieval","new_objects","293","Dolphine.jpg","36","0","454"
"2","2","retrieval","old_objects","294","Shoes_Pumps.jpg","37","0","482"
"2","2","retrieval","new_objects","295","SculptureMetalFish.jpg","36","0","427"
"2","2","retrieval","new_objects","296","LightBulb_White.jpg","37","1","529"
"2","2","retrieval","old_objects","297","Bus_School.jpg","36","1","578"
"2","2","retrieval","new_objects","298","Ruler_Digital.jpg","37","1","563"
"2","2","retrieval","old_objects","299","TimerKitchen.jpg","37","0","395"
"2","2","retrieval","old_objects","300","Mug_Travel.jpg","36","1","564"
"2","2","retrieval","new_objects","301","InflatableSleepingBag.jpg","36","0","513"
"2","2","retrieval","old_objects","302","Bottle_Plastic.jpg","36","1","510"
"2","2","retrieval","new_objects","303","Bread_Roll.jpg","37","1","445"
"2","2","retrieval","new_objects","304","TowerEiffel.jpg","37","1","913"
"2","2","retrieval","old_objects","306","GPS.jpg","37","0","621"
"2","2","retrieval","old_objects","307","Skirt_Long.jpg","36","1","595"
"2","2","retrieval","new_objects","308","Knife_Butter.jpg","36","0","438"
"2","2","retrieval","new_objects","309","Wire_Soldering.jpg","37","1","552"
"2","2","retrieval","old_objects","310","ChainRusty.jpg","36","1","756"
"2","2","retrieval","old_objects","311","Suit_Women.jpg","36","1","589"
"2","2","retrieval","old_objects","312","Boat_Trailer.jpg","36","1","569"
"2","2","retrieval","new_objects","313","JumpingJack.jpg","37","1","531"
"2","2","retrieval","new_objects","314","KeyHook_Occupied.jpg","37","1","586"
"2","2","retrieval","old_objects","315","Decoration_Chinese.jpg","37","0","591"
"2","2","retrieval","old_objects","316","Exercise_HandTrainer.jpg","36","1","584"
"2","2","retrieval","old_objects","317","Razor.jpg","36","1","649"
"2","2","retrieval","new_objects","318","Cantaloupe.jpg","36","0","462"
"2","2","retrieval","new_objects","319","Clock_Interior.jpg","37","1","352"
"2","2","retrieval","old_objects","320","Scoop_Flour.jpg","37","0","415"
"2","2","retrieval","new_objects","321","Kite_Rainbow.jpg","36","0","571"
"2","2","retrieval","old_objects","322","Chair_Rocking.jpg","36","1","578"
"2","2","retrieval","old_objects","323","Bird_CanadianGoose.jpg","36","1","530"
"2","2","retrieval","old_objects","324","GuineaPig.jpg","36","1","529"
"2","2","retrieval","old_objects","325","Shoe_Pink.jpg","37","0","438"
"2","2","retrieval","new_objects","326","ComputerKey_Escape.jpg","37","1","482"
"2","2","retrieval","old_objects","327","KeyHook_Empty.jpg","37","0","467"
"2","2","retrieval","new_objects","328","FlashlightHeadBand.jpg","36","0","528"
"2","2","retrieval","old_objects","329","HoseNozzle.jpg","37","0","420"
"2","2","retrieval","new_objects","330","Humidifier.jpg","36","0","478"
"2","2","retrieval","old_objects","331","Grill_Electric.jpg","37","0","621"
"2","2","retrieval","new_objects","332","Lunchbox.jpg","37","1","346"
"2","2","retrieval","new_objects","333","JuiceBox.jpg","37","1","646"
"2","2","retrieval","new_objects","334","Pants.jpg","37","1","522"
"2","2","retrieval","new_objects","335","Ladle.jpg","37","1","545"
"2","2","retrieval","old_objects","336","Eraser.jpg","37","0","537"
"2","2","retrieval","new_objects","337","Jet.jpg","37","1","647"
"2","2","retrieval","old_objects","338","GogglesSwim.jpg","36","1","570"
"2","2","retrieval","old_objects","339","BrainSagittal.jpg","36","1","485"
"2","2","retrieval","old_objects","340","MonkeyPuppet.jpg","36","1","537"
"2","2","retrieval","old_objects","341","ElectricSwitchboard.jpg","37","0","470"
"2","2","retrieval","new_objects","342","Flower_Crane.jpg","37","1","545"
"2","2","retrieval","new_objects","343","Stool_Foot.jpg","37","1","589"
"2","2","retrieval","old_objects","344","Backhoe.jpg","36","1","520"
"2","2","retrieval","new_objects","345","Sink_Kitchen.jpg","36","0","387"
"2","2","retrieval","old_objects","346","Brush_Paint.jpg","37","0","564"
"2","2","retrieval","new_objects","347","Colosseum.jpg","37","1","670"
"2","2","retrieval","old_objects","348","DiaperChangingStation.jpg","36","1","562"
"2","2","retrieval","new_objects","349","Toy_StackingRing.jpg","36","0","462"
"2","2","retrieval","old_objects","350","MannequinBust.jpg","36","1","454"
"2","2","retrieval","old_objects","351","Bat_Baseball.jpg","36","1","457"
"2","2","retrieval","old_objects","352","Jar_Cookie.jpg","36","1","563"
"2","2","retrieval","old_objects","353","Sign_Wetfloor.jpg","36","1","696"
"2","2","retrieval","old_objects","354","Hand.jpg","37","0","927"
"2","2","retrieval","old_objects","355","PickupTruck.jpg","36","1","492"
"2","2","demographics_block","gender","1","PickupTruck.jpg","Female ","1","18482"
"2","2","demographics_block","age","1","PickupTruck.jpg","29","1","18482"
"2","2","demographics_block","education","1","PickupTruck.jpg","18","1","18482"
"2","2","demographics_block","left_right_handed","2","PickupTruck.jpg","Right","1","11056"
"2","2","demographics_block","raceoption1","2","PickupTruck.jpg","0","1","11056"
"2","2","demographics_block","raceoption2","2","PickupTruck.jpg","","1","11056"
"2","2","demographics_block","raceoption3","2","PickupTruck.jpg","","1","11056"
"2","2","demographics_block","raceoption4","2","PickupTruck.jpg","","1","11056"
"2","2","demographics_block","raceoption5","2","PickupTruck.jpg","","1","11056"
"2","2","demographics_block","raceoption6","2","PickupTruck.jpg","","1","11056"
"2","2","demographics_block","raceoption7","2","PickupTruck.jpg","","1","11056"
"2","2","demographics_block","raceoption8","2","PickupTruck.jpg","","1","11056"
"2","2","demographics_block","raceoption9","2","PickupTruck.jpg","","1","11056"
"2","2","demographics_block","raceother","2","PickupTruck.jpg","","1","11056"
"2","2","demographics_block","raceother","2","PickupTruck.jpg","","1","11056"
"2","2","demographics_block","english_language","2","PickupTruck.jpg","Yes","1","11056"
"2","2","demographics_block","english_languageother","2","PickupTruck.jpg","","1","11056"
"2","2","demographics_block","eyesight","3","PickupTruck.jpg","Yes","1","3342"
"2","2","demographics_block","colorblind","3","PickupTruck.jpg","No","1","3342"
"2","2","worker_id_block","worker_id_textbox","1","PickupTruck.jpg","AUR5KDE75HSZ9","1","37070"
"4","4","encoding","encoding","1","DentistOverheadLight.jpg","37","0","1035"
"4","4","encoding","encoding","2","Sign_SpeedLimit30.jpg","37","0","824"
"4","4","encoding","encoding","3","Sign_HumpBridgeAhead.jpg","37","0","741"
"4","4","encoding","encoding","4","Paratrooper.jpg","37","0","765"
"4","4","encoding","encoding","5","Toy_Witch.jpg","37","0","862"
"4","4","encoding","encoding","6","Tickets_Blank.jpg","37","0","851"
"4","4","encoding","encoding","7","HairBand.jpg","37","0","658"
"4","4","encoding","encoding","8","FuzzyDice.jpg","37","0","722"
"4","4","encoding","encoding","9","Brush_Paint.jpg","37","0","575"
"4","4","encoding","encoding","10","MouthGuard.jpg","37","0","628"
"4","4","encoding","encoding","11","Can_Peas.jpg","36","0","1479"
"4","4","encoding","encoding","12","Boat_Dinghy.jpg","37","0","745"
"4","4","encoding","encoding","13","Television.jpg","37","0","630"
"4","4","encoding","encoding","14","Lychee.jpg","36","0","940"
"4","4","encoding","encoding","15","Vest.jpg","37","0","622"
"4","4","encoding","encoding","16","RickShaw.jpg","37","0","716"
"4","4","encoding","encoding","17","Ramekin.jpg","37","0","735"
"4","4","encoding","encoding","18","Table_Conference.jpg","37","0","667"
"4","4","encoding","encoding","19","Shoes_Pumps.jpg","37","0","610"
"4","4","encoding","encoding","20","Shoes_WomenBoots.jpg","37","0","454"
"4","4","encoding","encoding","21","Ghost.jpg","37","0","661"
"4","4","encoding","encoding","22","Fork_Regular.jpg","37","0","602"
"4","4","encoding","encoding","23","Boat_Trailer.jpg","37","0","530"
"4","4","encoding","encoding","24","Toy_BlocksLetter.jpg","37","0","663"
"4","4","encoding","encoding","25","Case_WoodenOrnate.jpg","37","0","625"
"4","4","encoding","encoding","26","PostageStamps.jpg","37","0","767"
"4","4","encoding","encoding","27","WaterColorPaintset.jpg","37","0","1181"
"4","4","encoding","encoding","28","MannequinBust.jpg","37","0","599"
"4","4","encoding","encoding","29","Watch.jpg","37","0","677"
"4","4","encoding","encoding","30","Suit_Women.jpg","37","0","534"
"4","4","encoding","encoding","31","Bird_CanadianGoose.jpg","37","0","509"
"4","4","encoding","encoding","32","MonkeyPuppet.jpg","37","0","628"
"4","4","encoding","encoding","33","Telephone_TinCan.jpg","37","0","1229"
"4","4","encoding","encoding","34","HerbsInBag.jpg","36","0","957"
"4","4","encoding","encoding","35","Man.jpg","37","0","664"
"4","4","encoding","encoding","36","Bed_Hospital.jpg","37","0","739"
"4","4","encoding","encoding","37","Cup_Fruits.jpg","36","0","875"
"4","4","encoding","encoding","38","NetButterfly.jpg","37","0","983"
"4","4","encoding","encoding","39","Flower_Daisy.jpg","36","0","838"
"4","4","encoding","encoding","40","Kettle.jpg","37","0","556"
"4","4","encoding","encoding","41","Sandcastle.jpg","36","0","997"
"4","4","encoding","encoding","42","Distaff.jpg","37","0","586"
"4","4","encoding","encoding","43","PickupTruck.jpg","37","0","652"
"4","4","encoding","encoding","44","Pickle.jpg","36","0","897"
"4","4","encoding","encoding","45","Tweezers.jpg","37","0","758"
"4","4","encoding","encoding","46","TowelRack_Metal.jpg","37","0","649"
"4","4","encoding","encoding","47","Plate_Wooden.jpg","37","0","761"
"4","4","encoding","encoding","48","Brush_Shoe.jpg","37","0","624"
"4","4","encoding","encoding","49","Toy_RockingHorseBeige.jpg","37","0","825"
"4","4","encoding","encoding","50","Shoe_Pink.jpg","37","0","790"
"4","4","encoding","encoding","51","Basket_Bread.jpg","36","0","784"
"4","4","encoding","encoding","52","Drum_Ramadan.jpg","37","0","599"
"4","4","encoding","encoding","53","CandleSnuffer.jpg","37","0","541"
"4","4","encoding","encoding","54","Sign_SpeedLimit25.jpg","37","0","813"
"4","4","encoding","encoding","55","SoundMixer_White.jpg","37","0","498"
"4","4","encoding","encoding","56","Bag_Groceries.jpg","37","0","1403"
"4","4","encoding","encoding","57","Steamroller.jpg","37","0","832"
"4","4","encoding","encoding","58","KeyHook_Empty.jpg","37","0","737"
"4","4","encoding","encoding","59","Toy_DonkeyPlastic.jpg","37","0","1495"
"4","4","encoding","encoding","60","Harmonica.jpg","37","0","822"
"4","4","encoding","encoding","62","Mug_Travel.jpg","37","0","785"
"4","4","encoding","encoding","63","Bolt_WithNut.jpg","37","0","728"
"4","4","encoding","encoding","64","Steeple.jpg","37","0","623"
"4","4","encoding","encoding","65","Clamp.jpg","37","0","656"
"4","4","encoding","encoding","66","Level.jpg","37","0","637"
"4","4","encoding","encoding","67","DryingMachine.jpg","37","0","795"
"4","4","encoding","encoding","68","RemoteControl.jpg","37","0","594"
"4","4","encoding","encoding","69","MeatRaw.jpg","36","0","747"
"4","4","encoding","encoding","70","Pipe_Pitch.jpg","37","0","637"
"4","4","encoding","encoding","71","Thermos_MetalSleek.jpg","37","0","567"
"4","4","encoding","encoding","72","CoolingFan_Engine2.jpg","37","0","667"
"4","4","encoding","encoding","73","Toys_Lego.jpg","37","0","695"
"4","4","encoding","encoding","74","Cup_Styrofoam.jpg","37","0","780"
"4","4","encoding","encoding","75","OnionRings.jpg","36","0","1124"
"4","4","encoding","encoding","76","HoseNozzle.jpg","37","0","526"
"4","4","encoding","encoding","77","Stove_WithOven.jpg","37","0","569"
"4","4","encoding","encoding","78","Fossil.jpg","36","0","1027"
"4","4","encoding","encoding","79","Staircase_Straight.jpg","37","0","973"
"4","4","encoding","encoding","80","OrigamiPaper.jpg","37","0","893"
"4","4","encoding","encoding","81","RecorderCassette.jpg","37","0","786"
"4","4","encoding","encoding","82","Shoes_Sneakers.jpg","37","0","833"
"4","4","encoding","encoding","83","Mixer_Cement.jpg","37","0","744"
"4","4","encoding","encoding","84","ManholeCover.jpg","37","0","686"
"4","4","encoding","encoding","85","Bullet.jpg","37","0","613"
"4","4","encoding","encoding","86","GuineaPig.jpg","36","0","1014"
"4","4","encoding","encoding","87","Glass_bottle.jpg","37","0","682"
"4","4","encoding","encoding","88","Bottle_Spray.jpg","37","0","855"
"4","4","encoding","encoding","89","Goose_Canadian.jpg","36","0","698"
"4","4","encoding","encoding","90","Skirt_Long.jpg","37","0","664"
"4","4","encoding","encoding","91","Bat_Cricket.jpg","37","0","660"
"4","4","encoding","encoding","92","PaintSprayer.jpg","37","0","908"
"4","4","encoding","encoding","93","LawnMower.jpg","37","0","686"
"4","4","encoding","encoding","94","Flask_Metal.jpg","37","0","600"
"4","4","encoding","encoding","95","DryRack_Dishes.jpg","37","0","760"
"4","4","encoding","encoding","96","Pouch_PotPourri.jpg","36","0","1211"
"4","4","encoding","encoding","97","Suitcase.jpg","37","0","645"
"4","4","encoding","encoding","98","CraneMachine.jpg","37","0","1052"
"4","4","encoding","encoding","99","Keychain_Leather.jpg","37","0","660"
"4","4","encoding","encoding","100","Decoration_Chinese.jpg","37","0","1285"
"4","4","encoding","encoding","101","Grill_Electric.jpg","37","0","768"
"4","4","encoding","encoding","102","Umbrella_Classic.jpg","37","0","621"
"4","4","encoding","encoding","103","Toy_Shapesorter.jpg","37","0","608"
"4","4","encoding","encoding","104","LeafBlower.jpg","37","0","727"
"4","4","encoding","encoding","105","Pasta_Fusilli.jpg","36","0","1267"
"4","4","encoding","encoding","106","DiaperChangingStation.jpg","37","0","687"
"4","4","encoding","encoding","107","Leek.jpg","36","0","787"
"4","4","encoding","encoding","108","ElectricSwitchboard.jpg","37","0","562"
"4","4","encoding","encoding","109","Dreidel.jpg","37","0","620"
"4","4","encoding","encoding","110","ProcessorFood_Old.jpg","37","0","620"
"4","4","encoding","encoding","111","Kangaroo.jpg","36","0","684"
"4","4","encoding","encoding","112","Mat_Door.jpg","37","0","686"
"4","4","encoding","encoding","113","Bottle_Plastic.jpg","37","0","804"
"4","4","encoding","encoding","114","Tube.jpg","37","0","1179"
"4","4","encoding","encoding","115","Noisemaker.jpg","37","0","1038"
"4","4","encoding","encoding","116","Notebook.jpg","37","0","966"
"4","4","encoding","encoding","117","Feet.jpg","36","0","857"
"4","4","encoding","encoding","118","Stone_Spa.jpg","36","0","1214"
"4","4","encoding","encoding","119","Eraser.jpg","37","0","1056"
"4","4","encoding","encoding","120","Hand.jpg","36","0","901"
"4","4","encoding","encoding","121","Shrub_Boxwood.jpg","36","0","1331"
"4","4","encoding","encoding","123","Jar_Cookie.jpg","37","0","1079"
"4","4","encoding","encoding","124","GogglesSwim.jpg","37","0","847"
"4","4","encoding","encoding","125","NewspaperStack.jpg","37","0","985"
"4","4","encoding","encoding","126","SpinningWheel.jpg","37","0","603"
"4","4","encoding","encoding","127","SoapBottle.jpg","37","0","609"
"4","4","encoding","encoding","128","SaltShaker.jpg","37","0","815"
"4","4","encoding","encoding","129","Hookah.jpg","37","0","718"
"4","4","encoding","encoding","130","Dill.jpg","36","0","812"
"4","4","encoding","encoding","131","ScannerShoplifting.jpg","37","0","701"
"4","4","encoding","encoding","132","Condom.jpg","37","0","1052"
"4","4","encoding","encoding","133","ButterChurn.jpg","37","0","622"
"4","4","encoding","encoding","134","Exercise_HandTrainer.jpg","37","0","1567"
"4","4","encoding","encoding","135","Bottle_Blue.jpg","37","0","575"
"4","4","encoding","encoding","136","Altar.jpg","37","0","539"
"4","4","encoding","encoding","137","LampPost_WhiteOrnate.jpg","37","0","669"
"4","4","encoding","encoding","138","Cooler.jpg","37","0","715"
"4","4","encoding","encoding","139","Scoop_Flour.jpg","37","0","704"
"4","4","encoding","encoding","140","Hotdog_WithBun.jpg","37","0","1548"
"4","4","encoding","encoding","141","Chair_Rocking.jpg","37","0","557"
"4","4","encoding","encoding","142","Otoscope.jpg","37","0","654"
"4","4","encoding","encoding","143","KnifeHolder.jpg","37","0","707"
"4","4","encoding","encoding","144","Celery.jpg","36","0","804"
"4","4","encoding","encoding","145","Bomb.jpg","37","0","795"
"4","4","encoding","encoding","146","Ship_Model.jpg","37","0","719"
"4","4","encoding","encoding","147","PeasSplit.jpg","36","0","841"
"4","4","encoding","encoding","148","Toy_DollHomeMade.jpg","37","0","559"
"4","4","encoding","encoding","149","VialLab.jpg","37","0","753"
"4","4","encoding","encoding","150","Sign_Airport.jpg","37","0","705"
"4","4","encoding","encoding","151","Headset.jpg","37","0","874"
"4","4","encoding","encoding","152","AirCompressor.jpg","37","0","591"
"4","4","encoding","encoding","153","Chicken_FriedWing.jpg","36","0","1016"
"4","4","encoding","encoding","154","Sculpture_MetalMan.jpg","37","0","605"
"4","4","encoding","encoding","155","Razor.jpg","37","0","703"
"4","4","encoding","encoding","156","Igloo.jpg","37","0","952"
"4","4","encoding","encoding","157","Rock_Agate.jpg","36","0","1043"
"4","4","encoding","encoding","158","Playdoh.jpg","37","0","782"
"4","4","encoding","encoding","159","BrainSagittal.jpg","37","0","1439"
"4","4","encoding","encoding","160","Magnifying_Glass.jpg","37","0","764"
"4","4","encoding","encoding","161","Backhoe.jpg","37","0","783"
"4","4","encoding","encoding","162","Lettuce_Iceberg.jpg","36","0","673"
"4","4","encoding","encoding","163","Horn_Hunting.jpg","37","0","576"
"4","4","encoding","encoding","164","RamAnimal.jpg","36","0","735"
"4","4","encoding","encoding","165","ChainRusty.jpg","37","0","976"
"4","4","encoding","encoding","166","Licorice.jpg","37","0","1191"
"4","4","encoding","encoding","167","Bat_Baseball.jpg","37","0","642"
"4","4","encoding","encoding","168","TimerKitchen.jpg","37","0","726"
"4","4","encoding","encoding","169","Trowel.jpg","37","0","609"
"4","4","encoding","encoding","170","Grape.jpg","36","0","769"
"4","4","encoding","encoding","171","Light_Traffic.jpg","37","0","593"
"4","4","encoding","encoding","172","sign_traffic.jpg","37","0","589"
"4","4","encoding","encoding","173","Sign_Wetfloor.jpg","37","0","552"
"4","4","encoding","encoding","174","Mug_Beer.jpg","37","0","726"
"4","4","encoding","encoding","175","GPS.jpg","37","0","938"
"4","4","encoding","encoding","176","Bus_School.jpg","37","0","765"
"4","4","encoding","encoding","177","Seashell_RoseMurex.jpg","36","0","978"
"4","4","retrieval","new_objects","1","Brooch_Fish.jpg","37","1","894"
"4","4","retrieval","old_objects","2","LampPost_WhiteOrnate.jpg","36","1","956"
"4","4","retrieval","new_objects","3","PillBottle_Prescription.jpg","37","1","975"
"4","4","retrieval","new_objects","4","Cabasa.jpg","37","1","850"
"4","4","retrieval","old_objects","5","CandleSnuffer.jpg","36","1","742"
"4","4","retrieval","new_objects","6","Tape_Clear.jpg","37","1","702"
"4","4","retrieval","new_objects","7","Knife_Kitchen.jpg","37","1","769"
"4","4","retrieval","old_objects","8","Playdoh.jpg","36","1","638"
"4","4","retrieval","old_objects","9","Table_Conference.jpg","36","1","796"
"4","4","retrieval","new_objects","10","Clock_Interior.jpg","37","1","916"
"4","4","retrieval","old_objects","11","Boat_Dinghy.jpg","36","1","619"
"4","4","retrieval","old_objects","12","Chair_Rocking.jpg","36","1","622"
"4","4","retrieval","new_objects","13","Cassette_Audio.jpg","37","1","667"
"4","4","retrieval","old_objects","14","Hookah.jpg","36","1","743"
"4","4","retrieval","old_objects","15","Scoop_Flour.jpg","36","1","756"
"4","4","retrieval","old_objects","16","Bag_Groceries.jpg","36","1","695"
"4","4","retrieval","old_objects","17","GuineaPig.jpg","36","1","695"
"4","4","retrieval","old_objects","18","GPS.jpg","36","1","776"
"4","4","retrieval","old_objects","19","Kangaroo.jpg","36","1","758"
"4","4","retrieval","new_objects","20","Backpack_Travel.jpg","37","1","725"
"4","4","retrieval","old_objects","21","Sign_Airport.jpg","36","1","924"
"4","4","retrieval","old_objects","22","SoundMixer_White.jpg","36","1","1092"
"4","4","retrieval","old_objects","23","Bat_Baseball.jpg","36","1","898"
"4","4","retrieval","old_objects","24","Mixer_Cement.jpg","36","1","1034"
"4","4","retrieval","old_objects","25","LeafBlower.jpg","36","1","817"
"4","4","retrieval","new_objects","26","Toy_Slinky.jpg","37","1","677"
"4","4","retrieval","new_objects","27","MilkPitcher.jpg","37","1","834"
"4","4","retrieval","old_objects","28","Brush_Paint.jpg","36","1","737"
"4","4","retrieval","old_objects","29","Grape.jpg","36","1","662"
"4","4","retrieval","new_objects","30","Sink_Kitchen.jpg","37","1","989"
"4","4","retrieval","new_objects","31","Cord_usb.jpg","37","1","885"
"4","4","retrieval","new_objects","32","Soap.jpg","37","1","810"
"4","4","retrieval","new_objects","33","Knife_Butter.jpg","37","1","823"
"4","4","retrieval","old_objects","34","Licorice.jpg","36","1","740"
"4","4","retrieval","new_objects","35","Wheelbarrow_Green.jpg","36","0","988"
"4","4","retrieval","old_objects","36","Ramekin.jpg","36","1","765"
"4","4","retrieval","old_objects","37","CoolingFan_Engine2.jpg","36","1","837"
"4","4","retrieval","old_objects","38","Pasta_Fusilli.jpg","36","1","887"
"4","4","retrieval","old_objects","39","Cooler.jpg","36","1","723"
"4","4","retrieval","new_objects","40","Bus_DoubleDecker.jpg","37","1","752"
"4","4","retrieval","new_objects","41","Bicycle_Adult.jpg","37","1","887"
"4","4","retrieval","new_objects","42","Shoe_Sneaker.jpg","37","1","972"
"4","4","retrieval","old_objects","43","HairBand.jpg","36","1","760"
"4","4","retrieval","old_objects","44","Steeple.jpg","36","1","947"
"4","4","retrieval","new_objects","45","Bread_Carrot.jpg","37","1","757"
"4","4","retrieval","new_objects","46","Crossbow.jpg","36","0","1073"
"4","4","retrieval","new_objects","47","Fan_Blades.jpg","37","1","742"
"4","4","retrieval","old_objects","48","DryRack_Dishes.jpg","37","0","957"
"4","4","retrieval","new_objects","49","Glass_Beer.jpg","37","1","928"
"4","4","retrieval","new_objects","50","Lunchbox.jpg","37","1","1148"
"4","4","retrieval","old_objects","51","PostageStamps.jpg","36","1","766"
"4","4","retrieval","old_objects","52","ChainRusty.jpg","36","1","837"
"4","4","retrieval","old_objects","53","Television.jpg","36","1","754"
"4","4","retrieval","new_objects","54","DonaldDuck_Toy.jpg","37","1","695"
"4","4","retrieval","new_objects","55","Hulahoop.jpg","37","1","835"
"4","4","retrieval","new_objects","56","Thermos_Decorated.jpg","37","1","902"
"4","4","retrieval","new_objects","57","Wontons.jpg","37","1","1039"
"4","4","retrieval","old_objects","58","Pickle.jpg","36","1","742"
"4","4","retrieval","new_objects","59","Ladle.jpg","37","1","862"
"4","4","retrieval","old_objects","60","LawnMower.jpg","36","1","837"
"4","4","retrieval","new_objects","62","MassageRoller.jpg","37","1","928"
"4","4","retrieval","old_objects","63","Eraser.jpg","36","1","877"
"4","4","retrieval","old_objects","64","FuzzyDice.jpg","36","1","774"
"4","4","retrieval","new_objects","65","Gloves_Winter.jpg","37","1","611"
"4","4","retrieval","new_objects","66","Fortress.jpg","37","1","816"
"4","4","retrieval","old_objects","67","Sign_Wetfloor.jpg","36","1","713"
"4","4","retrieval","new_objects","68","Squash_Pumpkin.jpg","37","1","782"
"4","4","retrieval","old_objects","69","Tweezers.jpg","36","1","980"
"4","4","retrieval","old_objects","70","Case_WoodenOrnate.jpg","36","1","756"
"4","4","retrieval","new_objects","71","Balalaika.jpg","37","1","645"
"4","4","retrieval","old_objects","72","Glass_bottle.jpg","36","1","666"
"4","4","retrieval","new_objects","73","Camera_Antique.jpg","37","1","902"
"4","4","retrieval","old_objects","74","MonkeyPuppet.jpg","36","1","727"
"4","4","retrieval","new_objects","75","Fireplace_Outdoor.jpg","37","1","755"
"4","4","retrieval","new_objects","76","Canister_Tea.jpg","37","1","1012"
"4","4","retrieval","new_objects","77","Pineapple.jpg","37","1","824"
"4","4","retrieval","old_objects","78","Fork_Regular.jpg","36","1","958"
"4","4","retrieval","new_objects","79","Hockey_Puck.jpg","37","1","750"
"4","4","retrieval","old_objects","80","Lychee.jpg","36","1","705"
"4","4","retrieval","new_objects","81","WaterFountain.jpg","37","1","1688"
"4","4","retrieval","old_objects","82","Condom.jpg","36","1","819"
"4","4","retrieval","old_objects","83","Notebook.jpg","36","1","643"
"4","4","retrieval","old_objects","84","Man.jpg","36","1","698"
"4","4","retrieval","old_objects","85","Bus_School.jpg","36","1","683"
"4","4","retrieval","new_objects","86","Compact_Powder.jpg","37","1","653"
"4","4","retrieval","old_objects","87","NetButterfly.jpg","36","1","762"
"4","4","retrieval","new_objects","88","TeethMould.jpg","37","1","989"
"4","4","retrieval","new_objects","89","Guitarcase.jpg","37","1","917"
"4","4","retrieval","old_objects","90","Mat_Door.jpg","36","1","789"
"4","4","retrieval","new_objects","91","Cleaver_Meat.jpg","37","1","860"
"4","4","retrieval","old_objects","92","Altar.jpg","36","1","809"
"4","4","retrieval","new_objects","93","Airplane_Fighter.jpg","37","1","875"
"4","4","retrieval","new_objects","94","Boots_KneeHigh.jpg","37","1","832"
"4","4","retrieval","new_objects","95","Lemon.jpg","37","1","755"
"4","4","retrieval","old_objects","96","Feet.jpg","36","1","781"
"4","4","retrieval","new_objects","97","Toy_BlocksPlastic Colourful.jpg","37","1","854"
"4","4","retrieval","old_objects","98","VialLab.jpg","36","1","914"
"4","4","retrieval","old_objects","99","Flask_Metal.jpg","36","1","767"
"4","4","retrieval","new_objects","100","BridgeWooden.jpg","37","1","743"
"4","4","retrieval","old_objects","101","Sculpture_MetalMan.jpg","36","1","711"
"4","4","retrieval","old_objects","102","HerbsInBag.jpg","36","1","647"
"4","4","retrieval","old_objects","103","ProcessorFood_Old.jpg","36","1","1232"
"4","4","retrieval","old_objects","104","Toy_Witch.jpg","36","1","704"
"4","4","retrieval","new_objects","105","Envelope_Manila.jpg","37","1","599"
"4","4","retrieval","old_objects","106","Grill_Electric.jpg","36","1","697"
"4","4","retrieval","old_objects","107","Celery.jpg","36","1","685"
"4","4","retrieval","old_objects","108","Toy_DonkeyPlastic.jpg","36","1","693"
"4","4","retrieval","old_objects","109","Brush_Shoe.jpg","36","1","755"
"4","4","retrieval","old_objects","110","RickShaw.jpg","36","1","806"
"4","4","retrieval","new_objects","111","Tape_Washi.jpg","37","1","663"
"4","4","retrieval","new_objects","112","Speakers_Theatre.jpg","37","1","821"
"4","4","retrieval","new_objects","113","Flower_Crane.jpg","37","1","669"
"4","4","retrieval","new_objects","114","PirateFlag.jpg","37","1","696"
"4","4","retrieval","new_objects","115","Apple_RedAndGreen.jpg","37","1","817"
"4","4","retrieval","old_objects","116","Toy_Shapesorter.jpg","36","1","892"
"4","4","retrieval","old_objects","117","GogglesSwim.jpg","36","1","770"
"4","4","retrieval","new_objects","118","Box_GiftTopView.jpg","37","1","710"
"4","4","retrieval","new_objects","119","Carbiner_Ascender.jpg","37","1","1355"
"4","4","retrieval","new_objects","120","DJMixer.jpg","37","1","887"
"4","4","retrieval","new_objects","121","MemoPaperSpike.jpg","37","1","801"
"4","4","retrieval","old_objects","123","Suitcase.jpg","36","1","769"
"4","4","retrieval","new_objects","124","Hat_Tuque.jpg","37","1","626"
"4","4","retrieval","new_objects","125","Chair_PlasticGreen.jpg","37","1","762"
"4","4","retrieval","new_objects","126","Ruler_Digital.jpg","37","1","813"
"4","4","retrieval","old_objects","127","Headset.jpg","36","1","645"
"4","4","retrieval","old_objects","128","Sign_SpeedLimit25.jpg","36","1","647"
"4","4","retrieval","new_objects","129","FireExtinguisher.jpg","37","1","747"
"4","4","retrieval","old_objects","130","Rock_Agate.jpg","36","1","621"
"4","4","retrieval","new_objects","131","Toy_Train.jpg","37","1","713"
"4","4","retrieval","old_objects","132","Light_Traffic.jpg","36","1","718"
"4","4","retrieval","new_objects","133","Camera_Digital.jpg","37","1","747"
"4","4","retrieval","new_objects","134","Bowl_Cereal.jpg","37","1","652"
"4","4","retrieval","new_objects","135","Hat_Hard.jpg","36","0","668"
"4","4","retrieval","old_objects","136","Staircase_Straight.jpg","36","1","912"
"4","4","retrieval","new_objects","137","Bread_Loaf.jpg","36","0","1055"
"4","4","retrieval","new_objects","138","Oyster.jpg","37","1","998"
"4","4","retrieval","old_objects","139","Harmonica.jpg","36","1","851"
"4","4","retrieval","new_objects","140","Kite_Rainbow.jpg","37","1","1048"
"4","4","retrieval","new_objects","141","Candle_ChristmasDecor.jpg","37","1","716"
"4","4","retrieval","new_objects","142","Banana.jpg","37","1","731"
"4","4","retrieval","new_objects","143","Mallet.jpg","37","1","1067"
"4","4","retrieval","new_objects","144","Clock_Wall.jpg","37","1","1158"
"4","4","retrieval","new_objects","145","Chicken_Dinner.jpg","37","1","792"
"4","4","retrieval","old_objects","146","AirCompressor.jpg","36","1","743"
"4","4","retrieval","old_objects","147","Kettle.jpg","36","1","642"
"4","4","retrieval","new_objects","148","Lettuce_Romaine.jpg","36","0","631"
"4","4","retrieval","old_objects","149","Trowel.jpg","36","1","831"
"4","4","retrieval","old_objects","150","KnifeHolder.jpg","36","1","633"
"4","4","retrieval","new_objects","151","FortuneCookie.jpg","37","1","779"
"4","4","retrieval","new_objects","152","Statue_SouthAmerican.jpg","37","1","860"
"4","4","retrieval","old_objects","153","Shoes_WomenBoots.jpg","36","1","1141"
"4","4","retrieval","old_objects","154","ManholeCover.jpg","36","1","773"
"4","4","retrieval","new_objects","155","Envelope_Letter.jpg","37","1","752"
"4","4","retrieval","new_objects","156","ScrewDriver.jpg","37","1","704"
"4","4","retrieval","old_objects","157","KeyHook_Empty.jpg","36","1","767"
"4","4","retrieval","old_objects","158","Magnifying_Glass.jpg","36","1","708"
"4","4","retrieval","new_objects","159","JumpingJack.jpg","37","1","879"
"4","4","retrieval","new_objects","160","ComputerKey_Escape.jpg","37","1","988"
"4","4","retrieval","new_objects","161","Toy_Shark.jpg","37","1","771"
"4","4","retrieval","new_objects","162","SmokingPipe.jpg","37","1","945"
"4","4","retrieval","new_objects","163","Puffin.jpg","37","1","767"
"4","4","retrieval","old_objects","164","ScannerShoplifting.jpg","36","1","718"
"4","4","retrieval","old_objects","165","Noisemaker.jpg","36","1","687"
"4","4","retrieval","new_objects","166","Ruler_Wooden.jpg","37","1","954"
"4","4","retrieval","new_objects","167","Pumpkin.jpg","37","1","914"
"4","4","retrieval","old_objects","168","SaltShaker.jpg","36","1","783"
"4","4","retrieval","new_objects","169","Organ.jpg","37","1","655"
"4","4","retrieval","old_objects","170","OnionRings.jpg","36","1","861"
"4","4","retrieval","old_objects","171","Shoes_Sneakers.jpg","37","0","1035"
"4","4","retrieval","new_objects","172","Pot_TurkishCoffee.jpg","37","1","1205"
"4","4","retrieval","new_objects","173","Jet.jpg","37","1","865"
"4","4","retrieval","old_objects","174","Jar_Cookie.jpg","37","0","1951"
"4","4","retrieval","old_objects","175","OrigamiPaper.jpg","36","1","789"
"4","4","retrieval","new_objects","176","Humidifier.jpg","37","1","875"
"4","4","retrieval","new_objects","177","SculptureMetalFish.jpg","37","1","721"
"4","4","retrieval","old_objects","178","SoapBottle.jpg","36","1","720"
"4","4","retrieval","new_objects","179","Pants.jpg","36","0","696"
"4","4","retrieval","old_objects","180","TimerKitchen.jpg","36","1","658"
"4","4","retrieval","old_objects","181","Chicken_FriedWing.jpg","36","1","589"
"4","4","retrieval","new_objects","182","Tape_Scotch.jpg","36","0","873"
"4","4","retrieval","new_objects","184","Scooter.jpg","37","1","833"
"4","4","retrieval","old_objects","185","Horn_Hunting.jpg","36","1","641"
"4","4","retrieval","old_objects","186","Bottle_Spray.jpg","36","1","650"
"4","4","retrieval","new_objects","187","Nail.jpg","37","1","884"
"4","4","retrieval","new_objects","188","Speaker_Computer.jpg","37","1","849"
"4","4","retrieval","old_objects","189","Pouch_PotPourri.jpg","36","1","1082"
"4","4","retrieval","old_objects","190","Skirt_Long.jpg","36","1","725"
"4","4","retrieval","new_objects","191","Cantaloupe.jpg","37","1","778"
"4","4","retrieval","old_objects","192","Shoes_Pumps.jpg","36","1","716"
"4","4","retrieval","old_objects","193","Exercise_HandTrainer.jpg","36","1","771"
"4","4","retrieval","old_objects","194","TowelRack_Metal.jpg","36","1","678"
"4","4","retrieval","old_objects","195","MeatRaw.jpg","36","1","768"
"4","4","retrieval","new_objects","196","Chicken_Raw.jpg","37","1","751"
"4","4","retrieval","old_objects","197","Bullet.jpg","36","1","944"
"4","4","retrieval","old_objects","198","Shoe_Pink.jpg","37","0","677"
"4","4","retrieval","new_objects","199","Carrot.jpg","37","1","753"
"4","4","retrieval","new_objects","200","BuildingChinese.jpg","37","1","726"
"4","4","retrieval","new_objects","201","Pot_BlackOld.jpg","37","1","613"
"4","4","retrieval","old_objects","202","Toy_RockingHorseBeige.jpg","36","1","699"
"4","4","retrieval","new_objects","203","Shrub_Cedar.jpg","37","1","876"
"4","4","retrieval","old_objects","204","Seashell_RoseMurex.jpg","36","1","761"
"4","4","retrieval","old_objects","205","Vest.jpg","36","1","786"
"4","4","retrieval","old_objects","206","Plate_Wooden.jpg","36","1","643"
"4","4","retrieval","new_objects","207","BinRecycling.jpg","37","1","912"
"4","4","retrieval","old_objects","208","Bolt_WithNut.jpg","36","1","715"
"4","4","retrieval","new_objects","209","Bed_ChildBirch.jpg","37","1","699"
"4","4","retrieval","new_objects","210","Drum_Conga.jpg","37","1","681"
"4","4","retrieval","old_objects","211","Otoscope.jpg","36","1","975"
"4","4","retrieval","new_objects","212","MetalDetector.jpg","36","0","1094"
"4","4","retrieval","new_objects","213","RecorderInstrument.jpg","37","1","794"
"4","4","retrieval","new_objects","214","Container_RedPlastic.jpg","37","1","802"
"4","4","retrieval","old_objects","215","Leek.jpg","36","1","658"
"4","4","retrieval","old_objects","216","Umbrella_Classic.jpg","36","1","735"
"4","4","retrieval","old_objects","217","Bottle_Blue.jpg","36","1","694"
"4","4","retrieval","new_objects","218","Spider.jpg","37","1","593"
"4","4","retrieval","new_objects","219","Toy_RaceTrack.jpg","37","1","727"
"4","4","retrieval","new_objects","220","Stool_Foot.jpg","37","1","689"
"4","4","retrieval","old_objects","221","SpinningWheel.jpg","36","1","746"
"4","4","retrieval","old_objects","222","Fossil.jpg","36","1","628"
"4","4","retrieval","old_objects","223","Cup_Styrofoam.jpg","36","1","832"
"4","4","retrieval","old_objects","224","RemoteControl.jpg","37","0","710"
"4","4","retrieval","old_objects","225","ButterChurn.jpg","36","1","851"
"4","4","retrieval","old_objects","226","Paratrooper.jpg","36","1","801"
"4","4","retrieval","old_objects","227","ElectricSwitchboard.jpg","37","0","672"
"4","4","retrieval","old_objects","228","Bird_CanadianGoose.jpg","36","1","626"
"4","4","retrieval","new_objects","229","PeriodicTable.jpg","37","1","1016"
"4","4","retrieval","old_objects","230","HoseNozzle.jpg","36","1","762"
"4","4","retrieval","old_objects","231","DryingMachine.jpg","36","1","778"
"4","4","retrieval","new_objects","232","Toy_Drill.jpg","37","1","707"
"4","4","retrieval","new_objects","233","Bindings_Snowboard.jpg","37","1","793"
"4","4","retrieval","old_objects","234","DiaperChangingStation.jpg","36","1","735"
"4","4","retrieval","new_objects","235","FlashlightHeadBand.jpg","37","1","1168"
"4","4","retrieval","old_objects","236","RamAnimal.jpg","36","1","702"
"4","4","retrieval","old_objects","237","BrainSagittal.jpg","36","1","863"
"4","4","retrieval","old_objects","238","Basket_Bread.jpg","36","1","692"
"4","4","retrieval","new_objects","239","MannequinHead.jpg","37","1","735"
"4","4","retrieval","new_objects","240","Cannon.jpg","37","1","818"
"4","4","retrieval","old_objects","241","Level.jpg","36","1","843"
"4","4","retrieval","old_objects","242","PickupTruck.jpg","36","1","694"
"4","4","retrieval","old_objects","243","Toy_BlocksLetter.jpg","36","1","797"
"4","4","retrieval","new_objects","245","Toy_Helicopter.jpg","37","1","833"
"4","4","retrieval","new_objects","246","Toy_Octopus.jpg","37","1","732"
"4","4","retrieval","new_objects","247","Jar_Strawberry.jpg","37","1","670"
"4","4","retrieval","new_objects","248","Toy_StackingRing.jpg","37","1","682"
"4","4","retrieval","new_objects","249","Hat_Cowboy.jpg","37","1","768"
"4","4","retrieval","new_objects","250","Toy_Babydoll.jpg","37","1","646"
"4","4","retrieval","new_objects","251","Plunger.jpg","37","1","731"
"4","4","retrieval","old_objects","252","Bat_Cricket.jpg","37","0","765"
"4","4","retrieval","old_objects","253","Telephone_TinCan.jpg","36","1","640"
"4","4","retrieval","old_objects","254","MouthGuard.jpg","36","1","760"
"4","4","retrieval","new_objects","255","Plum.jpg","37","1","716"
"4","4","retrieval","old_objects","256","Stone_Spa.jpg","36","1","664"
"4","4","retrieval","new_objects","257","Helmet_Football.jpg","37","1","693"
"4","4","retrieval","old_objects","258","Cup_Fruits.jpg","36","1","590"
"4","4","retrieval","new_objects","259","Boombox.jpg","36","0","888"
"4","4","retrieval","old_objects","260","Toys_Lego.jpg","36","1","649"
"4","4","retrieval","new_objects","261","ColumnMarble.jpg","36","0","869"
"4","4","retrieval","new_objects","262","Brush_Nail.jpg","36","0","825"
"4","4","retrieval","new_objects","263","Shoes_Snowboarding.jpg","37","1","633"
"4","4","retrieval","old_objects","264","Stove_WithOven.jpg","36","1","828"
"4","4","retrieval","new_objects","265","Bread_Roll.jpg","37","1","986"
"4","4","retrieval","new_objects","266","PedestalGreek.jpg","37","1","719"
"4","4","retrieval","new_objects","267","Light_PostIsolated.jpg","37","1","707"
"4","4","retrieval","new_objects","268","TowerEiffel.jpg","37","1","765"
"4","4","retrieval","new_objects","269","Comb_1.jpg","37","1","729"
"4","4","retrieval","new_objects","270","Dolphine.jpg","37","1","589"
"4","4","retrieval","old_objects","271","Razor.jpg","36","1","674"
"4","4","retrieval","new_objects","272","Bird_Falcon.jpg","37","1","691"
"4","4","retrieval","old_objects","273","Boat_Trailer.jpg","37","0","885"
"4","4","retrieval","new_objects","274","Partition.jpg","37","1","689"
"4","4","retrieval","new_objects","275","TomatoSauce.jpg","37","1","726"
"4","4","retrieval","new_objects","276","ControlPanel.jpg","37","1","900"
"4","4","retrieval","new_objects","277","Toy_RockingHorseBlack.jpg","37","1","834"
"4","4","retrieval","new_objects","278","Colosseum.jpg","37","1","676"
"4","4","retrieval","new_objects","279","Bowl_Glass.jpg","37","1","885"
"4","4","retrieval","old_objects","280","PaintSprayer.jpg","37","0","1198"
"4","4","retrieval","old_objects","281","Suit_Women.jpg","36","1","748"
"4","4","retrieval","new_objects","282","Car_Sedan.jpg","37","1","698"
"4","4","retrieval","new_objects","283","Mask_Viking.jpg","37","1","709"
"4","4","retrieval","old_objects","284","Clamp.jpg","36","1","841"
"4","4","retrieval","old_objects","285","Shrub_Boxwood.jpg","36","1","889"
"4","4","retrieval","new_objects","286","SledgeHammer.jpg","37","1","832"
"4","4","retrieval","new_objects","287","Noose.jpg","37","1","600"
"4","4","retrieval","old_objects","288","CraneMachine.jpg","36","1","752"
"4","4","retrieval","new_objects","289","Trash_Medical.jpg","37","1","704"
"4","4","retrieval","new_objects","290","Sign_Caution.jpg","36","0","652"
"4","4","retrieval","new_objects","291","Statue_Head.jpg","37","1","616"
"4","4","retrieval","old_objects","292","sign_traffic.jpg","36","1","688"
"4","4","retrieval","new_objects","293","Cologne.jpg","37","1","831"
"4","4","retrieval","new_objects","294","Sandwich_Egg.jpg","37","1","700"
"4","4","retrieval","old_objects","295","Lettuce_Iceberg.jpg","36","1","673"
"4","4","retrieval","old_objects","296","Sandcastle.jpg","36","1","675"
"4","4","retrieval","old_objects","297","RecorderCassette.jpg","36","1","728"
"4","4","retrieval","old_objects","298","Bottle_Plastic.jpg","36","1","718"
"4","4","retrieval","old_objects","299","Pipe_Pitch.jpg","36","1","806"
"4","4","retrieval","new_objects","300","Airplane_Commercial.jpg","36","0","816"
"4","4","retrieval","new_objects","301","InflatableSleepingBag.jpg","37","1","710"
"4","4","retrieval","old_objects","302","Sign_HumpBridgeAhead.jpg","36","1","856"
"4","4","retrieval","new_objects","303","AirVent.jpg","37","1","971"
"4","4","retrieval","old_objects","304","PeasSplit.jpg","36","1","680"
"4","4","retrieval","new_objects","306","Heater_Outdoor.jpg","37","1","820"
"4","4","retrieval","old_objects","307","NewspaperStack.jpg","36","1","821"
"4","4","retrieval","new_objects","308","Toolbox_BlackOpen.jpg","37","1","799"
"4","4","retrieval","new_objects","309","Speaker_OnStand.jpg","37","1","1296"
"4","4","retrieval","new_objects","310","Headphones.jpg","37","1","822"
"4","4","retrieval","new_objects","311","Wire_Soldering.jpg","37","1","862"
"4","4","retrieval","new_objects","312","Box_Chocolate.jpg","37","1","917"
"4","4","retrieval","old_objects","313","Goose_Canadian.jpg","36","1","655"
"4","4","retrieval","old_objects","314","Distaff.jpg","36","1","875"
"4","4","retrieval","new_objects","315","Star.jpg","37","1","683"
"4","4","retrieval","new_objects","316","Dog_Bulldog.jpg","37","1","678"
"4","4","retrieval","old_objects","317","Backhoe.jpg","36","1","1074"
"4","4","retrieval","new_objects","318","Jar_JellyBeans.jpg","37","1","869"
"4","4","retrieval","old_objects","319","Flower_Daisy.jpg","36","1","847"
"4","4","retrieval","old_objects","320","Mug_Beer.jpg","36","1","817"
"4","4","retrieval","old_objects","321","Igloo.jpg","36","1","750"
"4","4","retrieval","old_objects","322","Decoration_Chinese.jpg","36","1","1254"
"4","4","retrieval","old_objects","323","Steamroller.jpg","37","0","762"
"4","4","retrieval","old_objects","324","Can_Peas.jpg","36","1","711"
"4","4","retrieval","old_objects","325","Ship_Model.jpg","36","1","753"
"4","4","retrieval","old_objects","326","Bomb.jpg","36","1","677"
"4","4","retrieval","old_objects","327","Ghost.jpg","36","1","619"
"4","4","retrieval","old_objects","328","Tickets_Blank.jpg","36","1","576"
"4","4","retrieval","old_objects","329","Dreidel.jpg","36","1","625"
"4","4","retrieval","old_objects","330","Hand.jpg","36","1","772"
"4","4","retrieval","new_objects","331","Sieve_SideView.jpg","37","1","721"
"4","4","retrieval","new_objects","332","Keychain_Metal.jpg","37","1","916"
"4","4","retrieval","old_objects","333","Watch.jpg","36","1","677"
"4","4","retrieval","new_objects","334","Zucchini.jpg","36","0","730"
"4","4","retrieval","old_objects","335","Dill.jpg","36","1","685"
"4","4","retrieval","new_objects","336","DartBoard.jpg","37","1","609"
"4","4","retrieval","old_objects","337","Keychain_Leather.jpg","37","0","635"
"4","4","retrieval","old_objects","338","Hotdog_WithBun.jpg","36","1","618"
"4","4","retrieval","old_objects","339","Drum_Ramadan.jpg","36","1","672"
"4","4","retrieval","new_objects","340","JuiceBox.jpg","37","1","666"
"4","4","retrieval","old_objects","341","Tube.jpg","36","1","916"
"4","4","retrieval","old_objects","342","Mug_Travel.jpg","36","1","611"
"4","4","retrieval","new_objects","343","LightBulb_White.jpg","37","1","686"
"4","4","retrieval","new_objects","344","Ambulance.jpg","37","1","724"
"4","4","retrieval","old_objects","345","Bed_Hospital.jpg","36","1","653"
"4","4","retrieval","new_objects","346","Mask_Masquerade.jpg","37","1","643"
"4","4","retrieval","old_objects","347","MannequinBust.jpg","36","1","593"
"4","4","retrieval","old_objects","348","DentistOverheadLight.jpg","36","1","884"
"4","4","retrieval","old_objects","349","Toy_DollHomeMade.jpg","36","1","760"
"4","4","retrieval","new_objects","350","MatchBook.jpg","37","1","674"
"4","4","retrieval","new_objects","351","Socks_Winter.jpg","37","1","694"
"4","4","retrieval","old_objects","352","Sign_SpeedLimit30.jpg","36","1","773"
"4","4","retrieval","new_objects","353","KeyHook_Occupied.jpg","37","1","710"
"4","4","retrieval","old_objects","354","Thermos_MetalSleek.jpg","36","1","779"
"4","4","retrieval","old_objects","355","WaterColorPaintset.jpg","36","1","657"
"4","4","demographics_block","gender","1","WaterColorPaintset.jpg","female","1","21382"
"4","4","demographics_block","age","1","WaterColorPaintset.jpg","35","1","21382"
"4","4","demographics_block","education","1","WaterColorPaintset.jpg","16","1","21382"
"4","4","demographics_block","left_right_handed","2","WaterColorPaintset.jpg","Right","1","5184"
"4","4","demographics_block","raceoption1","2","WaterColorPaintset.jpg","0","1","5184"
"4","4","demographics_block","raceoption2","2","WaterColorPaintset.jpg","","1","5184"
"4","4","demographics_block","raceoption3","2","WaterColorPaintset.jpg","","1","5184"
"4","4","demographics_block","raceoption4","2","WaterColorPaintset.jpg","","1","5184"
"4","4","demographics_block","raceoption5","2","WaterColorPaintset.jpg","","1","5184"
"4","4","demographics_block","raceoption6","2","WaterColorPaintset.jpg","","1","5184"
"4","4","demographics_block","raceoption7","2","WaterColorPaintset.jpg","","1","5184"
"4","4","demographics_block","raceoption8","2","WaterColorPaintset.jpg","","1","5184"
"4","4","demographics_block","raceoption9","2","WaterColorPaintset.jpg","","1","5184"
"4","4","demographics_block","raceother","2","WaterColorPaintset.jpg","","1","5184"
"4","4","demographics_block","raceother","2","WaterColorPaintset.jpg","","1","5184"
"4","4","demographics_block","english_language","2","WaterColorPaintset.jpg","Yes","1","5184"
"4","4","demographics_block","english_languageother","2","WaterColorPaintset.jpg","","1","5184"
"4","4","demographics_block","eyesight","3","WaterColorPaintset.jpg","Yes","1","7994"
"4","4","demographics_block","colorblind","3","WaterColorPaintset.jpg","No","1","7994"
"4","4","worker_id_block","worker_id_textbox","1","WaterColorPaintset.jpg","A2FTVGVF3Q3GHC","1","3427"
"9","9","encoding","encoding","1","Decoration_Chinese.jpg","37","0","1289"
"9","9","encoding","encoding","2","Ghost.jpg","37","0","857"
"9","9","encoding","encoding","3","Boat_Trailer.jpg","37","0","614"
"9","9","encoding","encoding","4","Steamroller.jpg","37","0","686"
"9","9","encoding","encoding","5","Hookah.jpg","37","0","666"
"9","9","encoding","encoding","6","Sign_SpeedLimit30.jpg","37","0","701"
"9","9","encoding","encoding","7","Otoscope.jpg","37","0","701"
"9","9","encoding","encoding","8","Grape.jpg","36","0","929"
"9","9","encoding","encoding","9","Toys_Lego.jpg","37","0","771"
"9","9","encoding","encoding","10","Flask_Metal.jpg","37","0","630"
"9","9","encoding","encoding","11","SoapBottle.jpg","37","0","675"
"9","9","encoding","encoding","12","Vest.jpg","37","0","495"
"9","9","encoding","encoding","13","Stove_WithOven.jpg","37","0","727"
"9","9","encoding","encoding","14","Shrub_Boxwood.jpg","36","0","670"
"9","9","encoding","encoding","15","LampPost_WhiteOrnate.jpg","37","0","641"
"9","9","encoding","encoding","16","Grill_Electric.jpg","37","0","561"
"9","9","encoding","encoding","17","Table_Conference.jpg","37","0","500"
"9","9","encoding","encoding","18","BrainSagittal.jpg","37","0","1367"
"9","9","encoding","encoding","19","RamAnimal.jpg","36","0","889"
"9","9","encoding","encoding","20","OrigamiPaper.jpg","37","0","774"
"9","9","encoding","encoding","21","Leek.jpg","36","0","928"
"9","9","encoding","encoding","22","Cooler.jpg","37","0","660"
"9","9","encoding","encoding","23","Mixer_Cement.jpg","37","0","776"
"9","9","encoding","encoding","24","Noisemaker.jpg","37","0","1112"
"9","9","encoding","encoding","25","Cup_Fruits.jpg","36","0","748"
"9","9","encoding","encoding","26","RickShaw.jpg","37","0","829"
"9","9","encoding","encoding","27","Hand.jpg","36","0","1072"
"9","9","encoding","encoding","28","Condom.jpg","37","0","1276"
"9","9","encoding","encoding","29","MonkeyPuppet.jpg","37","0","707"
"9","9","encoding","encoding","30","Pouch_PotPourri.jpg","36","0","1203"
"9","9","encoding","encoding","31","Can_Peas.jpg","36","0","1243"
"9","9","encoding","encoding","32","Razor.jpg","37","0","795"
"9","9","encoding","encoding","33","Sign_HumpBridgeAhead.jpg","37","0","669"
"9","9","encoding","encoding","34","Celery.jpg","36","0","553"
"9","9","encoding","encoding","35","Altar.jpg","37","0","593"
"9","9","encoding","encoding","36","Level.jpg","37","0","732"
"9","9","encoding","encoding","37","KnifeHolder.jpg","37","0","976"
"9","9","encoding","encoding","38","FuzzyDice.jpg","37","0","621"
"9","9","encoding","encoding","39","Staircase_Straight.jpg","37","0","771"
"9","9","encoding","encoding","40","Fossil.jpg","36","0","920"
"9","9","encoding","encoding","41","Man.jpg","36","0","1260"
"9","9","encoding","encoding","42","Paratrooper.jpg","37","0","806"
"9","9","encoding","encoding","43","Flower_Daisy.jpg","36","0","602"
"9","9","encoding","encoding","44","Suit_Women.jpg","37","0","723"
"9","9","encoding","encoding","45","Toy_RockingHorseBeige.jpg","37","0","580"
"9","9","encoding","encoding","46","RecorderCassette.jpg","37","0","674"
"9","9","encoding","encoding","47","Rock_Agate.jpg","36","0","637"
"9","9","encoding","encoding","48","Tweezers.jpg","37","0","928"
"9","9","encoding","encoding","49","OnionRings.jpg","36","0","777"
"9","9","encoding","encoding","50","Telephone_TinCan.jpg","37","0","1193"
"9","9","encoding","encoding","51","Toy_DollHomeMade.jpg","37","0","1171"
"9","9","encoding","encoding","52","LeafBlower.jpg","37","0","1180"
"9","9","encoding","encoding","53","Sign_Wetfloor.jpg","37","0","764"
"9","9","encoding","encoding","54","LawnMower.jpg","37","0","463"
"9","9","encoding","encoding","55","Jar_Cookie.jpg","37","0","1065"
"9","9","encoding","encoding","56","Bat_Cricket.jpg","37","0","1429"
"9","9","encoding","encoding","57","MeatRaw.jpg","36","0","667"
"9","9","encoding","encoding","58","TowelRack_Metal.jpg","37","0","825"
"9","9","encoding","encoding","59","Keychain_Leather.jpg","37","0","1211"
"9","9","encoding","encoding","60","Shoes_WomenBoots.jpg","37","0","706"
"9","9","encoding","encoding","62","Kangaroo.jpg","36","0","859"
"9","9","encoding","encoding","63","Mug_Travel.jpg","37","0","770"
"9","9","encoding","encoding","64","Bag_Groceries.jpg","37","0","1207"
"9","9","encoding","encoding","65","Bus_School.jpg","37","0","671"
"9","9","encoding","encoding","66","Goose_Canadian.jpg","36","0","636"
"9","9","encoding","encoding","67","Brush_Shoe.jpg","37","0","1627"
"9","9","encoding","encoding","68","Bed_Hospital.jpg","37","0","1388"
"9","9","encoding","encoding","69","Clamp.jpg","37","0","1157"
"9","9","encoding","encoding","70","Skirt_Long.jpg","37","0","1877"
"9","9","encoding","encoding","71","HairBand.jpg","37","0","810"
"9","9","encoding","encoding","72","Notebook.jpg","37","0","1874"
"9","9","encoding","encoding","73","DiaperChangingStation.jpg","37","0","854"
"9","9","encoding","encoding","74","Case_WoodenOrnate.jpg","37","0","980"
"9","9","encoding","encoding","75","Thermos_MetalSleek.jpg","37","0","615"
"9","9","encoding","encoding","76","ChainRusty.jpg","0","0","2000"
"9","9","encoding","encoding","77","Cup_Styrofoam.jpg","37","0","957"
"9","9","encoding","encoding","78","PaintSprayer.jpg","37","0","674"
"9","9","encoding","encoding","79","ProcessorFood_Old.jpg","37","0","913"
"9","9","encoding","encoding","80","Harmonica.jpg","37","0","1024"
"9","9","encoding","encoding","81","CraneMachine.jpg","37","0","785"
"9","9","encoding","encoding","82","Bullet.jpg","37","0","1086"
"9","9","encoding","encoding","83","PeasSplit.jpg","36","0","723"
"9","9","encoding","encoding","84","Exercise_HandTrainer.jpg","37","0","1133"
"9","9","encoding","encoding","85","NetButterfly.jpg","37","0","1450"
"9","9","encoding","encoding","86","Bat_Baseball.jpg","0","0","2000"
"9","9","encoding","encoding","87","Pipe_Pitch.jpg","37","0","1473"
"9","9","encoding","encoding","88","VialLab.jpg","37","0","1212"
"9","9","encoding","encoding","89","SaltShaker.jpg","37","0","795"
"9","9","encoding","encoding","90","GuineaPig.jpg","36","0","1250"
"9","9","encoding","encoding","91","KeyHook_Empty.jpg","37","0","1495"
"9","9","encoding","encoding","92","Toy_DonkeyPlastic.jpg","36","0","602"
"9","9","encoding","encoding","93","Lettuce_Iceberg.jpg","36","0","659"
"9","9","encoding","encoding","94","Dreidel.jpg","37","0","1112"
"9","9","encoding","encoding","95","Sign_SpeedLimit25.jpg","37","0","1465"
"9","9","encoding","encoding","96","Glass_bottle.jpg","37","0","1322"
"9","9","encoding","encoding","97","Hotdog_WithBun.jpg","37","0","1409"
"9","9","encoding","encoding","98","MouthGuard.jpg","37","0","1922"
"9","9","encoding","encoding","99","HerbsInBag.jpg","36","0","705"
"9","9","encoding","encoding","100","ElectricSwitchboard.jpg","37","0","833"
"9","9","encoding","encoding","101","Shoe_Pink.jpg","37","0","583"
"9","9","encoding","encoding","102","Tube.jpg","37","0","731"
"9","9","encoding","encoding","103","SoundMixer_White.jpg","37","0","709"
"9","9","encoding","encoding","104","AirCompressor.jpg","37","0","596"
"9","9","encoding","encoding","105","Bottle_Spray.jpg","37","0","626"
"9","9","encoding","encoding","106","Eraser.jpg","37","0","730"
"9","9","encoding","encoding","107","CandleSnuffer.jpg","37","0","711"
"9","9","encoding","encoding","108","Lychee.jpg","36","0","846"
"9","9","encoding","encoding","109","Stone_Spa.jpg","36","0","1140"
"9","9","encoding","encoding","110","PostageStamps.jpg","37","0","809"
"9","9","encoding","encoding","111","DentistOverheadLight.jpg","37","0","782"
"9","9","encoding","encoding","112","Toy_BlocksLetter.jpg","37","0","502"
"9","9","encoding","encoding","113","Headset.jpg","37","0","1305"
"9","9","encoding","encoding","114","Trowel.jpg","37","0","559"
"9","9","encoding","encoding","115","Brush_Paint.jpg","37","0","611"
"9","9","encoding","encoding","116","Mat_Door.jpg","37","0","970"
"9","9","encoding","encoding","117","Tickets_Blank.jpg","37","0","677"
"9","9","encoding","encoding","118","Scoop_Flour.jpg","37","0","484"
"9","9","encoding","encoding","119","GogglesSwim.jpg","37","0","616"
"9","9","encoding","encoding","120","ScannerShoplifting.jpg","37","0","620"
"9","9","encoding","encoding","121","GPS.jpg","37","0","708"
"9","9","encoding","encoding","123","PickupTruck.jpg","37","0","487"
"9","9","encoding","encoding","124","sign_traffic.jpg","37","0","492"
"9","9","encoding","encoding","125","Backhoe.jpg","37","0","522"
"9","9","encoding","encoding","126","CoolingFan_Engine2.jpg","37","0","525"
"9","9","encoding","encoding","127","Pickle.jpg","36","0","1206"
"9","9","encoding","encoding","128","Toy_Shapesorter.jpg","37","0","520"
"9","9","encoding","encoding","129","Playdoh.jpg","37","0","662"
"9","9","encoding","encoding","130","Sign_Airport.jpg","37","0","999"
"9","9","encoding","encoding","131","Magnifying_Glass.jpg","37","0","412"
"9","9","encoding","encoding","132","Plate_Wooden.jpg","36","0","1555"
"9","9","encoding","encoding","133","Television.jpg","37","0","711"
"9","9","encoding","encoding","134","Light_Traffic.jpg","37","0","531"
"9","9","encoding","encoding","135","Pasta_Fusilli.jpg","37","0","1709"
"9","9","encoding","encoding","136","Ship_Model.jpg","37","0","1817"
"9","9","encoding","encoding","137","Shoes_Pumps.jpg","37","0","656"
"9","9","encoding","encoding","138","SpinningWheel.jpg","37","0","488"
"9","9","encoding","encoding","139","DryingMachine.jpg","37","0","476"
"9","9","encoding","encoding","140","WaterColorPaintset.jpg","37","0","506"
"9","9","encoding","encoding","141","Kettle.jpg","37","0","397"
"9","9","encoding","encoding","142","Drum_Ramadan.jpg","37","0","526"
"9","9","encoding","encoding","143","Basket_Bread.jpg","36","0","1264"
"9","9","encoding","encoding","144","Bottle_Plastic.jpg","37","0","1056"
"9","9","encoding","encoding","145","Feet.jpg","36","0","1086"
"9","9","encoding","encoding","146","Steeple.jpg","37","0","769"
"9","9","encoding","encoding","147","HoseNozzle.jpg","37","0","662"
"9","9","encoding","encoding","148","DryRack_Dishes.jpg","37","0","606"
"9","9","encoding","encoding","149","Mug_Beer.jpg","37","0","910"
"9","9","encoding","encoding","150","ButterChurn.jpg","37","0","825"
"9","9","encoding","encoding","151","NewspaperStack.jpg","37","0","1157"
"9","9","encoding","encoding","152","RemoteControl.jpg","37","0","739"
"9","9","encoding","encoding","153","Bolt_WithNut.jpg","37","0","526"
"9","9","encoding","encoding","154","Fork_Regular.jpg","37","0","664"
"9","9","encoding","encoding","155","Toy_Witch.jpg","37","0","1023"
"9","9","encoding","encoding","156","MannequinBust.jpg","37","0","537"
"9","9","encoding","encoding","157","Distaff.jpg","37","0","460"
"9","9","encoding","encoding","158","Suitcase.jpg","37","0","721"
"9","9","encoding","encoding","159","Bomb.jpg","37","0","622"
"9","9","encoding","encoding","160","Umbrella_Classic.jpg","37","0","935"
"9","9","encoding","encoding","161","Shoes_Sneakers.jpg","37","0","572"
"9","9","encoding","encoding","162","Bird_CanadianGoose.jpg","36","0","1028"
"9","9","encoding","encoding","163","Chicken_FriedWing.jpg","36","0","1580"
"9","9","encoding","encoding","164","Watch.jpg","37","0","747"
"9","9","encoding","encoding","165","Boat_Dinghy.jpg","37","0","774"
"9","9","encoding","encoding","166","TimerKitchen.jpg","37","0","564"
"9","9","encoding","encoding","167","ManholeCover.jpg","37","0","548"
"9","9","encoding","encoding","168","Chair_Rocking.jpg","37","0","832"
"9","9","encoding","encoding","169","Igloo.jpg","37","0","534"
"9","9","encoding","encoding","170","Dill.jpg","36","0","973"
"9","9","encoding","encoding","171","Horn_Hunting.jpg","37","0","951"
"9","9","encoding","encoding","172","Bottle_Blue.jpg","37","0","431"
"9","9","encoding","encoding","173","Licorice.jpg","37","0","1165"
"9","9","encoding","encoding","174","Ramekin.jpg","37","0","578"
"9","9","encoding","encoding","175","Sandcastle.jpg","36","0","1198"
"9","9","encoding","encoding","176","Sculpture_MetalMan.jpg","37","0","608"
"9","9","encoding","encoding","177","Seashell_RoseMurex.jpg","36","0","627"
"9","9","retrieval","old_objects","1","Toy_DollHomeMade.jpg","36","1","1781"
"9","9","retrieval","old_objects","2","Eraser.jpg","36","1","914"
"9","9","retrieval","new_objects","3","Chicken_Dinner.jpg","37","1","1011"
"9","9","retrieval","old_objects","4","GPS.jpg","36","1","1256"
"9","9","retrieval","old_objects","5","sign_traffic.jpg","36","1","953"
"9","9","retrieval","new_objects","6","Bicycle_Adult.jpg","37","1","636"
"9","9","retrieval","new_objects","7","Speakers_Theatre.jpg","37","1","727"
"9","9","retrieval","new_objects","8","ComputerKey_Escape.jpg","37","1","912"
"9","9","retrieval","new_objects","9","BuildingChinese.jpg","37","1","686"
"9","9","retrieval","old_objects","10","HairBand.jpg","36","1","669"
"9","9","retrieval","new_objects","11","Lemon.jpg","37","1","888"
"9","9","retrieval","old_objects","12","Pouch_PotPourri.jpg","36","1","839"
"9","9","retrieval","old_objects","13","Distaff.jpg","36","1","652"
"9","9","retrieval","new_objects","14","Tape_Clear.jpg","37","1","808"
"9","9","retrieval","new_objects","15","Partition.jpg","37","1","691"
"9","9","retrieval","old_objects","16","NewspaperStack.jpg","36","1","675"
"9","9","retrieval","old_objects","17","Backhoe.jpg","36","1","739"
"9","9","retrieval","new_objects","18","Ruler_Wooden.jpg","37","1","759"
"9","9","retrieval","new_objects","19","Flower_Crane.jpg","37","1","870"
"9","9","retrieval","new_objects","20","Ruler_Digital.jpg","37","1","586"
"9","9","retrieval","old_objects","21","Playdoh.jpg","37","0","504"
"9","9","retrieval","old_objects","22","WaterColorPaintset.jpg","36","1","699"
"9","9","retrieval","new_objects","23","Pot_TurkishCoffee.jpg","37","1","976"
"9","9","retrieval","old_objects","24","Suit_Women.jpg","36","1","1002"
"9","9","retrieval","old_objects","25","Kettle.jpg","37","0","1177"
"9","9","retrieval","new_objects","26","Envelope_Letter.jpg","37","1","1224"
"9","9","retrieval","new_objects","27","Container_RedPlastic.jpg","37","1","628"
"9","9","retrieval","new_objects","28","Sign_Caution.jpg","36","0","719"
"9","9","retrieval","new_objects","29","Apple_RedAndGreen.jpg","37","1","599"
"9","9","retrieval","new_objects","30","Canister_Tea.jpg","37","1","653"
"9","9","retrieval","new_objects","31","Shoe_Sneaker.jpg","37","1","758"
"9","9","retrieval","old_objects","32","Leek.jpg","36","1","693"
"9","9","retrieval","old_objects","33","Harmonica.jpg","36","1","554"
"9","9","retrieval","old_objects","34","Bottle_Blue.jpg","36","1","558"
"9","9","retrieval","new_objects","35","ColumnMarble.jpg","37","1","749"
"9","9","retrieval","new_objects","36","Scooter.jpg","37","1","1057"
"9","9","retrieval","old_objects","37","CoolingFan_Engine2.jpg","36","1","744"
"9","9","retrieval","old_objects","38","VialLab.jpg","36","1","675"
"9","9","retrieval","old_objects","39","Mixer_Cement.jpg","36","1","591"
"9","9","retrieval","old_objects","40","SoundMixer_White.jpg","36","1","647"
"9","9","retrieval","new_objects","41","Sink_Kitchen.jpg","37","1","672"
"9","9","retrieval","new_objects","42","SledgeHammer.jpg","37","1","793"
"9","9","retrieval","old_objects","43","RecorderCassette.jpg","36","1","529"
"9","9","retrieval","new_objects","44","MemoPaperSpike.jpg","37","1","567"
"9","9","retrieval","old_objects","45","Suitcase.jpg","36","1","616"
"9","9","retrieval","new_objects","46","Bowl_Glass.jpg","37","1","545"
"9","9","retrieval","new_objects","47","DartBoard.jpg","37","1","633"
"9","9","retrieval","old_objects","48","Ramekin.jpg","36","1","661"
"9","9","retrieval","new_objects","49","Bread_Carrot.jpg","37","1","594"
"9","9","retrieval","old_objects","50","Trowel.jpg","36","1","749"
"9","9","retrieval","new_objects","51","Hat_Cowboy.jpg","37","1","565"
"9","9","retrieval","new_objects","52","Clock_Wall.jpg","37","1","493"
"9","9","retrieval","old_objects","53","Chicken_FriedWing.jpg","36","1","518"
"9","9","retrieval","old_objects","54","Rock_Agate.jpg","36","1","593"
"9","9","retrieval","old_objects","55","Jar_Cookie.jpg","36","1","599"
"9","9","retrieval","new_objects","56","Envelope_Manila.jpg","37","1","603"
"9","9","retrieval","old_objects","57","Pasta_Fusilli.jpg","36","1","583"
"9","9","retrieval","new_objects","58","Wheelbarrow_Green.jpg","37","1","842"
"9","9","retrieval","old_objects","59","Sandcastle.jpg","36","1","617"
"9","9","retrieval","old_objects","60","Drum_Ramadan.jpg","36","1","695"
"9","9","retrieval","new_objects","62","Hockey_Puck.jpg","37","1","616"
"9","9","retrieval","old_objects","63","Tweezers.jpg","36","1","836"
"9","9","retrieval","new_objects","64","Toy_Train.jpg","37","1","606"
"9","9","retrieval","new_objects","65","Humidifier.jpg","37","1","730"
"9","9","retrieval","new_objects","66","Pants.jpg","37","1","628"
"9","9","retrieval","old_objects","67","Boat_Trailer.jpg","36","1","722"
"9","9","retrieval","new_objects","68","Cassette_Audio.jpg","37","1","667"
"9","9","retrieval","new_objects","69","Tape_Scotch.jpg","37","1","1150"
"9","9","retrieval","old_objects","70","DryRack_Dishes.jpg","36","1","690"
"9","9","retrieval","old_objects","71","MouthGuard.jpg","36","1","690"
"9","9","retrieval","old_objects","72","Cup_Styrofoam.jpg","36","1","536"
"9","9","retrieval","old_objects","73","ChainRusty.jpg","36","1","569"
"9","9","retrieval","old_objects","74","Kangaroo.jpg","36","1","575"
"9","9","retrieval","new_objects","75","Carrot.jpg","37","1","721"
"9","9","retrieval","old_objects","76","Lychee.jpg","36","1","580"
"9","9","retrieval","new_objects","77","DJMixer.jpg","36","0","694"
"9","9","retrieval","new_objects","78","Airplane_Fighter.jpg","37","1","572"
"9","9","retrieval","old_objects","79","Bottle_Plastic.jpg","36","1","640"
"9","9","retrieval","new_objects","80","Noose.jpg","37","1","587"
"9","9","retrieval","new_objects","81","Box_GiftTopView.jpg","37","1","716"
"9","9","retrieval","old_objects","82","Condom.jpg","36","1","725"
"9","9","retrieval","old_objects","83","Pipe_Pitch.jpg","36","1","691"
"9","9","retrieval","old_objects","84","ScannerShoplifting.jpg","36","1","711"
"9","9","retrieval","old_objects","85","ProcessorFood_Old.jpg","36","1","569"
"9","9","retrieval","new_objects","86","Light_PostIsolated.jpg","37","1","534"
"9","9","retrieval","old_objects","87","Bed_Hospital.jpg","36","1","899"
"9","9","retrieval","old_objects","88","Celery.jpg","36","1","607"
"9","9","retrieval","new_objects","89","Candle_ChristmasDecor.jpg","37","1","589"
"9","9","retrieval","new_objects","90","Cantaloupe.jpg","37","1","813"
"9","9","retrieval","new_objects","91","Organ.jpg","37","1","751"
"9","9","retrieval","old_objects","92","DryingMachine.jpg","37","0","552"
"9","9","retrieval","new_objects","93","SmokingPipe.jpg","36","0","962"
"9","9","retrieval","old_objects","94","Ship_Model.jpg","36","1","663"
"9","9","retrieval","old_objects","95","Shrub_Boxwood.jpg","36","1","631"
"9","9","retrieval","old_objects","96","Light_Traffic.jpg","36","1","606"
"9","9","retrieval","new_objects","97","Boombox.jpg","37","1","844"
"9","9","retrieval","old_objects","98","Stone_Spa.jpg","36","1","678"
"9","9","retrieval","new_objects","99","Mallet.jpg","37","1","686"
"9","9","retrieval","old_objects","100","HerbsInBag.jpg","36","1","611"
"9","9","retrieval","new_objects","101","Hulahoop.jpg","37","1","616"
"9","9","retrieval","old_objects","102","Dreidel.jpg","37","0","637"
"9","9","retrieval","new_objects","103","Cleaver_Meat.jpg","37","1","677"
"9","9","retrieval","old_objects","104","Sculpture_MetalMan.jpg","36","1","760"
"9","9","retrieval","old_objects","105","Magnifying_Glass.jpg","36","1","945"
"9","9","retrieval","new_objects","106","ScrewDriver.jpg","37","1","616"
"9","9","retrieval","new_objects","107","MannequinHead.jpg","37","1","905"
