"group","subject","blockcode","trialcode","trialnum","values.stimulus","response","correct","latency"
"2","2","encoding","encoding","1","Ruler_Digital.jpg","0","0","2000"
"2","2","encoding","encoding","2","Soap.jpg","36","0","1649"
"2","2","encoding","encoding","3","Shoes_Snowboarding.jpg","36","0","1573"
"2","2","encoding","encoding","4","ColumnMarble.jpg","37","0","1454"
"2","2","encoding","encoding","5","JuiceBox.jpg","37","0","1393"
"2","2","encoding","encoding","6","Knife_Butter.jpg","37","0","862"
"2","2","encoding","encoding","7","Nail.jpg","37","0","969"
"2","2","encoding","encoding","8","Toy_Drill.jpg","37","0","625"
"2","2","encoding","encoding","9","Plunger.jpg","37","0","629"
"2","2","encoding","encoding","10","AirVent.jpg","37","0","678"
"2","2","encoding","encoding","11","Light_PostIsolated.jpg","37","0","483"
"2","2","encoding","encoding","12","Hat_Tuque.jpg","37","0","534"
"2","2","encoding","encoding","13","Mask_Viking.jpg","37","0","553"
"2","2","encoding","encoding","14","Flower_Crane.jpg","36","0","1028"
"2","2","encoding","encoding","15","Ruler_Wooden.jpg","37","0","474"
"2","2","encoding","encoding","16","Pot_TurkishCoffee.jpg","37","0","534"
"2","2","encoding","encoding","17","PeriodicTable.jpg","37","0","522"
"2","2","encoding","encoding","18","Tape_Clear.jpg","37","0","837"
"2","2","encoding","encoding","19","Zucchini.jpg","36","0","546"
"2","2","encoding","encoding","20","Sieve_SideView.jpg","37","0","616"
"2","2","encoding","encoding","21","Jar_Strawberry.jpg","37","0","1112"
"2","2","encoding","encoding","22","Cord_usb.jpg","37","0","530"
"2","2","encoding","encoding","23","Scooter.jpg","37","0","468"
"2","2","encoding","encoding","24","Toy_RockingHorseBlack.jpg","37","0","512"
"2","2","encoding","encoding","25","KeyHook_Occupied.jpg","37","0","613"
"2","2","encoding","encoding","26","Camera_Digital.jpg","37","0","547"
"2","2","encoding","encoding","27","Hulahoop.jpg","37","0","550"
"2","2","encoding","encoding","28","Star.jpg","37","0","757"
"2","2","encoding","encoding","29","Thermos_Decorated.jpg","37","0","492"
"2","2","encoding","encoding","30","Heater_Outdoor.jpg","37","0","444"
"2","2","encoding","encoding","31","Camera_Antique.jpg","37","0","478"
"2","2","encoding","encoding","32","Balalaika.jpg","37","0","458"
"2","2","encoding","encoding","33","Comb_1.jpg","37","0","557"
"2","2","encoding","encoding","34","Oyster.jpg","36","0","774"
"2","2","encoding","encoding","35","Toy_Babydoll.jpg","37","0","683"
"2","2","encoding","encoding","36","Cassette_Audio.jpg","37","0","503"
"2","2","encoding","encoding","37","Clock_Wall.jpg","37","0","571"
"2","2","encoding","encoding","38","DJMixer.jpg","37","0","517"
"2","2","encoding","encoding","39","Chicken_Dinner.jpg","37","0","938"
"2","2","encoding","encoding","40","Toolbox_BlackOpen.jpg","37","0","483"
"2","2","encoding","encoding","41","Wontons.jpg","37","0","1073"
"2","2","encoding","encoding","42","FortuneCookie.jpg","37","0","899"
"2","2","encoding","encoding","43","FlashlightHeadBand.jpg","37","0","541"
"2","2","encoding","encoding","44","Speaker_OnStand.jpg","37","0","483"
"2","2","encoding","encoding","45","Tape_Washi.jpg","37","0","590"
"2","2","encoding","encoding","46","Bus_DoubleDecker.jpg","37","0","632"
"2","2","encoding","encoding","47","Lemon.jpg","36","0","692"
"2","2","encoding","encoding","48","PirateFlag.jpg","37","0","581"
"2","2","encoding","encoding","49","Stool_Foot.jpg","37","0","465"
"2","2","encoding","encoding","50","Compact_Powder.jpg","37","0","522"
"2","2","encoding","encoding","51","Jar_JellyBeans.jpg","37","0","700"
"2","2","encoding","encoding","52","Organ.jpg","37","0","465"
"2","2","encoding","encoding","53","Fireplace_Outdoor.jpg","37","0","403"
"2","2","encoding","encoding","54","Carbiner_Ascender.jpg","37","0","510"
"2","2","encoding","encoding","55","Bed_ChildBirch.jpg","37","0","887"
"2","2","encoding","encoding","56","Lettuce_Romaine.jpg","36","0","921"
"2","2","encoding","encoding","57","Mask_Masquerade.jpg","37","0","520"
"2","2","encoding","encoding","58","Lunchbox.jpg","37","0","570"
"2","2","encoding","encoding","59","Cantaloupe.jpg","36","0","887"
"2","2","encoding","encoding","60","Box_Chocolate.jpg","37","0","591"
"2","2","encoding","encoding","62","Humidifier.jpg","37","0","649"
"2","2","encoding","encoding","63","Toy_BlocksPlastic Colourful.jpg","37","0","477"
"2","2","encoding","encoding","64","Speakers_Theatre.jpg","37","0","448"
"2","2","encoding","encoding","65","SledgeHammer.jpg","37","0","419"
"2","2","encoding","encoding","66","Bird_Falcon.jpg","36","0","802"
"2","2","encoding","encoding","67","ComputerKey_Escape.jpg","37","0","530"
"2","2","encoding","encoding","68","Chicken_Raw.jpg","36","0","1097"
"2","2","encoding","encoding","69","Toy_Helicopter.jpg","37","0","574"
"2","2","encoding","encoding","70","Statue_SouthAmerican.jpg","37","0","734"
"2","2","encoding","encoding","71","InflatableSleepingBag.jpg","37","0","555"
"2","2","encoding","encoding","72","Gloves_Winter.jpg","37","0","457"
"2","2","encoding","encoding","73","Toy_Slinky.jpg","37","0","572"
"2","2","encoding","encoding","74","PillBottle_Prescription.jpg","37","0","798"
"2","2","encoding","encoding","75","Trash_Medical.jpg","37","0","906"
"2","2","encoding","encoding","76","Bowl_Cereal.jpg","37","0","917"
"2","2","encoding","encoding","77","Cleaver_Meat.jpg","37","0","470"
"2","2","encoding","encoding","78","Drum_Conga.jpg","37","0","469"
"2","2","encoding","encoding","79","Candle_ChristmasDecor.jpg","37","0","798"
"2","2","encoding","encoding","80","Wire_Soldering.jpg","37","0","498"
"2","2","encoding","encoding","81","Toy_RaceTrack.jpg","37","0","465"
"2","2","encoding","encoding","82","Hat_Cowboy.jpg","37","0","821"
"2","2","encoding","encoding","83","Car_Sedan.jpg","37","0","731"
"2","2","encoding","encoding","84","Knife_Kitchen.jpg","37","0","747"
"2","2","encoding","encoding","85","MilkPitcher.jpg","37","0","1598"
"2","2","encoding","encoding","86","Brooch_Fish.jpg","37","0","1015"
"2","2","encoding","encoding","87","Apple_RedAndGreen.jpg","36","0","771"
"2","2","encoding","encoding","88","Canister_Tea.jpg","37","0","666"
"2","2","encoding","encoding","89","Bread_Loaf.jpg","37","0","1234"
"2","2","encoding","encoding","90","Envelope_Manila.jpg","37","0","754"
"2","2","encoding","encoding","91","LightBulb_White.jpg","37","0","591"
"2","2","encoding","encoding","92","BridgeWooden.jpg","37","0","710"
"2","2","encoding","encoding","93","WaterFountain.jpg","37","0","755"
"2","2","encoding","encoding","94","TowerEiffel.jpg","37","0","761"
"2","2","encoding","encoding","95","DonaldDuck_Toy.jpg","37","0","632"
"2","2","encoding","encoding","96","DartBoard.jpg","37","0","612"
"2","2","encoding","encoding","97","SmokingPipe.jpg","37","0","745"
"2","2","encoding","encoding","98","Sandwich_Egg.jpg","37","0","1057"
"2","2","encoding","encoding","99","Bowl_Glass.jpg","37","0","711"
"2","2","encoding","encoding","100","Boots_KneeHigh.jpg","37","0","664"
"2","2","encoding","encoding","101","Socks_Winter.jpg","37","0","612"
"2","2","encoding","encoding","102","Wheelbarrow_Green.jpg","37","0","543"
"2","2","encoding","encoding","103","Statue_Head.jpg","37","0","753"
"2","2","encoding","encoding","104","Keychain_Metal.jpg","37","0","691"
"2","2","encoding","encoding","105","TomatoSauce.jpg","37","0","849"
"2","2","encoding","encoding","106","Chair_PlasticGreen.jpg","37","0","640"
"2","2","encoding","encoding","107","Headphones.jpg","37","0","547"
"2","2","encoding","encoding","108","Toy_Train.jpg","37","0","483"
"2","2","encoding","encoding","109","SculptureMetalFish.jpg","37","0","659"
"2","2","encoding","encoding","110","Bicycle_Adult.jpg","37","0","654"
"2","2","encoding","encoding","111","Crossbow.jpg","37","0","530"
"2","2","encoding","encoding","112","MemoPaperSpike.jpg","37","0","772"
"2","2","encoding","encoding","113","Boombox.jpg","37","0","541"
"2","2","encoding","encoding","114","Pot_BlackOld.jpg","37","0","523"
"2","2","encoding","encoding","115","Bindings_Snowboard.jpg","37","0","702"
"2","2","encoding","encoding","116","Shrub_Cedar.jpg","36","0","1067"
"2","2","encoding","encoding","117","Airplane_Fighter.jpg","37","0","482"
"2","2","encoding","encoding","118","Box_GiftTopView.jpg","37","0","923"
"2","2","encoding","encoding","119","Puffin.jpg","36","0","1115"
"2","2","encoding","encoding","120","BuildingChinese.jpg","37","0","1024"
"2","2","encoding","encoding","121","Pumpkin.jpg","36","0","750"
"2","2","encoding","encoding","123","Hockey_Puck.jpg","37","0","942"
"2","2","encoding","encoding","124","PedestalGreek.jpg","37","0","513"
"2","2","encoding","encoding","125","Sink_Kitchen.jpg","37","0","598"
"2","2","encoding","encoding","126","Colosseum.jpg","37","0","591"
"2","2","encoding","encoding","127","Envelope_Letter.jpg","37","0","1098"
"2","2","encoding","encoding","128","Mallet.jpg","37","0","570"
"2","2","encoding","encoding","129","Dog_Bulldog.jpg","36","0","854"
"2","2","encoding","encoding","130","Toy_StackingRing.jpg","37","0","605"
"2","2","encoding","encoding","131","Glass_Beer.jpg","37","0","837"
"2","2","encoding","encoding","132","Backpack_Travel.jpg","37","0","665"
"2","2","encoding","encoding","133","Guitarcase.jpg","37","0","749"
"2","2","encoding","encoding","134","Fan_Blades.jpg","37","0","653"
"2","2","encoding","encoding","135","ControlPanel.jpg","37","0","567"
"2","2","encoding","encoding","136","Pants.jpg","37","0","809"
"2","2","encoding","encoding","137","Cannon.jpg","37","0","640"
"2","2","encoding","encoding","138","Shoe_Sneaker.jpg","37","0","518"
"2","2","encoding","encoding","139","FireExtinguisher.jpg","37","0","482"
"2","2","encoding","encoding","140","Ambulance.jpg","37","0","497"
"2","2","encoding","encoding","141","Clock_Interior.jpg","37","0","623"
"2","2","encoding","encoding","142","Toy_Octopus.jpg","37","0","694"
"2","2","encoding","encoding","143","Toy_Shark.jpg","37","0","806"
"2","2","encoding","encoding","144","Kite_Rainbow.jpg","37","0","613"
"2","2","encoding","encoding","145","Dolphine.jpg","36","0","1017"
"2","2","encoding","encoding","146","Spider.jpg","36","0","805"
"2","2","encoding","encoding","147","Jet.jpg","37","0","569"
"2","2","encoding","encoding","148","Helmet_Football.jpg","37","0","430"
"2","2","encoding","encoding","149","Sign_Caution.jpg","37","0","557"
"2","2","encoding","encoding","150","Brush_Nail.jpg","37","0","525"
"2","2","encoding","encoding","151","RecorderInstrument.jpg","37","0","779"
"2","2","encoding","encoding","152","Pineapple.jpg","36","0","635"
"2","2","encoding","encoding","153","JumpingJack.jpg","37","0","551"
"2","2","encoding","encoding","154","Airplane_Commercial.jpg","37","0","412"
"2","2","encoding","encoding","155","Banana.jpg","36","0","634"
"2","2","encoding","encoding","156","Bread_Carrot.jpg","37","0","1160"
"2","2","encoding","encoding","157","Tape_Scotch.jpg","37","0","547"
"2","2","encoding","encoding","158","Hat_Hard.jpg","37","0","484"
"2","2","encoding","encoding","159","MassageRoller.jpg","37","0","428"
"2","2","encoding","encoding","160","Cabasa.jpg","37","0","517"
"2","2","encoding","encoding","161","MetalDetector.jpg","37","0","520"
"2","2","encoding","encoding","162","Fortress.jpg","37","0","667"
"2","2","encoding","encoding","163","Bread_Roll.jpg","37","0","898"
"2","2","encoding","encoding","164","TeethMould.jpg","37","0","954"
"2","2","encoding","encoding","165","Cologne.jpg","37","0","520"
"2","2","encoding","encoding","166","Container_RedPlastic.jpg","37","0","596"
"2","2","encoding","encoding","167","Ladle.jpg","37","0","598"
"2","2","encoding","encoding","168","BinRecycling.jpg","37","0","587"
"2","2","encoding","encoding","169","MatchBook.jpg","37","0","629"
"2","2","encoding","encoding","170","Squash_Pumpkin.jpg","36","0","767"
"2","2","encoding","encoding","171","Speaker_Computer.jpg","37","0","632"
"2","2","encoding","encoding","172","Carrot.jpg","36","0","688"
"2","2","encoding","encoding","173","MannequinHead.jpg","37","0","1283"
"2","2","encoding","encoding","174","Noose.jpg","37","0","741"
"2","2","encoding","encoding","175","ScrewDriver.jpg","37","0","494"
"2","2","encoding","encoding","176","Plum.jpg","36","0","845"
"2","2","encoding","encoding","177","Partition.jpg","37","0","531"
"2","2","retrieval","old_objects","1","Container_RedPlastic.jpg","36","1","1141"
"2","2","retrieval","new_objects","2","Instrument_Guiro.jpg","37","1","734"
"2","2","retrieval","old_objects","3","Heater_Outdoor.jpg","37","0","798"
"2","2","retrieval","new_objects","4","Archery_Arrows.jpg","37","1","693"
"2","2","retrieval","new_objects","5","Bible.jpg","37","1","662"
"2","2","retrieval","old_objects","6","Camera_Antique.jpg","37","0","1167"
"2","2","retrieval","new_objects","7","Pipe.jpg","37","1","960"
"2","2","retrieval","old_objects","8","Toy_Slinky.jpg","36","1","586"
"2","2","retrieval","new_objects","9","Flamingo_Cartoon.jpg","37","1","584"
"2","2","retrieval","new_objects","10","BicycleOdometer.jpg","37","1","801"
"2","2","retrieval","old_objects","11","Cabasa.jpg","36","1","616"
"2","2","retrieval","old_objects","12","Ruler_Digital.jpg","37","0","583"
"2","2","retrieval","new_objects","13","TortillaChip.jpg","37","1","768"
"2","2","retrieval","old_objects","14","BinRecycling.jpg","36","1","682"
"2","2","retrieval","new_objects","15","Pottery.jpg","37","1","914"
"2","2","retrieval","new_objects","16","Avocado.jpg","37","1","745"
"2","2","retrieval","new_objects","17","DrinkShaker.jpg","36","0","769"
"2","2","retrieval","new_objects","18","Desk_Office.jpg","37","1","700"
"2","2","retrieval","old_objects","19","Airplane_Fighter.jpg","36","1","715"
"2","2","retrieval","old_objects","20","Bowl_Glass.jpg","36","1","759"
"2","2","retrieval","old_objects","21","Pineapple.jpg","36","1","580"
"2","2","retrieval","new_objects","22","Hazelnut.jpg","37","1","668"
"2","2","retrieval","new_objects","23","PatioHeater.jpg","36","0","667"
"2","2","retrieval","old_objects","24","Cleaver_Meat.jpg","37","0","1193"
"2","2","retrieval","new_objects","25","Cat.jpg","37","1","613"
"2","2","retrieval","new_objects","26","Toy_Lion.jpg","37","1","897"
"2","2","retrieval","new_objects","27","Cheeseburger.jpg","37","1","607"
"2","2","retrieval","new_objects","28","Grill_Gas.jpg","37","1","606"
"2","2","retrieval","old_objects","29","Hat_Hard.jpg","36","1","846"
"2","2","retrieval","new_objects","30","AmpMeter.jpg","37","1","1002"
"2","2","retrieval","old_objects","31","Toolbox_BlackOpen.jpg","36","1","834"
"2","2","retrieval","old_objects","32","Carbiner_Ascender.jpg","36","1","734"
"2","2","retrieval","new_objects","33","Boardgame_Chess.jpg","37","1","578"
"2","2","retrieval","old_objects","34","Pumpkin.jpg","36","1","821"
"2","2","retrieval","new_objects","35","GranolaBar.jpg","37","1","607"
"2","2","retrieval","new_objects","36","Owl.jpg","37","1","694"
"2","2","retrieval","new_objects","37","Flower_Hibiscus.jpg","37","1","633"
"2","2","retrieval","old_objects","38","Lunchbox.jpg","36","1","919"
"2","2","retrieval","old_objects","39","Jar_JellyBeans.jpg","36","1","716"
"2","2","retrieval","new_objects","40","Helmet_Soldier.jpg","37","1","617"
"2","2","retrieval","old_objects","41","Cord_usb.jpg","37","0","1951"
"2","2","retrieval","old_objects","42","Gloves_Winter.jpg","37","0","534"
"2","2","retrieval","new_objects","43","Sashimi.jpg","37","1","874"
"2","2","retrieval","old_objects","44","DJMixer.jpg","37","0","726"
"2","2","retrieval","new_objects","45","RibbonString.jpg","37","1","611"
"2","2","retrieval","old_objects","46","Pot_TurkishCoffee.jpg","36","1","788"
"2","2","retrieval","old_objects","47","Compact_Powder.jpg","36","1","763"
"2","2","retrieval","new_objects","48","Sieve_TopView.jpg","0","0","2000"
"2","2","retrieval","old_objects","49","Comb_1.jpg","36","1","833"
"2","2","retrieval","old_objects","50","Guitarcase.jpg","36","1","1308"
"2","2","retrieval","old_objects","51","Sieve_SideView.jpg","36","1","665"
"2","2","retrieval","old_objects","52","WaterFountain.jpg","36","1","809"
"2","2","retrieval","new_objects","53","Escalator.jpg","37","1","673"
"2","2","retrieval","old_objects","54","Dolphine.jpg","36","1","700"
"2","2","retrieval","new_objects","55","ChocolateBar_Unwrapped.jpg","37","1","538"
"2","2","retrieval","old_objects","56","Speaker_Computer.jpg","36","1","771"
"2","2","retrieval","old_objects","57","TomatoSauce.jpg","36","1","629"
"2","2","retrieval","old_objects","58","Speaker_OnStand.jpg","36","1","595"
"2","2","retrieval","new_objects","59","Toy_FigurineSwing.jpg","37","1","549"
"2","2","retrieval","old_objects","60","Drum_Conga.jpg","37","0","750"
"2","2","retrieval","old_objects","62","Envelope_Letter.jpg","37","0","758"
"2","2","retrieval","new_objects","63","Mask_HockeyGoalie.jpg","37","1","711"
"2","2","retrieval","new_objects","64","TinChristmas.jpg","37","1","797"
"2","2","retrieval","old_objects","65","Nail.jpg","37","0","689"
"2","2","retrieval","new_objects","66","Blueberry.jpg","37","1","794"
"2","2","retrieval","old_objects","67","MassageRoller.jpg","36","1","751"
"2","2","retrieval","old_objects","68","Toy_Babydoll.jpg","36","1","691"
"2","2","retrieval","new_objects","69","Bowl_Chinese.jpg","37","1","607"
"2","2","retrieval","new_objects","70","ServiceBell.jpg","37","1","807"
"2","2","retrieval","old_objects","71","ScrewDriver.jpg","37","0","682"
"2","2","retrieval","new_objects","72","Puzzle_Tree.jpg","37","1","538"
"2","2","retrieval","new_objects","73","ChalkLineTool.jpg","37","1","621"
"2","2","retrieval","new_objects","74","SewingPin_Single.jpg","37","1","626"
"2","2","retrieval","new_objects","75","MusicSheet.jpg","37","1","600"
"2","2","retrieval","new_objects","76","RAMchip.jpg","37","1","572"
"2","2","retrieval","new_objects","77","Case_Pencil.jpg","37","1","765"
"2","2","retrieval","old_objects","78","MannequinHead.jpg","36","1","654"
"2","2","retrieval","old_objects","79","MatchBook.jpg","36","1","644"
"2","2","retrieval","old_objects","80","Tape_Scotch.jpg","36","1","598"
"2","2","retrieval","new_objects","81","Shirt_Tshirt.jpg","37","1","673"
"2","2","retrieval","old_objects","82","Toy_RockingHorseBlack.jpg","36","1","693"
"2","2","retrieval","old_objects","83","Statue_Head.jpg","36","1","707"
"2","2","retrieval","old_objects","84","Toy_Train.jpg","36","1","596"
"2","2","retrieval","old_objects","85","Wontons.jpg","36","1","645"
"2","2","retrieval","new_objects","86","Statue_VirginMary.jpg","37","1","543"
"2","2","retrieval","new_objects","87","Whip.jpg","37","1","537"
"2","2","retrieval","new_objects","88","HairDryer.jpg","37","1","600"
"2","2","retrieval","old_objects","89","ControlPanel.jpg","37","0","484"
"2","2","retrieval","new_objects","90","PotatoMasher_Zigzag.jpg","37","1","619"
"2","2","retrieval","old_objects","91","Hulahoop.jpg","36","1","675"
"2","2","retrieval","new_objects","92","Table_Set.jpg","37","1","622"
"2","2","retrieval","new_objects","93","Lantern_TeaBox.jpg","37","1","593"
"2","2","retrieval","old_objects","94","Box_GiftTopView.jpg","36","1","679"
"2","2","retrieval","new_objects","95","Brush_Light.jpg","37","1","661"
"2","2","retrieval","old_objects","96","Squash_Pumpkin.jpg","36","1","799"
"2","2","retrieval","old_objects","97","Socks_Winter.jpg","37","0","628"
"2","2","retrieval","old_objects","98","MetalDetector.jpg","37","0","838"
"2","2","retrieval","new_objects","99","Heelpad.jpg","37","1","548"
"2","2","retrieval","old_objects","100","Speakers_Theatre.jpg","36","1","690"
"2","2","retrieval","new_objects","101","Flute_Tin.jpg","37","1","887"
"2","2","retrieval","new_objects","102","Toy_MerryGoRound.jpg","37","1","691"
"2","2","retrieval","old_objects","103","Plunger.jpg","36","1","652"
"2","2","retrieval","old_objects","104","Chair_PlasticGreen.jpg","36","1","588"
"2","2","retrieval","new_objects","105","DoorKnob.jpg","37","1","696"
"2","2","retrieval","new_objects","106","Toy_Chameleon.jpg","37","1","639"
"2","2","retrieval","new_objects","107","Belt.jpg","37","1","648"
"2","2","retrieval","new_objects","108","Booties_Blue.jpg","37","1","777"
"2","2","retrieval","old_objects","109","Banana.jpg","36","1","561"
"2","2","retrieval","new_objects","110","BunsenBurner.jpg","37","1","636"
"2","2","retrieval","new_objects","111","BowlingPin.jpg","37","1","796"
"2","2","retrieval","new_objects","112","CarSuspension.jpg","37","1","649"
"2","2","retrieval","new_objects","113","Wire_ElectricalSingle.jpg","37","1","726"
"2","2","retrieval","old_objects","114","Toy_Helicopter.jpg","37","0","700"
"2","2","retrieval","new_objects","115","KitchenTools.jpg","37","1","796"
"2","2","retrieval","old_objects","116","Bed_ChildBirch.jpg","37","0","766"
"2","2","retrieval","new_objects","117","Candelabra.jpg","37","1","566"
"2","2","retrieval","new_objects","118","Thumbtack.jpg","36","0","748"
"2","2","retrieval","new_objects","119","Booth_Carnival.jpg","37","1","678"
"2","2","retrieval","new_objects","120","Cannister_Gas.jpg","37","1","1079"
"2","2","retrieval","old_objects","121","Plum.jpg","36","1","592"
"2","2","retrieval","new_objects","123","Honeycomb.jpg","37","1","591"
"2","2","retrieval","old_objects","124","Lettuce_Romaine.jpg","36","1","696"
"2","2","retrieval","old_objects","125","DonaldDuck_Toy.jpg","37","0","567"
"2","2","retrieval","old_objects","126","SledgeHammer.jpg","36","1","737"
"2","2","retrieval","old_objects","127","Helmet_Football.jpg","36","1","612"
"2","2","retrieval","new_objects","128","Tap.jpg","37","1","635"
"2","2","retrieval","old_objects","129","Fireplace_Outdoor.jpg","37","0","541"
"2","2","retrieval","old_objects","130","Glass_Beer.jpg","36","1","953"
"2","2","retrieval","new_objects","131","Nutcracker.jpg","37","1","663"
"2","2","retrieval","new_objects","132","Corn.jpg","36","0","1001"
"2","2","retrieval","old_objects","133","Lemon.jpg","36","1","562"
"2","2","retrieval","new_objects","134","Sign_SlipperyRoad.jpg","37","1","567"
"2","2","retrieval","old_objects","135","Colosseum.jpg","36","1","896"
"2","2","retrieval","old_objects","136","Zucchini.jpg","36","1","543"
"2","2","retrieval","new_objects","137","IroningBoard.jpg","37","1","617"
"2","2","retrieval","old_objects","138","Bread_Loaf.jpg","36","1","598"
"2","2","retrieval","new_objects","139","PylonTraffic.jpg","37","1","590"
"2","2","retrieval","old_objects","140","Noose.jpg","36","1","667"
"2","2","retrieval","new_objects","141","RollingPin.jpg","37","1","647"
"2","2","retrieval","old_objects","142","Cannon.jpg","37","0","606"
"2","2","retrieval","old_objects","143","ColumnMarble.jpg","36","1","697"
"2","2","retrieval","new_objects","144","PaperTowel_Kitchen.jpg","37","1","683"
"2","2","retrieval","new_objects","145","Seashell_BayScallop.jpg","37","1","616"
"2","2","retrieval","old_objects","146","Backpack_Travel.jpg","37","0","1310"
"2","2","retrieval","old_objects","147","Light_PostIsolated.jpg","37","0","591"
"2","2","retrieval","new_objects","148","Syringe_Blunt.jpg","37","1","765"
"2","2","retrieval","new_objects","149","Bag_Satchel.jpg","37","1","643"
"2","2","retrieval","new_objects","150","ComputerMouse.jpg","37","1","738"
"2","2","retrieval","old_objects","151","Statue_SouthAmerican.jpg","36","1","1310"
"2","2","retrieval","old_objects","152","Cantaloupe.jpg","36","1","661"
"2","2","retrieval","new_objects","153","Ship_Cruise.jpg","37","1","668"
"2","2","retrieval","old_objects","154","Chicken_Dinner.jpg","36","1","989"
"2","2","retrieval","old_objects","155","Airplane_Commercial.jpg","36","1","637"
"2","2","retrieval","new_objects","156","Nuts_Pecan.jpg","37","1","980"
"2","2","retrieval","new_objects","157","Windmill_Building.jpg","37","1","560"
"2","2","retrieval","old_objects","158","KeyHook_Occupied.jpg","36","1","753"
"2","2","retrieval","new_objects","159","CheeseSlicer.jpg","37","1","693"
"2","2","retrieval","new_objects","160","Jack.jpg","37","1","686"
"2","2","retrieval","old_objects","161","Balalaika.jpg","36","1","685"
"2","2","retrieval","new_objects","162","Barometer_Wood.jpg","37","1","658"
"2","2","retrieval","old_objects","163","Bread_Carrot.jpg","36","1","725"
"2","2","retrieval","new_objects","164","GasBurner.jpg","37","1","662"
"2","2","retrieval","old_objects","165","Canister_Tea.jpg","36","1","712"
"2","2","retrieval","new_objects","166","Drill.jpg","37","1","597"
"2","2","retrieval","new_objects","167","Stapler_Gun.jpg","37","1","638"
"2","2","retrieval","new_objects","168","Iron_Antique.jpg","37","1","613"
"2","2","retrieval","old_objects","169","FireExtinguisher.jpg","37","0","642"
"2","2","retrieval","old_objects","170","Tape_Washi.jpg","36","1","691"
"2","2","retrieval","old_objects","171","PillBottle_Prescription.jpg","36","1","636"
"2","2","retrieval","old_objects","172","TeethMould.jpg","36","1","553"
"2","2","retrieval","old_objects","173","Ruler_Wooden.jpg","36","1","600"
"2","2","retrieval","new_objects","174","Elephant.jpg","37","1","784"
"2","2","retrieval","old_objects","175","Ladle.jpg","37","0","827"
"2","2","retrieval","old_objects","176","Hat_Tuque.jpg","37","0","564"
"2","2","retrieval","new_objects","177","CertificateFramed.jpg","37","1","548"
"2","2","retrieval","new_objects","178","NintendoWii.jpg","37","1","627"
"2","2","retrieval","old_objects","179","Headphones.jpg","37","0","728"
"2","2","retrieval","new_objects","180","CableConnecter.jpg","37","1","581"
"2","2","retrieval","new_objects","181","LaundryHamper.jpg","37","1","604"
"2","2","retrieval","old_objects","182","Dog_Bulldog.jpg","37","0","831"
"2","2","retrieval","old_objects","184","MilkPitcher.jpg","36","1","799"
"2","2","retrieval","old_objects","185","Mallet.jpg","36","1","871"
"2","2","retrieval","old_objects","186","Boots_KneeHigh.jpg","37","0","683"
"2","2","retrieval","new_objects","187","SatelliteDish.jpg","37","1","601"
"2","2","retrieval","old_objects","188","FlashlightHeadBand.jpg","37","0","628"
"2","2","retrieval","old_objects","189","Clock_Wall.jpg","37","0","633"
"2","2","retrieval","new_objects","190","MeasuringTape.jpg","37","1","787"
"2","2","retrieval","new_objects","191","Trumpet.jpg","37","1","507"
"2","2","retrieval","new_objects","192","TrapAnimal.jpg","37","1","577"
"2","2","retrieval","old_objects","193","Organ.jpg","36","1","782"
"2","2","retrieval","new_objects","194","PocketKnife.jpg","37","1","675"
"2","2","retrieval","old_objects","195","Brush_Nail.jpg","37","0","831"
"2","2","retrieval","old_objects","196","Soap.jpg","36","1","953"
"2","2","retrieval","old_objects","197","Sandwich_Egg.jpg","37","0","692"
"2","2","retrieval","old_objects","198","Shoes_Snowboarding.jpg","37","0","553"
"2","2","retrieval","new_objects","199","Drum_Cymbal.jpg","37","1","560"
"2","2","retrieval","old_objects","200","MemoPaperSpike.jpg","37","0","666"
"2","2","retrieval","new_objects","201","Toy_RobotClassic.jpg","37","1","553"
"2","2","retrieval","old_objects","202","Bread_Roll.jpg","36","1","684"
"2","2","retrieval","old_objects","203","Mask_Masquerade.jpg","36","1","604"
"2","2","retrieval","new_objects","204","Ladder.jpg","37","1","837"
"2","2","retrieval","old_objects","205","Bowl_Cereal.jpg","36","1","593"
"2","2","retrieval","new_objects","206","WireStripper.jpg","37","1","722"
"2","2","retrieval","old_objects","207","Chicken_Raw.jpg","36","1","615"
"2","2","retrieval","new_objects","208","Candy_Heart.jpg","37","1","656"
"2","2","retrieval","old_objects","209","SculptureMetalFish.jpg","37","0","593"
"2","2","retrieval","new_objects","210","Bird_Cardinal.jpg","37","1","649"
"2","2","retrieval","new_objects","211","SmokeDetector.jpg","37","1","581"
"2","2","retrieval","new_objects","212","Teardrop.jpg","37","1","650"
"2","2","retrieval","new_objects","213","Honeydew_Green.jpg","37","1","971"
"2","2","retrieval","new_objects","214","Balcony.jpg","37","1","511"
"2","2","retrieval","old_objects","215","Flower_Crane.jpg","37","0","883"
"2","2","retrieval","old_objects","216","Star.jpg","36","1","667"
"2","2","retrieval","new_objects","217","Machine_Arm.jpg","37","1","558"
"2","2","retrieval","new_objects","218","WateringCan_PlasticDarkGreen.jpg","37","1","720"
"2","2","retrieval","new_objects","219","Hat_Police.jpg","37","1","597"
"2","2","retrieval","new_objects","220","SewingPin_Cushion.jpg","37","1","733"
"2","2","retrieval","new_objects","221","Bottle_Bleach.jpg","37","1","525"
"2","2","retrieval","old_objects","222","Candle_ChristmasDecor.jpg","36","1","792"
"2","2","retrieval","old_objects","223","Shoe_Sneaker.jpg","37","0","580"
"2","2","retrieval","old_objects","224","Mask_Viking.jpg","37","0","713"
"2","2","retrieval","old_objects","225","Scooter.jpg","37","0","586"
"2","2","retrieval","old_objects","226","AirVent.jpg","36","1","681"
"2","2","retrieval","new_objects","227","StickyTack.jpg","37","1","762"
"2","2","retrieval","new_objects","228","TireRims.jpg","37","1","652"
"2","2","retrieval","old_objects","229","Hat_Cowboy.jpg","37","0","566"
"2","2","retrieval","old_objects","230","Car_Sedan.jpg","37","0","674"
"2","2","retrieval","old_objects","231","Fortress.jpg","36","1","750"
"2","2","retrieval","new_objects","232","Buffalo.jpg","37","1","597"
"2","2","retrieval","old_objects","233","Wheelbarrow_Green.jpg","37","0","791"
"2","2","retrieval","new_objects","234","Lamp_Table.jpg","37","1","566"
"2","2","retrieval","old_objects","235","Camera_Digital.jpg","37","0","538"
"2","2","retrieval","new_objects","236","Piano_Keyboard.jpg","37","1","566"
"2","2","retrieval","old_objects","237","Partition.jpg","37","0","901"
"2","2","retrieval","new_objects","238","Dress_Cocktail.jpg","37","1","608"
"2","2","retrieval","new_objects","239","Briefcase_Open.jpg","37","1","574"
"2","2","retrieval","new_objects","240","Jug_Milk.jpg","37","1","561"
"2","2","retrieval","new_objects","241","CoffeeBeans.jpg","37","1","559"
"2","2","retrieval","new_objects","242","Horseshoe.jpg","37","1","691"
"2","2","retrieval","new_objects","243","ThreeHolePunch.jpg","37","1","471"
"2","2","retrieval","new_objects","245","Box_WoodenClosed.jpg","37","1","570"
"2","2","retrieval","old_objects","246","JumpingJack.jpg","37","0","505"
"2","2","retrieval","old_objects","247","BuildingChinese.jpg","36","1","542"
"2","2","retrieval","new_objects","248","Chair_High.jpg","37","1","590"
"2","2","retrieval","new_objects","249","Trunk.jpg","37","1","514"
"2","2","retrieval","old_objects","250","Bicycle_Adult.jpg","37","0","455"
"2","2","retrieval","new_objects","251","Chair_Airplane.jpg","37","1","490"
"2","2","retrieval","new_objects","252","Spool_Thread.jpg","37","1","589"
"2","2","retrieval","new_objects","253","Bag_Diaper.jpg","37","1","538"
"2","2","retrieval","old_objects","254","Boombox.jpg","37","0","537"
"2","2","retrieval","new_objects","255","Bottle_Liquor.jpg","37","1","544"
"2","2","retrieval","new_objects","256","Stone_Mill.jpg","37","1","779"
"2","2","retrieval","old_objects","257","Knife_Kitchen.jpg","36","1","570"
"2","2","retrieval","new_objects","258","SetSquare.jpg","37","1","567"
"2","2","retrieval","old_objects","259","BridgeWooden.jpg","36","1","611"
"2","2","retrieval","new_objects","260","PowerDoorPushButton.jpg","37","1","571"
"2","2","retrieval","old_objects","261","Brooch_Fish.jpg","36","1","634"
"2","2","retrieval","old_objects","262","Bus_DoubleDecker.jpg","36","1","732"
"2","2","retrieval","old_objects","263","SmokingPipe.jpg","36","1","593"
"2","2","retrieval","new_objects","264","Sign_Parking.jpg","37","1","563"
"2","2","retrieval","new_objects","265","IceCrusher.jpg","37","1","781"
"2","2","retrieval","new_objects","266","Bag_Hand.jpg","37","1","537"
"2","2","retrieval","old_objects","267","Toy_BlocksPlastic Colourful.jpg","36","1","582"
"2","2","retrieval","old_objects","268","Tape_Clear.jpg","36","1","699"
"2","2","retrieval","new_objects","269","Gorilla.jpg","37","1","560"
"2","2","retrieval","new_objects","270","Bird_Pelican.jpg","37","1","593"
"2","2","retrieval","new_objects","271","Napkin_Single.jpg","37","1","542"
"2","2","retrieval","old_objects","272","Cassette_Audio.jpg","37","0","549"
"2","2","retrieval","new_objects","273","Pasta_Shell.jpg","37","1","656"
"2","2","retrieval","old_objects","274","Stool_Foot.jpg","37","0","561"
"2","2","retrieval","old_objects","275","Shrub_Cedar.jpg","36","1","1290"
"2","2","retrieval","old_objects","276","Pot_BlackOld.jpg","37","0","657"
"2","2","retrieval","new_objects","277","Stethoscope.jpg","37","1","542"
"2","2","retrieval","new_objects","278","Spatula_1.jpg","37","1","654"
"2","2","retrieval","new_objects","279","Kangaroo_WithJoey.jpg","37","1","693"
"2","2","retrieval","new_objects","280","TestTube_Single.jpg","37","1","590"
"2","2","retrieval","old_objects","281","Pants.jpg","36","1","745"
"2","2","retrieval","old_objects","282","Knife_Butter.jpg","37","0","803"
"2","2","retrieval","old_objects","283","Envelope_Manila.jpg","36","1","764"
"2","2","retrieval","old_objects","284","TowerEiffel.jpg","36","1","1328"
"2","2","retrieval","new_objects","285","Tray_Metal.jpg","37","1","826"
"2","2","retrieval","old_objects","286","Toy_Drill.jpg","36","1","793"
"2","2","retrieval","new_objects","287","Mask_Ski.jpg","37","1","588"
"2","2","retrieval","new_objects","288","Chipmunk.jpg","37","1","622"
"2","2","retrieval","new_objects","289","Lacrosse_Stick.jpg","37","1","850"
"2","2","retrieval","old_objects","290","Puffin.jpg","36","1","1118"
"2","2","retrieval","new_objects","291","SpiderWeb.jpg","37","1","677"
"2","2","retrieval","new_objects","292","Toy_BlocksMultiShape.jpg","37","1","630"
"2","2","retrieval","old_objects","293","Toy_RaceTrack.jpg","37","0","544"
"2","2","retrieval","new_objects","294","VacuumHandheld.jpg","37","1","519"
"2","2","retrieval","new_objects","295","Table_PingPong.jpg","36","0","756"
"2","2","retrieval","old_objects","296","Sink_Kitchen.jpg","36","1","742"
"2","2","retrieval","new_objects","297","Branches_Campfire.jpg","37","1","560"
"2","2","retrieval","old_objects","298","Trash_Medical.jpg","36","1","740"
"2","2","retrieval","old_objects","299","Bird_Falcon.jpg","36","1","1011"
"2","2","retrieval","old_objects","300","Keychain_Metal.jpg","37","0","728"
"2","2","retrieval","new_objects","301","Gun_Glue.jpg","37","1","803"
"2","2","retrieval","old_objects","302","Thermos_Decorated.jpg","36","1","952"
"2","2","retrieval","old_objects","303","ComputerKey_Escape.jpg","36","1","675"
"2","2","retrieval","new_objects","304","Bag_Camera.jpg","37","1","678"
"2","2","retrieval","old_objects","306","JuiceBox.jpg","36","1","897"
"2","2","retrieval","new_objects","307","Boar.jpg","37","1","593"
"2","2","retrieval","old_objects","308","Humidifier.jpg","37","0","591"
"2","2","retrieval","old_objects","309","PedestalGreek.jpg","36","1","616"
"2","2","retrieval","old_objects","310","Crossbow.jpg","36","1","1046"
"2","2","retrieval","new_objects","311","Pasta_Spaghetti.jpg","37","1","670"
"2","2","retrieval","new_objects","312","Mask_VenetianCat.jpg","37","1","651"
"2","2","retrieval","old_objects","313","Box_Chocolate.jpg","36","1","812"
"2","2","retrieval","old_objects","314","Carrot.jpg","36","1","880"
"2","2","retrieval","new_objects","315","Bench_Concrete.jpg","36","0","807"
"2","2","retrieval","new_objects","316","Lighter_Yellow.jpg","37","1","650"
"2","2","retrieval","old_objects","317","Jar_Strawberry.jpg","36","1","644"
"2","2","retrieval","old_objects","318","DartBoard.jpg","37","0","736"
"2","2","retrieval","old_objects","319","Cologne.jpg","36","1","623"
"2","2","retrieval","new_objects","320","Pretzel_Sticks.jpg","37","1","669"
"2","2","retrieval","old_objects","321","PeriodicTable.jpg","36","1","770"
"2","2","retrieval","old_objects","322","Sign_Caution.jpg","36","1","558"
"2","2","retrieval","old_objects","323","Wire_Soldering.jpg","37","0","718"
"2","2","retrieval","new_objects","324","AirPump.jpg","37","1","689"
"2","2","retrieval","new_objects","325","Spraybottle.jpg","37","1","610"
"2","2","retrieval","old_objects","326","Apple_RedAndGreen.jpg","36","1","522"
"2","2","retrieval","new_objects","327","SofaAntique.jpg","37","1","613"
"2","2","retrieval","old_objects","328","Fan_Blades.jpg","37","0","594"
"2","2","retrieval","old_objects","329","Bindings_Snowboard.jpg","37","0","756"
"2","2","retrieval","new_objects","330","LightHouse.jpg","37","1","1013"
"2","2","retrieval","old_objects","331","Toy_StackingRing.jpg","37","0","802"
"2","2","retrieval","old_objects","332","Hockey_Puck.jpg","37","0","1021"
"2","2","retrieval","old_objects","333","RecorderInstrument.jpg","37","0","525"
"2","2","retrieval","new_objects","334","Chest.jpg","37","1","686"
"2","2","retrieval","old_objects","335","InflatableSleepingBag.jpg","37","0","564"
"2","2","retrieval","new_objects","336","PictureFrame.jpg","37","1","567"
"2","2","retrieval","old_objects","337","Jet.jpg","36","1","709"
"2","2","retrieval","new_objects","338","Toy_Turtle.jpg","36","0","599"
"2","2","retrieval","old_objects","339","Toy_Octopus.jpg","36","1","458"
"2","2","retrieval","old_objects","340","LightBulb_White.jpg","37","0","614"
"2","2","retrieval","old_objects","341","Oyster.jpg","36","1","728"
"2","2","retrieval","new_objects","342","Dice.jpg","37","1","616"
"2","2","retrieval","new_objects","343","ElasticBand.jpg","37","1","585"
"2","2","retrieval","new_objects","344","Toy_GasPump.jpg","37","1","734"
"2","2","retrieval","new_objects","345","Drink_Green.jpg","37","1","617"
"2","2","retrieval","old_objects","346","Toy_Shark.jpg","36","1","544"
"2","2","retrieval","new_objects","347","Jacket_Suit.jpg","37","1","651"
"2","2","retrieval","old_objects","348","FortuneCookie.jpg","36","1","626"
"2","2","retrieval","old_objects","349","PirateFlag.jpg","36","1","617"
"2","2","retrieval","old_objects","350","Ambulance.jpg","37","0","1195"
"2","2","retrieval","old_objects","351","Kite_Rainbow.jpg","37","0","591"
"2","2","retrieval","old_objects","352","Spider.jpg","36","1","605"
"2","2","retrieval","old_objects","353","Clock_Interior.jpg","37","0","650"
"2","2","retrieval","new_objects","354","Carousel copy.jpg","36","0","843"
"2","2","retrieval","new_objects","355","Car_Ferrari.jpg","37","1","713"
"2","2","demographics_block","gender","1","Car_Ferrari.jpg","female","1","9127"
"2","2","demographics_block","age","1","Car_Ferrari.jpg","39","1","9127"
"2","2","demographics_block","education","1","Car_Ferrari.jpg","16","1","9127"
"2","2","demographics_block","left_right_handed","2","Car_Ferrari.jpg","Right","1","7067"
"2","2","demographics_block","raceoption1","2","Car_Ferrari.jpg","0","1","7067"
"2","2","demographics_block","raceoption2","2","Car_Ferrari.jpg","","1","7067"
"2","2","demographics_block","raceoption3","2","Car_Ferrari.jpg","","1","7067"
"2","2","demographics_block","raceoption4","2","Car_Ferrari.jpg","","1","7067"
"2","2","demographics_block","raceoption5","2","Car_Ferrari.jpg","","1","7067"
"2","2","demographics_block","raceoption6","2","Car_Ferrari.jpg","","1","7067"
"2","2","demographics_block","raceoption7","2","Car_Ferrari.jpg","","1","7067"
"2","2","demographics_block","raceoption8","2","Car_Ferrari.jpg","","1","7067"
"2","2","demographics_block","raceoption9","2","Car_Ferrari.jpg","","1","7067"
"2","2","demographics_block","raceother","2","Car_Ferrari.jpg","","1","7067"
"2","2","demographics_block","raceother","2","Car_Ferrari.jpg","","1","7067"
"2","2","demographics_block","english_language","2","Car_Ferrari.jpg","Yes","1","7067"
"2","2","demographics_block","english_languageother","2","Car_Ferrari.jpg","","1","7067"
"2","2","demographics_block","eyesight","3","Car_Ferrari.jpg","Yes","1","4491"
"2","2","demographics_block","colorblind","3","Car_Ferrari.jpg","No","1","4491"
"2","2","worker_id_block","worker_id_textbox","1","Car_Ferrari.jpg","A3DNYS7B0V1FQF","1","14168"
"4","4","encoding","encoding","1","Speaker_OnStand.jpg","37","0","1279"
"4","4","encoding","encoding","2","TeethMould.jpg","36","0","1069"
"4","4","encoding","encoding","3","SculptureMetalFish.jpg","37","0","1516"
"4","4","encoding","encoding","4","RecorderInstrument.jpg","37","0","1019"
"4","4","encoding","encoding","5","Puffin.jpg","36","0","938"
"4","4","encoding","encoding","6","DartBoard.jpg","37","0","1281"
"4","4","encoding","encoding","7","Kite_Rainbow.jpg","37","0","1264"
"4","4","encoding","encoding","8","Star.jpg","37","0","1278"
"4","4","encoding","encoding","9","Thermos_Decorated.jpg","37","0","869"
"4","4","encoding","encoding","10","Heater_Outdoor.jpg","37","0","811"
"4","4","encoding","encoding","11","Ambulance.jpg","37","0","618"
"4","4","encoding","encoding","12","Toy_RockingHorseBlack.jpg","37","0","1072"
"4","4","encoding","encoding","13","Brush_Nail.jpg","37","0","703"
"4","4","encoding","encoding","14","MilkPitcher.jpg","37","0","1606"
"4","4","encoding","encoding","15","Bindings_Snowboard.jpg","37","0","1733"
"4","4","encoding","encoding","16","Ruler_Wooden.jpg","37","0","796"
"4","4","encoding","encoding","17","Clock_Interior.jpg","37","0","666"
"4","4","encoding","encoding","18","Cord_usb.jpg","37","0","777"
"4","4","encoding","encoding","19","Cannon.jpg","37","0","664"
"4","4","encoding","encoding","20","PirateFlag.jpg","37","0","1446"
"4","4","encoding","encoding","21","Knife_Kitchen.jpg","37","0","1501"
"4","4","encoding","encoding","22","Toy_RaceTrack.jpg","37","0","1028"
"4","4","encoding","encoding","23","Ruler_Digital.jpg","37","0","747"
"4","4","encoding","encoding","24","Hulahoop.jpg","37","0","906"
"4","4","encoding","encoding","25","Trash_Medical.jpg","37","0","841"
"4","4","encoding","encoding","26","Balalaika.jpg","37","0","775"
"4","4","encoding","encoding","27","Toy_Slinky.jpg","37","0","1102"
"4","4","encoding","encoding","28","Nail.jpg","37","0","1813"
"4","4","encoding","encoding","29","Cabasa.jpg","37","0","1284"
"4","4","encoding","encoding","30","Bread_Carrot.jpg","37","0","1587"
"4","4","encoding","encoding","31","MassageRoller.jpg","37","0","930"
"4","4","encoding","encoding","32","Pants.jpg","37","0","1392"
"4","4","encoding","encoding","33","PillBottle_Prescription.jpg","0","0","2000"
"4","4","encoding","encoding","34","PedestalGreek.jpg","37","0","1247"
"4","4","encoding","encoding","35","Socks_Winter.jpg","37","0","870"
"4","4","encoding","encoding","36","Tape_Scotch.jpg","37","0","1021"
"4","4","encoding","encoding","37","Clock_Wall.jpg","37","0","859"
"4","4","encoding","encoding","38","Bowl_Glass.jpg","37","0","874"
"4","4","encoding","encoding","39","Sandwich_Egg.jpg","37","0","1153"
"4","4","encoding","encoding","40","Drum_Conga.jpg","37","0","760"
"4","4","encoding","encoding","41","Headphones.jpg","37","0","647"
"4","4","encoding","encoding","42","Boombox.jpg","37","0","606"
"4","4","encoding","encoding","43","Cassette_Audio.jpg","37","0","828"
"4","4","encoding","encoding","44","ScrewDriver.jpg","37","0","547"
"4","4","encoding","encoding","45","Bird_Falcon.jpg","36","0","842"
"4","4","encoding","encoding","46","Jar_JellyBeans.jpg","37","0","849"
"4","4","encoding","encoding","47","Lettuce_Romaine.jpg","36","0","1232"
"4","4","encoding","encoding","48","Speaker_Computer.jpg","37","0","815"
"4","4","encoding","encoding","49","AirVent.jpg","37","0","989"
"4","4","encoding","encoding","50","FortuneCookie.jpg","37","0","1988"
"4","4","encoding","encoding","51","Keychain_Metal.jpg","37","0","1003"
"4","4","encoding","encoding","52","Lemon.jpg","36","0","754"
"4","4","encoding","encoding","53","Brooch_Fish.jpg","37","0","872"
"4","4","encoding","encoding","54","LightBulb_White.jpg","37","0","631"
"4","4","encoding","encoding","55","Jar_Strawberry.jpg","37","0","854"
"4","4","encoding","encoding","56","Stool_Foot.jpg","37","0","564"
"4","4","encoding","encoding","57","Comb_1.jpg","37","0","907"
"4","4","encoding","encoding","58","Camera_Digital.jpg","37","0","650"
"4","4","encoding","encoding","59","SledgeHammer.jpg","37","0","744"
"4","4","encoding","encoding","60","Canister_Tea.jpg","37","0","607"
"4","4","encoding","encoding","62","Envelope_Manila.jpg","37","0","987"
"4","4","encoding","encoding","63","Toolbox_BlackOpen.jpg","37","0","593"
"4","4","encoding","encoding","64","Shoes_Snowboarding.jpg","37","0","608"
"4","4","encoding","encoding","65","Box_GiftTopView.jpg","37","0","536"
"4","4","encoding","encoding","66","Crossbow.jpg","37","0","623"
"4","4","encoding","encoding","67","Airplane_Fighter.jpg","37","0","670"
"4","4","encoding","encoding","68","Flower_Crane.jpg","36","0","805"
"4","4","encoding","encoding","69","ColumnMarble.jpg","37","0","620"
"4","4","encoding","encoding","70","ControlPanel.jpg","37","0","547"
"4","4","encoding","encoding","71","Cologne.jpg","37","0","1018"
"4","4","encoding","encoding","72","Bus_DoubleDecker.jpg","37","0","673"
"4","4","encoding","encoding","73","Bread_Loaf.jpg","37","0","943"
"4","4","encoding","encoding","74","Chair_PlasticGreen.jpg","37","0","454"
"4","4","encoding","encoding","75","JumpingJack.jpg","37","0","581"
"4","4","encoding","encoding","76","Boots_KneeHigh.jpg","37","0","596"
"4","4","encoding","encoding","77","Humidifier.jpg","37","0","787"
"4","4","encoding","encoding","78","Toy_Train.jpg","37","0","809"
"4","4","encoding","encoding","79","Sieve_SideView.jpg","37","0","968"
"4","4","encoding","encoding","80","Partition.jpg","37","0","863"
"4","4","encoding","encoding","81","Wheelbarrow_Green.jpg","37","0","710"
"4","4","encoding","encoding","82","Bed_ChildBirch.jpg","37","0","709"
"4","4","encoding","encoding","83","Toy_Drill.jpg","37","0","564"
"4","4","encoding","encoding","84","Scooter.jpg","37","0","610"
"4","4","encoding","encoding","85","Hat_Cowboy.jpg","37","0","529"
"4","4","encoding","encoding","86","Noose.jpg","37","0","880"
"4","4","encoding","encoding","87","DJMixer.jpg","37","0","471"
"4","4","encoding","encoding","88","TowerEiffel.jpg","37","0","438"
"4","4","encoding","encoding","89","SmokingPipe.jpg","37","0","909"
"4","4","encoding","encoding","90","FireExtinguisher.jpg","37","0","532"
"4","4","encoding","encoding","91","Wire_Soldering.jpg","37","0","306"
"4","4","encoding","encoding","92","Toy_Babydoll.jpg","37","0","728"
"4","4","encoding","encoding","93","Camera_Antique.jpg","37","0","839"
"4","4","encoding","encoding","94","PeriodicTable.jpg","37","0","893"
"4","4","encoding","encoding","95","Toy_Octopus.jpg","37","0","644"
"4","4","encoding","encoding","96","Sink_Kitchen.jpg","37","0","915"
"4","4","encoding","encoding","97","Mask_Masquerade.jpg","37","0","809"
"4","4","encoding","encoding","98","Knife_Butter.jpg","37","0","576"
"4","4","encoding","encoding","99","Cleaver_Meat.jpg","37","0","470"
"4","4","encoding","encoding","100","Bicycle_Adult.jpg","37","0","605"
"4","4","encoding","encoding","101","Compact_Powder.jpg","37","0","812"
"4","4","encoding","encoding","102","Mask_Viking.jpg","37","0","522"
"4","4","encoding","encoding","103","InflatableSleepingBag.jpg","37","0","449"
"4","4","encoding","encoding","104","Pineapple.jpg","36","0","856"
"4","4","encoding","encoding","105","Plunger.jpg","37","0","639"
"4","4","encoding","encoding","106","Statue_SouthAmerican.jpg","37","0","677"
"4","4","encoding","encoding","107","Envelope_Letter.jpg","37","0","1012"
"4","4","encoding","encoding","108","Candle_ChristmasDecor.jpg","37","0","1283"
"4","4","encoding","encoding","109","Banana.jpg","36","0","842"
"4","4","encoding","encoding","110","BinRecycling.jpg","37","0","761"
"4","4","encoding","encoding","111","Hat_Tuque.jpg","37","0","600"
"4","4","encoding","encoding","112","WaterFountain.jpg","37","0","710"
"4","4","encoding","encoding","113","Helmet_Football.jpg","37","0","837"
"4","4","encoding","encoding","114","Tape_Washi.jpg","37","0","740"
"4","4","encoding","encoding","115","FlashlightHeadBand.jpg","37","0","707"
"4","4","encoding","encoding","116","Squash_Pumpkin.jpg","36","0","834"
"4","4","encoding","encoding","117","Apple_RedAndGreen.jpg","36","0","737"
"4","4","encoding","encoding","118","KeyHook_Occupied.jpg","37","0","776"
"4","4","encoding","encoding","119","Backpack_Travel.jpg","37","0","950"
"4","4","encoding","encoding","120","BridgeWooden.jpg","37","0","589"
"4","4","encoding","encoding","121","MannequinHead.jpg","0","0","2000"
"4","4","encoding","encoding","123","Fan_Blades.jpg","37","0","1526"
"4","4","encoding","encoding","124","Colosseum.jpg","0","0","2000"
"4","4","encoding","encoding","125","Chicken_Raw.jpg","36","0","1668"
"4","4","encoding","encoding","126","Pot_BlackOld.jpg","37","0","610"
"4","4","encoding","encoding","127","Glass_Beer.jpg","0","0","2000"
"4","4","encoding","encoding","128","Cantaloupe.jpg","0","0","2000"
"4","4","encoding","encoding","129","Organ.jpg","0","0","2000"
"4","4","encoding","encoding","130","TomatoSauce.jpg","37","0","935"
"4","4","encoding","encoding","131","Toy_Helicopter.jpg","37","0","630"
"4","4","encoding","encoding","132","MatchBook.jpg","37","0","477"
"4","4","encoding","encoding","133","Gloves_Winter.jpg","37","0","556"
"4","4","encoding","encoding","134","Airplane_Commercial.jpg","37","0","826"
"4","4","encoding","encoding","135","Toy_Shark.jpg","0","0","2000"
"4","4","encoding","encoding","136","DonaldDuck_Toy.jpg","37","0","1977"
"4","4","encoding","encoding","137","Carbiner_Ascender.jpg","37","0","1464"
"4","4","encoding","encoding","138","Hat_Hard.jpg","37","0","695"
"4","4","encoding","encoding","139","Toy_BlocksPlastic Colourful.jpg","37","0","494"
"4","4","encoding","encoding","140","Carrot.jpg","36","0","981"
"4","4","encoding","encoding","141","JuiceBox.jpg","37","0","652"
"4","4","encoding","encoding","142","Fortress.jpg","37","0","755"
"4","4","encoding","encoding","143","Hockey_Puck.jpg","37","0","1137"
"4","4","encoding","encoding","144","BuildingChinese.jpg","37","0","768"
"4","4","encoding","encoding","145","Container_RedPlastic.jpg","37","0","615"
"4","4","encoding","encoding","146","Sign_Caution.jpg","37","0","590"
"4","4","encoding","encoding","147","Fireplace_Outdoor.jpg","37","0","549"
"4","4","encoding","encoding","148","Bowl_Cereal.jpg","37","0","1219"
"4","4","encoding","encoding","149","MemoPaperSpike.jpg","37","0","738"
"4","4","encoding","encoding","150","Chicken_Dinner.jpg","37","0","1417"
"4","4","encoding","encoding","151","Plum.jpg","36","0","920"
"4","4","encoding","encoding","152","MetalDetector.jpg","37","0","751"
"4","4","encoding","encoding","153","Dolphine.jpg","36","0","1318"
"4","4","encoding","encoding","154","Box_Chocolate.jpg","37","0","676"
"4","4","encoding","encoding","155","ComputerKey_Escape.jpg","37","0","860"
"4","4","encoding","encoding","156","Statue_Head.jpg","37","0","699"
"4","4","encoding","encoding","157","Jet.jpg","37","0","522"
"4","4","encoding","encoding","158","Wontons.jpg","37","0","1025"
"4","4","encoding","encoding","159","Light_PostIsolated.jpg","37","0","567"
"4","4","encoding","encoding","160","Zucchini.jpg","36","0","1046"
"4","4","encoding","encoding","161","Lunchbox.jpg","37","0","517"
"4","4","encoding","encoding","162","Shoe_Sneaker.jpg","37","0","732"
"4","4","encoding","encoding","163","Mallet.jpg","37","0","595"
"4","4","encoding","encoding","164","Car_Sedan.jpg","37","0","418"
"4","4","encoding","encoding","165","Ladle.jpg","37","0","625"
"4","4","encoding","encoding","166","Oyster.jpg","37","0","1911"
"4","4","encoding","encoding","167","Soap.jpg","37","0","926"
"4","4","encoding","encoding","168","Pumpkin.jpg","36","0","653"
"4","4","encoding","encoding","169","Toy_StackingRing.jpg","37","0","740"
"4","4","encoding","encoding","170","Spider.jpg","36","0","1395"
"4","4","encoding","encoding","171","Shrub_Cedar.jpg","36","0","1657"
"4","4","encoding","encoding","172","Dog_Bulldog.jpg","36","0","912"
"4","4","encoding","encoding","173","Tape_Clear.jpg","37","0","735"
"4","4","encoding","encoding","174","Guitarcase.jpg","37","0","782"
"4","4","encoding","encoding","175","Bread_Roll.jpg","37","0","973"
"4","4","encoding","encoding","176","Pot_TurkishCoffee.jpg","37","0","628"
"4","4","encoding","encoding","177","Speakers_Theatre.jpg","37","0","627"
"4","4","retrieval","old_objects","1","Hulahoop.jpg","36","1","1041"
"4","4","retrieval","old_objects","2","PeriodicTable.jpg","37","0","896"
"4","4","retrieval","new_objects","3","Sign_SlipperyRoad.jpg","36","0","805"
"4","4","retrieval","old_objects","4","Shrub_Cedar.jpg","36","1","727"
"4","4","retrieval","old_objects","5","Balalaika.jpg","36","1","668"
"4","4","retrieval","new_objects","6","RibbonString.jpg","37","1","595"
"4","4","retrieval","new_objects","7","LaundryHamper.jpg","36","0","1285"
"4","4","retrieval","new_objects","8","Toy_Turtle.jpg","0","0","2000"
"4","4","retrieval","new_objects","9","Jacket_Suit.jpg","36","0","1890"
"4","4","retrieval","old_objects","10","Mask_Viking.jpg","0","0","2000"
"4","4","retrieval","old_objects","11","BinRecycling.jpg","36","1","1740"
"4","4","retrieval","old_objects","12","MatchBook.jpg","37","0","750"
"4","4","retrieval","new_objects","13","ComputerMouse.jpg","37","1","1498"
"4","4","retrieval","old_objects","14","Knife_Kitchen.jpg","36","1","718"
"4","4","retrieval","new_objects","15","Stone_Mill.jpg","37","1","795"
"4","4","retrieval","new_objects","16","Booties_Blue.jpg","37","1","909"
"4","4","retrieval","new_objects","17","Dress_Cocktail.jpg","37","1","810"
"4","4","retrieval","new_objects","18","Bag_Satchel.jpg","37","1","907"
"4","4","retrieval","old_objects","19","Spider.jpg","36","1","809"
"4","4","retrieval","new_objects","20","TrapAnimal.jpg","36","0","1138"
"4","4","retrieval","new_objects","21","CoffeeBeans.jpg","37","1","798"
"4","4","retrieval","new_objects","22","WireStripper.jpg","37","1","1328"
"4","4","retrieval","old_objects","23","MassageRoller.jpg","37","0","1091"
"4","4","retrieval","new_objects","24","Branches_Campfire.jpg","37","1","680"
"4","4","retrieval","old_objects","25","Chair_PlasticGreen.jpg","36","1","775"
"4","4","retrieval","new_objects","26","Corn.jpg","37","1","954"
"4","4","retrieval","old_objects","27","Comb_1.jpg","37","0","1045"
"4","4","retrieval","old_objects","28","Stool_Foot.jpg","37","0","997"
"4","4","retrieval","new_objects","29","Honeydew_Green.jpg","37","1","814"
"4","4","retrieval","new_objects","30","ChocolateBar_Unwrapped.jpg","37","1","775"
"4","4","retrieval","new_objects","31","Jack.jpg","37","1","1073"
"4","4","retrieval","old_objects","32","Organ.jpg","37","0","816"
"4","4","retrieval","old_objects","33","Heater_Outdoor.jpg","36","1","817"
"4","4","retrieval","new_objects","34","SatelliteDish.jpg","37","1","1066"
"4","4","retrieval","new_objects","35","Boar.jpg","37","1","1016"
"4","4","retrieval","old_objects","36","KeyHook_Occupied.jpg","36","1","945"
"4","4","retrieval","new_objects","37","Flute_Tin.jpg","37","1","972"
"4","4","retrieval","old_objects","38","Ladle.jpg","37","0","1046"
"4","4","retrieval","old_objects","39","Hat_Cowboy.jpg","36","1","854"
"4","4","retrieval","old_objects","40","Mallet.jpg","36","1","853"
"4","4","retrieval","old_objects","41","InflatableSleepingBag.jpg","37","0","893"
"4","4","retrieval","old_objects","42","Pants.jpg","36","1","963"
"4","4","retrieval","new_objects","43","MeasuringTape.jpg","36","0","973"
"4","4","retrieval","old_objects","44","Wire_Soldering.jpg","37","0","904"
"4","4","retrieval","old_objects","45","Guitarcase.jpg","36","1","973"
"4","4","retrieval","old_objects","46","DJMixer.jpg","37","0","784"
"4","4","retrieval","new_objects","47","Bottle_Liquor.jpg","36","0","1130"
"4","4","retrieval","old_objects","48","Mask_Masquerade.jpg","36","1","974"
"4","4","retrieval","new_objects","49","Iron_Antique.jpg","37","1","968"
"4","4","retrieval","new_objects","50","Toy_GasPump.jpg","37","1","827"
"4","4","retrieval","old_objects","51","Statue_SouthAmerican.jpg","36","1","1003"
"4","4","retrieval","old_objects","52","Speaker_OnStand.jpg","36","1","797"
"4","4","retrieval","old_objects","53","Ruler_Digital.jpg","36","1","886"
"4","4","retrieval","new_objects","54","Heelpad.jpg","37","1","732"
"4","4","retrieval","old_objects","55","Ruler_Wooden.jpg","36","1","817"
"4","4","retrieval","old_objects","56","Camera_Antique.jpg","36","1","914"
"4","4","retrieval","new_objects","57","Instrument_Guiro.jpg","37","1","622"
"4","4","retrieval","old_objects","58","DonaldDuck_Toy.jpg","36","1","904"
"4","4","retrieval","old_objects","59","Tape_Scotch.jpg","36","1","813"
"4","4","retrieval","new_objects","60","Belt.jpg","36","0","814"
"4","4","retrieval","old_objects","62","Lemon.jpg","36","1","921"
"4","4","retrieval","old_objects","63","MemoPaperSpike.jpg","36","1","910"
"4","4","retrieval","new_objects","64","Box_WoodenClosed.jpg","37","1","819"
"4","4","retrieval","new_objects","65","PowerDoorPushButton.jpg","37","1","940"
"4","4","retrieval","old_objects","66","PirateFlag.jpg","36","1","784"
"4","4","retrieval","new_objects","67","IroningBoard.jpg","37","1","818"
"4","4","retrieval","old_objects","68","ComputerKey_Escape.jpg","37","0","860"
"4","4","retrieval","old_objects","69","Bed_ChildBirch.jpg","37","0","667"
"4","4","retrieval","new_objects","70","TortillaChip.jpg","37","1","810"
"4","4","retrieval","new_objects","71","Windmill_Building.jpg","36","0","939"
"4","4","retrieval","old_objects","72","Pot_TurkishCoffee.jpg","36","1","1047"
"4","4","retrieval","old_objects","73","Oyster.jpg","36","1","918"
"4","4","retrieval","old_objects","74","Sieve_SideView.jpg","37","0","779"
"4","4","retrieval","old_objects","75","ControlPanel.jpg","0","0","2000"
"4","4","retrieval","new_objects","76","Chair_Airplane.jpg","0","0","2000"
"4","4","retrieval","new_objects","77","AirPump.jpg","37","1","1187"
"4","4","retrieval","old_objects","78","Hockey_Puck.jpg","36","1","1653"
"4","4","retrieval","new_objects","79","Candelabra.jpg","36","0","834"
"4","4","retrieval","old_objects","80","DartBoard.jpg","37","0","1202"
"4","4","retrieval","new_objects","81","GranolaBar.jpg","37","1","835"
"4","4","retrieval","old_objects","82","Cleaver_Meat.jpg","36","1","1043"
"4","4","retrieval","old_objects","83","TomatoSauce.jpg","37","0","675"
"4","4","retrieval","old_objects","84","LightBulb_White.jpg","37","0","682"
"4","4","retrieval","new_objects","85","Bag_Hand.jpg","37","1","713"
"4","4","retrieval","new_objects","86","Buffalo.jpg","37","1","670"
"4","4","retrieval","new_objects","87","Sieve_TopView.jpg","37","1","758"
"4","4","retrieval","new_objects","88","Nutcracker.jpg","37","1","889"
"4","4","retrieval","new_objects","89","Drill.jpg","37","1","863"
"4","4","retrieval","new_objects","90","Kangaroo_WithJoey.jpg","37","1","774"
"4","4","retrieval","new_objects","91","Statue_VirginMary.jpg","37","1","929"
"4","4","retrieval","new_objects","92","VacuumHandheld.jpg","37","1","885"
"4","4","retrieval","new_objects","93","Trunk.jpg","36","0","868"
"4","4","retrieval","old_objects","94","Wontons.jpg","36","1","810"
"4","4","retrieval","old_objects","95","Chicken_Dinner.jpg","36","1","875"
"4","4","retrieval","new_objects","96","Toy_MerryGoRound.jpg","36","0","866"
"4","4","retrieval","new_objects","97","Wire_ElectricalSingle.jpg","37","1","865"
"4","4","retrieval","new_objects","98","Drink_Green.jpg","37","1","912"
"4","4","retrieval","new_objects","99","Candy_Heart.jpg","37","1","756"
"4","4","retrieval","new_objects","100","Bird_Cardinal.jpg","36","0","1000"
"4","4","retrieval","old_objects","101","Dog_Bulldog.jpg","36","1","793"
"4","4","retrieval","old_objects","102","Cannon.jpg","36","1","1860"
"4","4","retrieval","new_objects","103","Flower_Hibiscus.jpg","0","0","2000"
"4","4","retrieval","old_objects","104","Bread_Roll.jpg","0","0","2000"
"4","4","retrieval","new_objects","105","Trumpet.jpg","36","0","703"
"4","4","retrieval","new_objects","106","BunsenBurner.jpg","37","1","1149"
"4","4","retrieval","new_objects","107","DoorKnob.jpg","0","0","2000"
"4","4","retrieval","old_objects","108","JuiceBox.jpg","36","1","1726"
"4","4","retrieval","old_objects","109","Cord_usb.jpg","36","1","1569"
"4","4","retrieval","new_objects","110","Spraybottle.jpg","36","0","1202"
"4","4","retrieval","new_objects","111","Gorilla.jpg","37","1","1539"
"4","4","retrieval","old_objects","112","Keychain_Metal.jpg","37","0","606"
"4","4","retrieval","new_objects","113","Flamingo_Cartoon.jpg","37","1","1480"
"4","4","retrieval","old_objects","114","Hat_Hard.jpg","36","1","941"
"4","4","retrieval","new_objects","115","Thumbtack.jpg","37","1","728"
"4","4","retrieval","new_objects","116","Toy_BlocksMultiShape.jpg","36","0","1086"
"4","4","retrieval","new_objects","117","Helmet_Soldier.jpg","36","0","819"
"4","4","retrieval","new_objects","118","CertificateFramed.jpg","37","1","1356"
"4","4","retrieval","new_objects","119","Sign_Parking.jpg","36","0","846"
"4","4","retrieval","new_objects","120","Napkin_Single.jpg","37","1","1190"
"4","4","retrieval","new_objects","121","Avocado.jpg","37","1","919"
"4","4","retrieval","old_objects","123","TeethMould.jpg","36","1","1401"
"4","4","retrieval","new_objects","124","Spool_Thread.jpg","37","1","873"
"4","4","retrieval","old_objects","125","Shoes_Snowboarding.jpg","36","1","808"
"4","4","retrieval","old_objects","126","Pineapple.jpg","37","0","898"
"4","4","retrieval","new_objects","127","Whip.jpg","36","0","1127"
"4","4","retrieval","new_objects","128","Pasta_Shell.jpg","37","1","948"
"4","4","retrieval","old_objects","129","Tape_Clear.jpg","36","1","983"
"4","4","retrieval","old_objects","130","Carbiner_Ascender.jpg","36","1","921"
"4","4","retrieval","old_objects","131","Puffin.jpg","36","1","742"
"4","4","retrieval","old_objects","132","FireExtinguisher.jpg","36","1","922"
"4","4","retrieval","new_objects","133","Bag_Camera.jpg","36","0","783"
"4","4","retrieval","old_objects","134","Jet.jpg","36","1","697"
"4","4","retrieval","old_objects","135","WaterFountain.jpg","37","0","807"
"4","4","retrieval","old_objects","136","Bowl_Cereal.jpg","37","0","1641"
"4","4","retrieval","old_objects","137","Knife_Butter.jpg","0","0","2000"
"4","4","retrieval","old_objects","138","Wheelbarrow_Green.jpg","37","0","1006"
"4","4","retrieval","old_objects","139","Toy_Slinky.jpg","36","1","783"
"4","4","retrieval","new_objects","140","SofaAntique.jpg","37","1","1433"
"4","4","retrieval","old_objects","141","Star.jpg","36","1","1016"
"4","4","retrieval","old_objects","142","AirVent.jpg","37","0","785"
"4","4","retrieval","old_objects","143","Toy_Helicopter.jpg","37","0","859"
"4","4","retrieval","old_objects","144","Gloves_Winter.jpg","37","0","939"
"4","4","retrieval","new_objects","145","Lamp_Table.jpg","37","1","751"
"4","4","retrieval","new_objects","146","Bird_Pelican.jpg","37","1","842"
"4","4","retrieval","old_objects","147","Plum.jpg","36","1","1115"
"4","4","retrieval","new_objects","148","Machine_Arm.jpg","36","0","1455"
"4","4","retrieval","old_objects","149","Toy_Octopus.jpg","37","0","837"
"4","4","retrieval","old_objects","150","Partition.jpg","36","1","789"
"4","4","retrieval","new_objects","151","Stethoscope.jpg","37","1","864"
"4","4","retrieval","new_objects","152","Bottle_Bleach.jpg","37","1","1231"
"4","4","retrieval","old_objects","153","Pumpkin.jpg","37","0","934"
"4","4","retrieval","old_objects","154","Compact_Powder.jpg","37","0","986"
"4","4","retrieval","old_objects","155","Jar_Strawberry.jpg","37","0","1012"
"4","4","retrieval","old_objects","156","Toy_Drill.jpg","36","1","637"
"4","4","retrieval","new_objects","157","Toy_RobotClassic.jpg","36","0","1070"
"4","4","retrieval","old_objects","158","Toy_BlocksPlastic Colourful.jpg","36","1","932"
"4","4","retrieval","old_objects","159","Toy_Babydoll.jpg","37","0","816"
"4","4","retrieval","old_objects","160","Glass_Beer.jpg","37","0","849"
"4","4","retrieval","old_objects","161","BuildingChinese.jpg","36","1","1032"
"4","4","retrieval","old_objects","162","Plunger.jpg","36","1","1048"
"4","4","retrieval","old_objects","163","Speakers_Theatre.jpg","36","1","911"
"4","4","retrieval","new_objects","164","Ladder.jpg","37","1","700"
"4","4","retrieval","new_objects","165","Hazelnut.jpg","37","1","722"
"4","4","retrieval","new_objects","166","Toy_FigurineSwing.jpg","37","1","1335"
"4","4","retrieval","old_objects","167","Sign_Caution.jpg","37","0","738"
"4","4","retrieval","new_objects","168","RAMchip.jpg","37","1","735"
"4","4","retrieval","new_objects","169","Archery_Arrows.jpg","37","1","739"
"4","4","retrieval","new_objects","170","Chipmunk.jpg","37","1","768"
"4","4","retrieval","new_objects","171","Toy_Chameleon.jpg","37","1","571"
"4","4","retrieval","new_objects","172","PylonTraffic.jpg","37","1","726"
"4","4","retrieval","old_objects","173","Toolbox_BlackOpen.jpg","37","0","515"
"4","4","retrieval","old_objects","174","Boots_KneeHigh.jpg","37","0","833"
"4","4","retrieval","new_objects","175","Table_Set.jpg","37","1","777"
"4","4","retrieval","old_objects","176","Clock_Wall.jpg","37","0","764"
"4","4","retrieval","new_objects","177","PocketKnife.jpg","37","1","607"
"4","4","retrieval","new_objects","178","Grill_Gas.jpg","37","1","1010"
"4","4","retrieval","old_objects","179","Bread_Loaf.jpg","36","1","763"
"4","4","retrieval","old_objects","180","Toy_RockingHorseBlack.jpg","36","1","694"
"4","4","retrieval","new_objects","181","Shirt_Tshirt.jpg","37","1","828"
"4","4","retrieval","old_objects","182","Drum_Conga.jpg","37","0","1021"
"4","4","retrieval","new_objects","184","Toy_Lion.jpg","37","1","756"
"4","4","retrieval","old_objects","185","Statue_Head.jpg","37","0","824"
"4","4","retrieval","old_objects","186","ColumnMarble.jpg","36","1","873"
"4","4","retrieval","old_objects","187","Bread_Carrot.jpg","36","1","800"
"4","4","retrieval","new_objects","188","PotatoMasher_Zigzag.jpg","37","1","746"
"4","4","retrieval","new_objects","189","HairDryer.jpg","37","1","901"
"4","4","retrieval","old_objects","190","Cologne.jpg","36","1","867"
"4","4","retrieval","old_objects","191","Zucchini.jpg","36","1","866"
"4","4","retrieval","old_objects","192","Box_GiftTopView.jpg","36","1","681"
"4","4","retrieval","old_objects","193","Sink_Kitchen.jpg","36","1","823"
"4","4","retrieval","old_objects","194","Fireplace_Outdoor.jpg","37","0","776"
"4","4","retrieval","old_objects","195","ScrewDriver.jpg","36","1","771"
"4","4","retrieval","new_objects","196","Carousel copy.jpg","36","0","1646"
"4","4","retrieval","old_objects","197","FortuneCookie.jpg","36","1","845"
"4","4","retrieval","new_objects","198","SpiderWeb.jpg","37","1","660"
"4","4","retrieval","old_objects","199","Speaker_Computer.jpg","36","1","876"
"4","4","retrieval","new_objects","200","SewingPin_Cushion.jpg","37","1","843"
"4","4","retrieval","new_objects","201","Nuts_Pecan.jpg","36","0","579"
"4","4","retrieval","old_objects","202","RecorderInstrument.jpg","37","0","1221"
"4","4","retrieval","new_objects","203","Bag_Diaper.jpg","37","1","1541"
"4","4","retrieval","old_objects","204","Bowl_Glass.jpg","36","1","869"
"4","4","retrieval","new_objects","205","Horseshoe.jpg","36","0","1207"
"4","4","retrieval","old_objects","206","Envelope_Manila.jpg","36","1","1368"
"4","4","retrieval","new_objects","207","CarSuspension.jpg","37","1","785"
"4","4","retrieval","new_objects","208","Mask_VenetianCat.jpg","36","0","1388"
"4","4","retrieval","new_objects","209","Lighter_Yellow.jpg","37","1","620"
"4","4","retrieval","new_objects","210","Bible.jpg","37","1","798"
"4","4","retrieval","old_objects","211","Backpack_Travel.jpg","37","0","1040"
"4","4","retrieval","new_objects","212","Booth_Carnival.jpg","37","1","647"
"4","4","retrieval","new_objects","213","Blueberry.jpg","37","1","983"
"4","4","retrieval","old_objects","214","Brush_Nail.jpg","36","1","833"
"4","4","retrieval","old_objects","215","Cassette_Audio.jpg","36","1","937"
"4","4","retrieval","new_objects","216","TireRims.jpg","36","0","694"
"4","4","retrieval","old_objects","217","BridgeWooden.jpg","36","1","755"
"4","4","retrieval","new_objects","218","Case_Pencil.jpg","37","1","615"
"4","4","retrieval","new_objects","219","LightHouse.jpg","37","1","849"
"4","4","retrieval","old_objects","220","Humidifier.jpg","37","0","1040"
"4","4","retrieval","new_objects","221","Mask_Ski.jpg","37","1","736"
"4","4","retrieval","old_objects","222","Tape_Washi.jpg","36","1","692"
"4","4","retrieval","new_objects","223","Hat_Police.jpg","36","0","827"
"4","4","retrieval","new_objects","224","Lacrosse_Stick.jpg","37","1","643"
"4","4","retrieval","new_objects","225","Car_Ferrari.jpg","37","1","803"
"4","4","retrieval","old_objects","226","Nail.jpg","36","1","1357"
"4","4","retrieval","new_objects","227","ThreeHolePunch.jpg","36","0","695"
"4","4","retrieval","new_objects","228","RollingPin.jpg","37","1","741"
"4","4","retrieval","old_objects","229","MetalDetector.jpg","37","0","994"
"4","4","retrieval","new_objects","230","ChalkLineTool.jpg","36","0","1767"
"4","4","retrieval","new_objects","231","PatioHeater.jpg","36","0","652"
"4","4","retrieval","new_objects","232","Tray_Metal.jpg","37","1","804"
"4","4","retrieval","old_objects","233","Jar_JellyBeans.jpg","36","1","797"
"4","4","retrieval","old_objects","234","Brooch_Fish.jpg","36","1","687"
"4","4","retrieval","old_objects","235","Apple_RedAndGreen.jpg","36","1","661"
"4","4","retrieval","old_objects","236","SledgeHammer.jpg","36","1","965"
"4","4","retrieval","new_objects","237","MusicSheet.jpg","36","0","751"
"4","4","retrieval","new_objects","238","KitchenTools.jpg","37","1","939"
"4","4","retrieval","new_objects","239","WateringCan_PlasticDarkGreen.jpg","37","1","543"
"4","4","retrieval","old_objects","240","Toy_RaceTrack.jpg","37","0","580"
"4","4","retrieval","old_objects","241","Toy_Train.jpg","37","0","622"
"4","4","retrieval","old_objects","242","Dolphine.jpg","36","1","848"
"4","4","retrieval","new_objects","243","Brush_Light.jpg","36","0","879"
"4","4","retrieval","new_objects","245","Mask_HockeyGoalie.jpg","36","0","852"
"4","4","retrieval","new_objects","246","Barometer_Wood.jpg","37","1","1019"
"4","4","retrieval","old_objects","247","MilkPitcher.jpg","36","1","732"
"4","4","retrieval","new_objects","248","Escalator.jpg","37","1","744"
"4","4","retrieval","old_objects","249","Pot_BlackOld.jpg","37","0","653"
"4","4","retrieval","old_objects","250","Light_PostIsolated.jpg","37","0","701"
"4","4","retrieval","old_objects","251","Bus_DoubleDecker.jpg","36","1","651"
"4","4","retrieval","old_objects","252","Crossbow.jpg","36","1","747"
"4","4","retrieval","old_objects","253","Noose.jpg","36","1","710"
"4","4","retrieval","old_objects","254","JumpingJack.jpg","36","1","900"
"4","4","retrieval","new_objects","255","Drum_Cymbal.jpg","36","0","594"
"4","4","retrieval","new_objects","256","GasBurner.jpg","36","0","628"
"4","4","retrieval","old_objects","257","Fan_Blades.jpg","37","0","789"
"4","4","retrieval","new_objects","258","Ship_Cruise.jpg","37","1","776"
"4","4","retrieval","old_objects","259","Clock_Interior.jpg","37","0","563"
"4","4","retrieval","new_objects","260","Seashell_BayScallop.jpg","36","0","886"
"4","4","retrieval","old_objects","261","SculptureMetalFish.jpg","36","1","796"
"4","4","retrieval","new_objects","262","SewingPin_Single.jpg","37","1","798"
"4","4","retrieval","new_objects","263","Bench_Concrete.jpg","37","1","1032"
"4","4","retrieval","new_objects","264","Stapler_Gun.jpg","36","0","743"
"4","4","retrieval","new_objects","265","Lantern_TeaBox.jpg","36","0","547"
"4","4","retrieval","old_objects","266","Headphones.jpg","36","1","519"
"4","4","retrieval","old_objects","267","Colosseum.jpg","36","1","661"
"4","4","retrieval","old_objects","268","Candle_ChristmasDecor.jpg","36","1","909"
"4","4","retrieval","old_objects","269","Toy_Shark.jpg","37","0","851"
"4","4","retrieval","old_objects","270","Kite_Rainbow.jpg","36","1","818"
"4","4","retrieval","old_objects","271","Trash_Medical.jpg","36","1","699"
"4","4","retrieval","new_objects","272","Spatula_1.jpg","37","1","953"
"4","4","retrieval","new_objects","273","IceCrusher.jpg","36","0","748"
"4","4","retrieval","new_objects","274","PaperTowel_Kitchen.jpg","37","1","1176"
"4","4","retrieval","new_objects","275","Honeycomb.jpg","37","1","682"
"4","4","retrieval","old_objects","276","Banana.jpg","36","1","849"
"4","4","retrieval","old_objects","277","Soap.jpg","37","0","968"
"4","4","retrieval","new_objects","278","BowlingPin.jpg","36","0","739"
"4","4","retrieval","new_objects","279","Elephant.jpg","37","1","1215"
"4","4","retrieval","old_objects","280","Bicycle_Adult.jpg","37","0","671"
"4","4","retrieval","old_objects","281","Airplane_Commercial.jpg","36","1","903"
"4","4","retrieval","old_objects","282","Camera_Digital.jpg","36","1","676"
"4","4","retrieval","new_objects","283","Sashimi.jpg","36","0","1115"
"4","4","retrieval","old_objects","284","Fortress.jpg","37","0","895"
"4","4","retrieval","new_objects","285","Bowl_Chinese.jpg","37","1","804"
"4","4","retrieval","old_objects","286","Container_RedPlastic.jpg","37","0","1894"
"4","4","retrieval","old_objects","287","PillBottle_Prescription.jpg","36","1","1002"
"4","4","retrieval","new_objects","288","Pottery.jpg","37","1","1619"
"4","4","retrieval","old_objects","289","SmokingPipe.jpg","37","0","1514"
"4","4","retrieval","old_objects","290","Scooter.jpg","37","0","853"
"4","4","retrieval","old_objects","291","Bird_Falcon.jpg","36","1","1029"
"4","4","retrieval","old_objects","292","Canister_Tea.jpg","37","0","773"
"4","4","retrieval","new_objects","293","NintendoWii.jpg","37","1","864"
"4","4","retrieval","new_objects","294","Piano_Keyboard.jpg","37","1","959"
"4","4","retrieval","old_objects","295","PedestalGreek.jpg","36","1","963"
"4","4","retrieval","new_objects","296","Balcony.jpg","37","1","693"
"4","4","retrieval","old_objects","297","Socks_Winter.jpg","36","1","780"
"4","4","retrieval","old_objects","298","MannequinHead.jpg","36","1","1158"
"4","4","retrieval","old_objects","299","Toy_StackingRing.jpg","36","1","1873"
"4","4","retrieval","new_objects","300","Cannister_Gas.jpg","37","1","1533"
"4","4","retrieval","old_objects","301","Cabasa.jpg","36","1","944"
"4","4","retrieval","new_objects","302","Cheeseburger.jpg","36","0","739"
"4","4","retrieval","new_objects","303","Jug_Milk.jpg","37","1","1048"
"4","4","retrieval","new_objects","304","ElasticBand.jpg","37","1","911"
"4","4","retrieval","new_objects","306","Cat.jpg","37","1","1000"
"4","4","retrieval","new_objects","307","CableConnecter.jpg","37","1","906"
"4","4","retrieval","new_objects","308","BicycleOdometer.jpg","37","1","911"
"4","4","retrieval","old_objects","309","Envelope_Letter.jpg","36","1","1100"
"4","4","retrieval","new_objects","310","TinChristmas.jpg","37","1","681"
"4","4","retrieval","old_objects","311","Squash_Pumpkin.jpg","36","1","744"
"4","4","retrieval","old_objects","312","Box_Chocolate.jpg","37","0","788"
"4","4","retrieval","new_objects","313","Pipe.jpg","37","1","830"
"4","4","retrieval","old_objects","314","Chicken_Raw.jpg","36","1","750"
"4","4","retrieval","new_objects","315","Pasta_Spaghetti.jpg","37","1","818"
"4","4","retrieval","old_objects","316","Shoe_Sneaker.jpg","37","0","931"
"4","4","retrieval","old_objects","317","Flower_Crane.jpg","36","1","1095"
"4","4","retrieval","new_objects","318","AmpMeter.jpg","37","1","756"
"4","4","retrieval","new_objects","319","Tap.jpg","37","1","1064"
"4","4","retrieval","new_objects","320","Puzzle_Tree.jpg","37","1","1054"
"4","4","retrieval","new_objects","321","StickyTack.jpg","37","1","757"
"4","4","retrieval","old_objects","322","Lunchbox.jpg","37","0","1585"
"4","4","retrieval","old_objects","323","Ambulance.jpg","37","0","1441"
"4","4","retrieval","new_objects","324","Owl.jpg","37","1","1176"
"4","4","retrieval","old_objects","325","Hat_Tuque.jpg","37","0","1154"
"4","4","retrieval","new_objects","326","Pretzel_Sticks.jpg","37","1","781"
"4","4","retrieval","new_objects","327","Dice.jpg","37","1","808"
"4","4","retrieval","old_objects","328","TowerEiffel.jpg","36","1","1065"
"4","4","retrieval","new_objects","329","Briefcase_Open.jpg","37","1","816"
"4","4","retrieval","old_objects","330","Carrot.jpg","36","1","761"
"4","4","retrieval","old_objects","331","Bindings_Snowboard.jpg","36","1","1476"
"4","4","retrieval","new_objects","332","Chair_High.jpg","37","1","802"
"4","4","retrieval","new_objects","333","Teardrop.jpg","37","1","579"
"4","4","retrieval","old_objects","334","Cantaloupe.jpg","37","0","878"
"4","4","retrieval","new_objects","335","ServiceBell.jpg","37","1","1108"
"4","4","retrieval","new_objects","336","Desk_Office.jpg","37","1","457"
"4","4","retrieval","new_objects","337","SetSquare.jpg","37","1","674"
"4","4","retrieval","old_objects","338","Car_Sedan.jpg","36","1","1729"
"4","4","retrieval","old_objects","339","Lettuce_Romaine.jpg","36","1","707"
"4","4","retrieval","old_objects","340","Sandwich_Egg.jpg","36","1","809"
"4","4","retrieval","new_objects","341","DrinkShaker.jpg","37","1","627"
"4","4","retrieval","new_objects","342","Syringe_Blunt.jpg","37","1","683"
"4","4","retrieval","old_objects","343","FlashlightHeadBand.jpg","36","1","850"
"4","4","retrieval","old_objects","344","Boombox.jpg","36","1","674"
"4","4","retrieval","new_objects","345","Chest.jpg","36","0","569"
"4","4","retrieval","new_objects","346","CheeseSlicer.jpg","36","0","572"
"4","4","retrieval","old_objects","347","Helmet_Football.jpg","36","1","552"
"4","4","retrieval","new_objects","348","Table_PingPong.jpg","37","1","1044"
"4","4","retrieval","new_objects","349","TestTube_Single.jpg","36","0","811"
"4","4","retrieval","new_objects","350","PictureFrame.jpg","36","0","1172"
"4","4","retrieval","new_objects","351","SmokeDetector.jpg","37","1","1022"
"4","4","retrieval","old_objects","352","Thermos_Decorated.jpg","37","0","751"
"4","4","retrieval","new_objects","353","Boardgame_Chess.jpg","37","1","1011"
"4","4","retrieval","new_objects","354","Gun_Glue.jpg","36","0","1827"
"4","4","retrieval","old_objects","355","Airplane_Fighter.jpg","37","0","1002"
"4","4","demographics_block","gender","1","Airplane_Fighter.jpg","MALE","1","25199"
"4","4","demographics_block","age","1","Airplane_Fighter.jpg","45","1","25199"
"4","4","demographics_block","education","1","Airplane_Fighter.jpg","BACHELOR DEGR","1","25199"
"4","4","demographics_block","left_right_handed","2","Airplane_Fighter.jpg","Right","1","14624"
"4","4","demographics_block","raceoption1","2","Airplane_Fighter.jpg","","1","14624"
"4","4","demographics_block","raceoption2","2","Airplane_Fighter.jpg","","1","14624"
"4","4","demographics_block","raceoption3","2","Airplane_Fighter.jpg","","1","14624"
"4","4","demographics_block","raceoption4","2","Airplane_Fighter.jpg","","1","14624"
"4","4","demographics_block","raceoption5","2","Airplane_Fighter.jpg","","1","14624"
"4","4","demographics_block","raceoption6","2","Airplane_Fighter.jpg","5","1","14624"
"4","4","demographics_block","raceoption7","2","Airplane_Fighter.jpg","","1","14624"
"4","4","demographics_block","raceoption8","2","Airplane_Fighter.jpg","","1","14624"
"4","4","demographics_block","raceoption9","2","Airplane_Fighter.jpg","","1","14624"
"4","4","demographics_block","raceother","2","Airplane_Fighter.jpg","","1","14624"
"4","4","demographics_block","raceother","2","Airplane_Fighter.jpg","","1","14624"
"4","4","demographics_block","english_language","2","Airplane_Fighter.jpg","Yes","1","14624"
"4","4","demographics_block","english_languageother","2","Airplane_Fighter.jpg","","1","14624"
"4","4","demographics_block","eyesight","3","Airplane_Fighter.jpg","Yes","1","5237"
"4","4","demographics_block","colorblind","3","Airplane_Fighter.jpg","No","1","5237"
"4","4","worker_id_block","worker_id_textbox","1","Airplane_Fighter.jpg","A4H1NYJVE7C53","1","279780"
"6","6","encoding","encoding","1","Candle_ChristmasDecor.jpg","36","0","873"
"6","6","encoding","encoding","2","Carbiner_Ascender.jpg","37","0","909"
"6","6","encoding","encoding","3","Box_Chocolate.jpg","37","0","1078"
"6","6","encoding","encoding","4","Bus_DoubleDecker.jpg","37","0","757"
"6","6","encoding","encoding","5","Comb_1.jpg","37","0","708"
"6","6","encoding","encoding","6","Pumpkin.jpg","36","0","688"
"6","6","encoding","encoding","7","Socks_Winter.jpg","37","0","843"
"6","6","encoding","encoding","8","Ambulance.jpg","37","0","639"
"6","6","encoding","encoding","9","Clock_Wall.jpg","37","0","758"
"6","6","encoding","encoding","10","MemoPaperSpike.jpg","37","0","730"
"6","6","encoding","encoding","11","Thermos_Decorated.jpg","37","0","556"
"6","6","encoding","encoding","12","InflatableSleepingBag.jpg","37","0","621"
"6","6","encoding","encoding","13","BridgeWooden.jpg","37","0","679"
"6","6","encoding","encoding","14","Sign_Caution.jpg","37","0","763"
"6","6","encoding","encoding","15","Trash_Medical.jpg","37","0","659"
"6","6","encoding","encoding","16","Mallet.jpg","37","0","611"
"6","6","encoding","encoding","17","Brooch_Fish.jpg","37","0","942"
"6","6","encoding","encoding","18","Apple_RedAndGreen.jpg","36","0","643"
"6","6","encoding","encoding","19","Crossbow.jpg","37","0","696"
"6","6","encoding","encoding","20","PeriodicTable.jpg","37","0","757"
"6","6","encoding","encoding","21","Ruler_Digital.jpg","37","0","672"
"6","6","encoding","encoding","22","Ruler_Wooden.jpg","37","0","621"
"6","6","encoding","encoding","23","Bindings_Snowboard.jpg","37","0","734"
"6","6","encoding","encoding","24","Bicycle_Adult.jpg","37","0","637"
"6","6","encoding","encoding","25","Bird_Falcon.jpg","36","0","1105"
"6","6","encoding","encoding","26","Toolbox_BlackOpen.jpg","37","0","677"
"6","6","encoding","encoding","27","Toy_Shark.jpg","37","0","845"
"6","6","encoding","encoding","28","Noose.jpg","37","0","583"
"6","6","encoding","encoding","29","ColumnMarble.jpg","37","0","665"
"6","6","encoding","encoding","30","Scooter.jpg","37","0","576"
"6","6","encoding","encoding","31","PillBottle_Prescription.jpg","37","0","797"
"6","6","encoding","encoding","32","Guitarcase.jpg","37","0","545"
"6","6","encoding","encoding","33","Speaker_Computer.jpg","37","0","639"
"6","6","encoding","encoding","34","Canister_Tea.jpg","37","0","547"
"6","6","encoding","encoding","35","Wire_Soldering.jpg","37","0","628"
"6","6","encoding","encoding","36","Box_GiftTopView.jpg","37","0","754"
"6","6","encoding","encoding","37","Drum_Conga.jpg","37","0","720"
"6","6","encoding","encoding","38","Hat_Cowboy.jpg","37","0","843"
"6","6","encoding","encoding","39","Shrub_Cedar.jpg","36","0","506"
"6","6","encoding","encoding","40","Bread_Roll.jpg","37","0","1028"
"6","6","encoding","encoding","41","DonaldDuck_Toy.jpg","37","0","1013"
"6","6","encoding","encoding","42","Toy_Slinky.jpg","37","0","918"
"6","6","encoding","encoding","43","JuiceBox.jpg","37","0","900"
"6","6","encoding","encoding","44","Lettuce_Romaine.jpg","36","0","656"
"6","6","encoding","encoding","45","Shoes_Snowboarding.jpg","37","0","645"
"6","6","encoding","encoding","46","Cantaloupe.jpg","36","0","1612"
"6","6","encoding","encoding","47","MassageRoller.jpg","37","0","1825"
"6","6","encoding","encoding","48","SculptureMetalFish.jpg","37","0","1564"
"6","6","encoding","encoding","49","SmokingPipe.jpg","37","0","1230"
"6","6","encoding","encoding","50","Chair_PlasticGreen.jpg","37","0","776"
"6","6","encoding","encoding","51","Container_RedPlastic.jpg","37","0","762"
"6","6","encoding","encoding","52","Hockey_Puck.jpg","37","0","782"
"6","6","encoding","encoding","53","Gloves_Winter.jpg","37","0","954"
"6","6","encoding","encoding","54","Organ.jpg","37","0","836"
"6","6","encoding","encoding","55","Cord_usb.jpg","37","0","910"
"6","6","encoding","encoding","56","FlashlightHeadBand.jpg","37","0","857"
"6","6","encoding","encoding","57","Squash_Pumpkin.jpg","36","0","786"
"6","6","encoding","encoding","58","Nail.jpg","36","0","1450"
"6","6","encoding","encoding","59","Bowl_Cereal.jpg","37","0","1115"
"6","6","encoding","encoding","60","Fortress.jpg","37","0","991"
"6","6","encoding","encoding","62","Oyster.jpg","36","0","1253"
"6","6","encoding","encoding","63","Hulahoop.jpg","37","0","631"
"6","6","encoding","encoding","64","Jar_JellyBeans.jpg","37","0","745"
"6","6","encoding","encoding","65","Headphones.jpg","37","0","647"
"6","6","encoding","encoding","66","Cannon.jpg","37","0","982"
"6","6","encoding","encoding","67","Brush_Nail.jpg","37","0","717"
"6","6","encoding","encoding","68","Flower_Crane.jpg","36","0","792"
"6","6","encoding","encoding","69","Speaker_OnStand.jpg","37","0","762"
"6","6","encoding","encoding","70","Pants.jpg","37","0","788"
"6","6","encoding","encoding","71","Cassette_Audio.jpg","37","0","686"
"6","6","encoding","encoding","72","PirateFlag.jpg","37","0","706"
"6","6","encoding","encoding","73","Heater_Outdoor.jpg","37","0","617"
"6","6","encoding","encoding","74","DartBoard.jpg","37","0","895"
"6","6","encoding","encoding","75","Glass_Beer.jpg","37","0","822"
"6","6","encoding","encoding","76","Helmet_Football.jpg","37","0","1013"
"6","6","encoding","encoding","77","Puffin.jpg","36","0","1170"
"6","6","encoding","encoding","78","Toy_Octopus.jpg","37","0","820"
"6","6","encoding","encoding","79","Toy_Babydoll.jpg","37","0","905"
"6","6","encoding","encoding","80","Wontons.jpg","37","0","1526"
"6","6","encoding","encoding","81","Bread_Carrot.jpg","37","0","1295"
"6","6","encoding","encoding","82","Pineapple.jpg","36","0","691"
"6","6","encoding","encoding","83","Mask_Viking.jpg","37","0","788"
"6","6","encoding","encoding","84","Sieve_SideView.jpg","37","0","1183"
"6","6","encoding","encoding","85","Kite_Rainbow.jpg","37","0","941"
"6","6","encoding","encoding","86","Jet.jpg","37","0","964"
"6","6","encoding","encoding","87","Camera_Antique.jpg","37","0","720"
"6","6","encoding","encoding","88","SledgeHammer.jpg","37","0","755"
"6","6","encoding","encoding","89","Boots_KneeHigh.jpg","37","0","609"
"6","6","encoding","encoding","90","Carrot.jpg","36","0","681"
"6","6","encoding","encoding","91","MilkPitcher.jpg","37","0","833"
"6","6","encoding","encoding","92","Clock_Interior.jpg","37","0","1732"
"6","6","encoding","encoding","93","RecorderInstrument.jpg","0","0","2000"
"6","6","encoding","encoding","94","Toy_Train.jpg","37","0","724"
"6","6","encoding","encoding","95","Statue_Head.jpg","0","0","2000"
"6","6","encoding","encoding","96","Cologne.jpg","37","0","1081"
"6","6","encoding","encoding","97","Dog_Bulldog.jpg","0","0","2000"
"6","6","encoding","encoding","98","Airplane_Fighter.jpg","0","0","2000"
"6","6","encoding","encoding","99","Light_PostIsolated.jpg","37","0","814"
"6","6","encoding","encoding","100","Lunchbox.jpg","37","0","1195"
"6","6","encoding","encoding","101","Toy_Helicopter.jpg","37","0","931"
"6","6","encoding","encoding","102","AirVent.jpg","37","0","1364"
"6","6","encoding","encoding","103","Dolphine.jpg","0","0","2000"
"6","6","encoding","encoding","104","Camera_Digital.jpg","37","0","1244"
"6","6","encoding","encoding","105","Toy_BlocksPlastic Colourful.jpg","37","0","1105"
"6","6","encoding","encoding","106","Humidifier.jpg","37","0","1263"
"6","6","encoding","encoding","107","Tape_Scotch.jpg","37","0","649"
"6","6","encoding","encoding","108","Toy_RaceTrack.jpg","37","0","643"
"6","6","encoding","encoding","109","Pot_TurkishCoffee.jpg","37","0","857"
"6","6","encoding","encoding","110","Balalaika.jpg","37","0","1195"
"6","6","encoding","encoding","111","TeethMould.jpg","37","0","1128"
"6","6","encoding","encoding","112","Speakers_Theatre.jpg","0","0","2000"
"6","6","encoding","encoding","113","Toy_StackingRing.jpg","37","0","1186"
"6","6","encoding","encoding","114","TomatoSauce.jpg","37","0","819"
"6","6","encoding","encoding","115","Cleaver_Meat.jpg","37","0","1589"
"6","6","encoding","encoding","116","Chicken_Raw.jpg","0","0","2000"
"6","6","encoding","encoding","117","Jar_Strawberry.jpg","0","0","2000"
"6","6","encoding","encoding","118","Cabasa.jpg","37","0","363"
"6","6","encoding","encoding","119","Partition.jpg","0","0","2000"
"6","6","encoding","encoding","120","Knife_Butter.jpg","0","0","2000"
"6","6","encoding","encoding","121","BinRecycling.jpg","37","0","995"
"6","6","encoding","encoding","123","Mask_Masquerade.jpg","37","0","922"
"6","6","encoding","encoding","124","Fan_Blades.jpg","37","0","898"
"6","6","encoding","encoding","125","Bed_ChildBirch.jpg","37","0","961"
"6","6","encoding","encoding","126","Banana.jpg","36","0","878"
"6","6","encoding","encoding","127","Toy_RockingHorseBlack.jpg","37","0","911"
"6","6","encoding","encoding","128","Shoe_Sneaker.jpg","37","0","758"
"6","6","encoding","encoding","129","MannequinHead.jpg","37","0","825"
"6","6","encoding","encoding","130","PedestalGreek.jpg","37","0","640"
"6","6","encoding","encoding","131","Compact_Powder.jpg","37","0","1457"
"6","6","encoding","encoding","132","Star.jpg","37","0","1275"
"6","6","encoding","encoding","133","Bread_Loaf.jpg","37","0","902"
"6","6","encoding","encoding","134","KeyHook_Occupied.jpg","37","0","580"
"6","6","encoding","encoding","135","MetalDetector.jpg","37","0","666"
"6","6","encoding","encoding","136","Statue_SouthAmerican.jpg","37","0","872"
"6","6","encoding","encoding","137","Backpack_Travel.jpg","0","0","2000"
"6","6","encoding","encoding","138","WaterFountain.jpg","0","0","2000"
"6","6","encoding","encoding","139","FireExtinguisher.jpg","0","0","2000"
"6","6","encoding","encoding","140","Keychain_Metal.jpg","37","0","659"
"6","6","encoding","encoding","141","Sink_Kitchen.jpg","0","0","2000"
"6","6","encoding","encoding","142","Knife_Kitchen.jpg","0","0","2000"
"6","6","encoding","encoding","143","Boombox.jpg","0","0","2000"
"6","6","encoding","encoding","144","Ladle.jpg","37","0","677"
"6","6","encoding","encoding","145","Zucchini.jpg","0","0","2000"
"6","6","encoding","encoding","146","Spider.jpg","0","0","2000"
"6","6","encoding","encoding","147","ScrewDriver.jpg","0","0","2000"
"6","6","encoding","encoding","148","LightBulb_White.jpg","0","0","2000"
"6","6","encoding","encoding","149","Colosseum.jpg","37","0","1609"
"6","6","encoding","encoding","150","Fireplace_Outdoor.jpg","0","0","2000"
"6","6","encoding","encoding","151","Pot_BlackOld.jpg","0","0","2000"
"6","6","encoding","encoding","152","BuildingChinese.jpg","37","0","128"
"6","6","encoding","encoding","153","Toy_Drill.jpg","37","0","823"
"6","6","encoding","encoding","154","Soap.jpg","37","0","1577"
"6","6","encoding","encoding","155","Tape_Washi.jpg","0","0","2000"
"6","6","encoding","encoding","156","Bowl_Glass.jpg","37","0","721"
"6","6","encoding","encoding","157","Stool_Foot.jpg","37","0","334"
"6","6","encoding","encoding","158","JumpingJack.jpg","37","0","582"
"6","6","encoding","encoding","159","Hat_Hard.jpg","37","0","365"
"6","6","encoding","encoding","160","ComputerKey_Escape.jpg","37","0","500"
"6","6","encoding","encoding","161","Plunger.jpg","37","0","473"
"6","6","encoding","encoding","162","TowerEiffel.jpg","37","0","339"
"6","6","encoding","encoding","163","DJMixer.jpg","37","0","529"
"6","6","encoding","encoding","164","Wheelbarrow_Green.jpg","37","0","946"
"6","6","encoding","encoding","165","ControlPanel.jpg","37","0","1559"
"6","6","encoding","encoding","166","Airplane_Commercial.jpg","37","0","600"
"6","6","encoding","encoding","167","Envelope_Manila.jpg","37","0","336"
"6","6","encoding","encoding","168","Car_Sedan.jpg","37","0","268"
"6","6","encoding","encoding","169","MatchBook.jpg","37","0","467"
"6","6","encoding","encoding","170","Plum.jpg","37","0","340"
"6","6","encoding","encoding","171","Envelope_Letter.jpg","37","0","667"
"6","6","encoding","encoding","172","Chicken_Dinner.jpg","36","0","1557"
"6","6","encoding","encoding","173","Tape_Clear.jpg","37","0","535"
"6","6","encoding","encoding","174","Lemon.jpg","36","0","735"
"6","6","encoding","encoding","175","Sandwich_Egg.jpg","37","0","667"
"6","6","encoding","encoding","176","FortuneCookie.jpg","37","0","1078"
"6","6","encoding","encoding","177","Hat_Tuque.jpg","37","0","1295"
"6","6","retrieval","new_objects","1","Box_WoodenClosed.jpg","37","1","974"
"6","6","retrieval","new_objects","2","Trunk.jpg","36","0","770"
"6","6","retrieval","old_objects","3","Cantaloupe.jpg","37","0","810"
"6","6","retrieval","new_objects","4","ComputerMouse.jpg","37","1","1253"
"6","6","retrieval","old_objects","5","Bicycle_Adult.jpg","37","0","867"
"6","6","retrieval","old_objects","6","Speaker_Computer.jpg","36","1","1009"
"6","6","retrieval","new_objects","7","Pretzel_Sticks.jpg","37","1","554"
"6","6","retrieval","old_objects","8","Sandwich_Egg.jpg","36","1","920"
"6","6","retrieval","old_objects","9","Crossbow.jpg","37","0","1110"
"6","6","retrieval","old_objects","10","Chair_PlasticGreen.jpg","36","1","1104"
"6","6","retrieval","new_objects","11","Pottery.jpg","37","1","891"
"6","6","retrieval","new_objects","12","Booth_Carnival.jpg","37","1","846"
"6","6","retrieval","new_objects","13","Cheeseburger.jpg","37","1","910"
"6","6","retrieval","old_objects","14","Socks_Winter.jpg","36","1","763"
"6","6","retrieval","new_objects","15","SewingPin_Cushion.jpg","37","1","743"
"6","6","retrieval","new_objects","16","SmokeDetector.jpg","37","1","787"
"6","6","retrieval","new_objects","17","Sieve_TopView.jpg","37","1","1000"
"6","6","retrieval","old_objects","18","Bed_ChildBirch.jpg","37","0","891"
"6","6","retrieval","new_objects","19","GranolaBar.jpg","36","0","1700"
"6","6","retrieval","new_objects","20","Tray_Metal.jpg","37","1","1413"
"6","6","retrieval","old_objects","21","BridgeWooden.jpg","37","0","1626"
"6","6","retrieval","old_objects","22","Container_RedPlastic.jpg","37","0","868"
"6","6","retrieval","new_objects","23","SetSquare.jpg","37","1","1821"
"6","6","retrieval","old_objects","24","Toy_Babydoll.jpg","0","0","2000"
"6","6","retrieval","new_objects","25","HairDryer.jpg","37","1","1083"
"6","6","retrieval","old_objects","26","Flower_Crane.jpg","36","1","684"
"6","6","retrieval","old_objects","27","ScrewDriver.jpg","37","0","728"
"6","6","retrieval","old_objects","28","Candle_ChristmasDecor.jpg","36","1","871"
"6","6","retrieval","old_objects","29","Plunger.jpg","36","1","884"
"6","6","retrieval","new_objects","30","CoffeeBeans.jpg","37","1","912"
"6","6","retrieval","old_objects","31","Speaker_OnStand.jpg","37","0","1296"
"6","6","retrieval","new_objects","32","Cannister_Gas.jpg","37","1","995"
"6","6","retrieval","new_objects","33","RibbonString.jpg","37","1","649"
"6","6","retrieval","new_objects","34","MusicSheet.jpg","37","1","711"
"6","6","retrieval","new_objects","35","Honeydew_Green.jpg","37","1","866"
"6","6","retrieval","new_objects","36","Toy_MerryGoRound.jpg","37","1","660"
"6","6","retrieval","old_objects","37","JumpingJack.jpg","37","0","701"
"6","6","retrieval","old_objects","38","Carrot.jpg","36","1","831"
"6","6","retrieval","old_objects","39","SledgeHammer.jpg","37","0","883"
"6","6","retrieval","new_objects","40","Buffalo.jpg","37","1","1050"
"6","6","retrieval","new_objects","41","Toy_GasPump.jpg","37","1","571"
"6","6","retrieval","new_objects","42","BowlingPin.jpg","37","1","604"
"6","6","retrieval","old_objects","43","Boots_KneeHigh.jpg","37","0","737"
"6","6","retrieval","new_objects","44","TireRims.jpg","37","1","580"
"6","6","retrieval","new_objects","45","Boardgame_Chess.jpg","37","1","810"
"6","6","retrieval","new_objects","46","Chest.jpg","37","1","853"
"6","6","retrieval","new_objects","47","SatelliteDish.jpg","37","1","627"
"6","6","retrieval","new_objects","48","Puzzle_Tree.jpg","37","1","779"
"6","6","retrieval","new_objects","49","Drum_Cymbal.jpg","37","1","643"
"6","6","retrieval","old_objects","50","Ambulance.jpg","36","1","903"
"6","6","retrieval","new_objects","51","Chipmunk.jpg","37","1","635"
"6","6","retrieval","old_objects","52","Lettuce_Romaine.jpg","36","1","908"
"6","6","retrieval","old_objects","53","Hat_Tuque.jpg","36","1","1137"
"6","6","retrieval","old_objects","54","Mask_Masquerade.jpg","36","1","806"
"6","6","retrieval","old_objects","55","Clock_Wall.jpg","36","1","683"
"6","6","retrieval","old_objects","56","Pants.jpg","36","1","962"
"6","6","retrieval","old_objects","57","Trash_Medical.jpg","37","0","703"
"6","6","retrieval","new_objects","58","Flower_Hibiscus.jpg","37","1","624"
"6","6","retrieval","old_objects","59","Cabasa.jpg","36","1","986"
"6","6","retrieval","new_objects","60","Napkin_Single.jpg","37","1","759"
"6","6","retrieval","new_objects","62","LaundryHamper.jpg","37","1","840"
"6","6","retrieval","old_objects","63","Bus_DoubleDecker.jpg","36","1","645"
"6","6","retrieval","new_objects","64","Bottle_Liquor.jpg","37","1","635"
"6","6","retrieval","new_objects","65","Kangaroo_WithJoey.jpg","37","1","728"
"6","6","retrieval","old_objects","66","Box_Chocolate.jpg","37","0","764"
"6","6","retrieval","old_objects","67","Carbiner_Ascender.jpg","36","1","897"
"6","6","retrieval","new_objects","68","Jug_Milk.jpg","36","0","850"
"6","6","retrieval","new_objects","69","Sashimi.jpg","0","0","2000"
"6","6","retrieval","old_objects","70","ControlPanel.jpg","37","0","1043"
"6","6","retrieval","old_objects","71","Toy_Octopus.jpg","37","0","921"
"6","6","retrieval","old_objects","72","Bird_Falcon.jpg","36","1","693"
"6","6","retrieval","old_objects","73","Soap.jpg","37","0","718"
"6","6","retrieval","new_objects","74","Grill_Gas.jpg","36","0","854"
"6","6","retrieval","old_objects","75","MannequinHead.jpg","36","1","645"
"6","6","retrieval","old_objects","76","MemoPaperSpike.jpg","37","0","728"
"6","6","retrieval","new_objects","77","Bag_Satchel.jpg","37","1","872"
"6","6","retrieval","old_objects","78","Headphones.jpg","37","0","935"
"6","6","retrieval","old_objects","79","Colosseum.jpg","36","1","910"
"6","6","retrieval","old_objects","80","Nail.jpg","36","1","1019"
"6","6","retrieval","new_objects","81","Pasta_Spaghetti.jpg","37","1","1076"
"6","6","retrieval","new_objects","82","Drill.jpg","37","1","839"
"6","6","retrieval","new_objects","83","IceCrusher.jpg","37","1","1705"
"6","6","retrieval","new_objects","84","IroningBoard.jpg","37","1","694"
"6","6","retrieval","old_objects","85","Cassette_Audio.jpg","36","1","1095"
"6","6","retrieval","old_objects","86","Tape_Washi.jpg","36","1","1011"
"6","6","retrieval","new_objects","87","Statue_VirginMary.jpg","0","0","2000"
"6","6","retrieval","new_objects","88","KitchenTools.jpg","37","1","1207"
"6","6","retrieval","old_objects","89","Puffin.jpg","36","1","819"
"6","6","retrieval","new_objects","90","PotatoMasher_Zigzag.jpg","37","1","767"
"6","6","retrieval","new_objects","91","Table_Set.jpg","37","1","739"
"6","6","retrieval","old_objects","92","Fireplace_Outdoor.jpg","37","0","536"
"6","6","retrieval","new_objects","93","Table_PingPong.jpg","36","0","677"
"6","6","retrieval","old_objects","94","Envelope_Letter.jpg","36","1","927"
"6","6","retrieval","new_objects","95","Ladder.jpg","37","1","712"
"6","6","retrieval","old_objects","96","PirateFlag.jpg","36","1","918"
"6","6","retrieval","old_objects","97","Ruler_Digital.jpg","36","1","610"
"6","6","retrieval","old_objects","98","Ruler_Wooden.jpg","36","1","520"
"6","6","retrieval","old_objects","99","Statue_Head.jpg","36","1","655"
"6","6","retrieval","new_objects","100","VacuumHandheld.jpg","36","0","734"
"6","6","retrieval","old_objects","101","Stool_Foot.jpg","36","1","567"
