"group","subject","blockcode","trialcode","trialnum","values.stimulus","response","correct","latency"
"2","2","encoding","encoding","1","Table_PingPong.jpg","37","0","1295"
"2","2","encoding","encoding","2","WateringCan_PlasticDarkGreen.jpg","37","0","785"
"2","2","encoding","encoding","3","DoorKnob.jpg","37","0","1146"
"2","2","encoding","encoding","4","CheeseSlicer.jpg","37","0","805"
"2","2","encoding","encoding","5","Pasta_Spaghetti.jpg","36","0","1719"
"2","2","encoding","encoding","6","Windmill_Building.jpg","37","0","1078"
"2","2","encoding","encoding","7","Teardrop.jpg","36","0","1146"
"2","2","encoding","encoding","8","Spool_Thread.jpg","37","0","1071"
"2","2","encoding","encoding","9","Stapler_Gun.jpg","37","0","755"
"2","2","encoding","encoding","10","PocketKnife.jpg","37","0","1664"
"2","2","encoding","encoding","11","Dress_Cocktail.jpg","37","0","1147"
"2","2","encoding","encoding","12","Archery_Arrows.jpg","37","0","1250"
"2","2","encoding","encoding","13","Ladder.jpg","37","0","592"
"2","2","encoding","encoding","14","Heelpad.jpg","0","0","2000"
"2","2","encoding","encoding","15","Tap.jpg","37","0","646"
"2","2","encoding","encoding","16","Mask_VenetianCat.jpg","37","0","700"
"2","2","encoding","encoding","17","ElasticBand.jpg","37","0","925"
"2","2","encoding","encoding","18","Boar.jpg","36","0","988"
"2","2","encoding","encoding","19","Bag_Satchel.jpg","37","0","814"
"2","2","encoding","encoding","20","SewingPin_Cushion.jpg","37","0","966"
"2","2","encoding","encoding","21","Belt.jpg","37","0","808"
"2","2","encoding","encoding","22","TireRims.jpg","37","0","958"
"2","2","encoding","encoding","23","Sign_Parking.jpg","37","0","1620"
"2","2","encoding","encoding","24","Bird_Pelican.jpg","36","0","741"
"2","2","encoding","encoding","25","BicycleOdometer.jpg","37","0","1044"
"2","2","encoding","encoding","26","Branches_Campfire.jpg","36","0","871"
"2","2","encoding","encoding","27","Blueberry.jpg","36","0","797"
"2","2","encoding","encoding","28","CertificateFramed.jpg","37","0","649"
"2","2","encoding","encoding","29","TinChristmas.jpg","37","0","634"
"2","2","encoding","encoding","30","Lamp_Table.jpg","37","0","1011"
"2","2","encoding","encoding","31","Pipe.jpg","37","0","917"
"2","2","encoding","encoding","32","Owl.jpg","36","0","555"
"2","2","encoding","encoding","33","Jack.jpg","37","0","1338"
"2","2","encoding","encoding","34","Lacrosse_Stick.jpg","37","0","1085"
"2","2","encoding","encoding","35","SatelliteDish.jpg","37","0","1414"
"2","2","encoding","encoding","36","Bag_Camera.jpg","37","0","665"
"2","2","encoding","encoding","37","Machine_Arm.jpg","37","0","1137"
"2","2","encoding","encoding","38","Cheeseburger.jpg","37","0","1168"
"2","2","encoding","encoding","39","Seashell_BayScallop.jpg","36","0","1076"
"2","2","encoding","encoding","40","IroningBoard.jpg","37","0","665"
"2","2","encoding","encoding","41","AmpMeter.jpg","37","0","726"
"2","2","encoding","encoding","42","Dice.jpg","37","0","674"
"2","2","encoding","encoding","43","Gorilla.jpg","36","0","553"
"2","2","encoding","encoding","44","Bird_Cardinal.jpg","36","0","638"
"2","2","encoding","encoding","45","CoffeeBeans.jpg","36","0","648"
"2","2","encoding","encoding","46","Pottery.jpg","37","0","1219"
"2","2","encoding","encoding","47","Horseshoe.jpg","37","0","1213"
"2","2","encoding","encoding","48","TrapAnimal.jpg","37","0","1038"
"2","2","encoding","encoding","49","Toy_Turtle.jpg","37","0","825"
"2","2","encoding","encoding","50","Balcony.jpg","37","0","746"
"2","2","encoding","encoding","51","Sieve_TopView.jpg","37","0","769"
"2","2","encoding","encoding","52","RAMchip.jpg","37","0","740"
"2","2","encoding","encoding","53","Instrument_Guiro.jpg","37","0","946"
"2","2","encoding","encoding","54","Pretzel_Sticks.jpg","36","0","1314"
"2","2","encoding","encoding","55","MeasuringTape.jpg","37","0","566"
"2","2","encoding","encoding","56","TestTube_Single.jpg","37","0","1120"
"2","2","encoding","encoding","57","Buffalo.jpg","36","0","774"
"2","2","encoding","encoding","58","Lighter_Yellow.jpg","37","0","606"
"2","2","encoding","encoding","59","VacuumHandheld.jpg","37","0","767"
"2","2","encoding","encoding","60","Honeydew_Green.jpg","36","0","780"
"2","2","encoding","encoding","62","Boardgame_Chess.jpg","37","0","1679"
"2","2","encoding","encoding","63","Spraybottle.jpg","37","0","1482"
"2","2","encoding","encoding","64","TortillaChip.jpg","37","0","1672"
"2","2","encoding","encoding","65","Carousel copy.jpg","37","0","790"
"2","2","encoding","encoding","66","Drink_Green.jpg","36","0","1191"
"2","2","encoding","encoding","67","Shirt_Tshirt.jpg","37","0","1191"
"2","2","encoding","encoding","68","Wire_ElectricalSingle.jpg","37","0","1938"
"2","2","encoding","encoding","69","CableConnecter.jpg","37","0","660"
"2","2","encoding","encoding","70","Kangaroo_WithJoey.jpg","36","0","769"
"2","2","encoding","encoding","71","Escalator.jpg","37","0","821"
"2","2","encoding","encoding","72","LaundryHamper.jpg","37","0","1092"
"2","2","encoding","encoding","73","Flower_Hibiscus.jpg","36","0","718"
"2","2","encoding","encoding","74","Pasta_Shell.jpg","36","0","1011"
"2","2","encoding","encoding","75","AirPump.jpg","37","0","572"
"2","2","encoding","encoding","76","Bag_Hand.jpg","37","0","664"
"2","2","encoding","encoding","77","StickyTack.jpg","37","0","1303"
"2","2","encoding","encoding","78","Brush_Light.jpg","37","0","890"
"2","2","encoding","encoding","79","DrinkShaker.jpg","37","0","674"
"2","2","encoding","encoding","80","Candelabra.jpg","37","0","565"
"2","2","encoding","encoding","81","PictureFrame.jpg","37","0","659"
"2","2","encoding","encoding","82","Lantern_TeaBox.jpg","37","0","816"
"2","2","encoding","encoding","83","Table_Set.jpg","37","0","1040"
"2","2","encoding","encoding","84","Bag_Diaper.jpg","37","0","1475"
"2","2","encoding","encoding","85","LightHouse.jpg","37","0","1412"
"2","2","encoding","encoding","86","Bottle_Liquor.jpg","37","0","916"
"2","2","encoding","encoding","87","SmokeDetector.jpg","37","0","842"
"2","2","encoding","encoding","88","Stethoscope.jpg","37","0","844"
"2","2","encoding","encoding","89","Toy_RobotClassic.jpg","37","0","752"
"2","2","encoding","encoding","90","WireStripper.jpg","37","0","679"
"2","2","encoding","encoding","91","Toy_BlocksMultiShape.jpg","37","0","564"
"2","2","encoding","encoding","92","Cannister_Gas.jpg","37","0","889"
"2","2","encoding","encoding","93","CarSuspension.jpg","37","0","790"
"2","2","encoding","encoding","94","Chair_Airplane.jpg","37","0","699"
"2","2","encoding","encoding","95","Sashimi.jpg","36","0","890"
"2","2","encoding","encoding","96","Drum_Cymbal.jpg","37","0","896"
"2","2","encoding","encoding","97","ThreeHolePunch.jpg","37","0","598"
"2","2","encoding","encoding","98","GasBurner.jpg","37","0","640"
"2","2","encoding","encoding","99","Ship_Cruise.jpg","37","0","820"
"2","2","encoding","encoding","100","Helmet_Soldier.jpg","37","0","881"
"2","2","encoding","encoding","101","ComputerMouse.jpg","37","0","915"
"2","2","encoding","encoding","102","Chipmunk.jpg","36","0","868"
"2","2","encoding","encoding","103","Toy_FigurineSwing.jpg","37","0","746"
"2","2","encoding","encoding","104","PowerDoorPushButton.jpg","37","0","880"
"2","2","encoding","encoding","105","Hazelnut.jpg","37","0","1310"
"2","2","encoding","encoding","106","PatioHeater.jpg","37","0","1092"
"2","2","encoding","encoding","107","ServiceBell.jpg","37","0","679"
"2","2","encoding","encoding","108","Statue_VirginMary.jpg","0","0","2000"
"2","2","encoding","encoding","109","Car_Ferrari.jpg","37","0","594"
"2","2","encoding","encoding","110","Flamingo_Cartoon.jpg","37","0","1524"
"2","2","encoding","encoding","111","IceCrusher.jpg","37","0","776"
"2","2","encoding","encoding","112","MusicSheet.jpg","37","0","1011"
"2","2","encoding","encoding","113","Nutcracker.jpg","37","0","580"
"2","2","encoding","encoding","114","Tray_Metal.jpg","37","0","582"
"2","2","encoding","encoding","115","Sign_SlipperyRoad.jpg","37","0","1005"
"2","2","encoding","encoding","116","Booth_Carnival.jpg","37","0","561"
"2","2","encoding","encoding","117","Spatula_1.jpg","37","0","625"
"2","2","encoding","encoding","118","RollingPin.jpg","37","0","722"
"2","2","encoding","encoding","119","NintendoWii.jpg","37","0","960"
"2","2","encoding","encoding","120","Bowl_Chinese.jpg","37","0","600"
"2","2","encoding","encoding","121","Mask_HockeyGoalie.jpg","37","0","588"
"2","2","encoding","encoding","123","SewingPin_Single.jpg","37","0","844"
"2","2","encoding","encoding","124","PylonTraffic.jpg","37","0","702"
"2","2","encoding","encoding","125","Barometer_Wood.jpg","37","0","1175"
"2","2","encoding","encoding","126","Piano_Keyboard.jpg","37","0","742"
"2","2","encoding","encoding","127","Toy_MerryGoRound.jpg","37","0","492"
"2","2","encoding","encoding","128","Grill_Gas.jpg","37","0","531"
"2","2","encoding","encoding","129","Cat.jpg","36","0","896"
"2","2","encoding","encoding","130","Avocado.jpg","36","0","868"
"2","2","encoding","encoding","131","Trunk.jpg","37","0","781"
"2","2","encoding","encoding","132","SofaAntique.jpg","37","0","595"
"2","2","encoding","encoding","133","GranolaBar.jpg","37","0","1454"
"2","2","encoding","encoding","134","Bible.jpg","37","0","1329"
"2","2","encoding","encoding","135","Napkin_Single.jpg","37","0","1018"
"2","2","encoding","encoding","136","Stone_Mill.jpg","37","0","1593"
"2","2","encoding","encoding","137","Thumbtack.jpg","37","0","706"
"2","2","encoding","encoding","138","HairDryer.jpg","37","0","942"
"2","2","encoding","encoding","139","Toy_Lion.jpg","37","0","968"
"2","2","encoding","encoding","140","Trumpet.jpg","37","0","878"
"2","2","encoding","encoding","141","Chair_High.jpg","37","0","739"
"2","2","encoding","encoding","142","SetSquare.jpg","37","0","1007"
"2","2","encoding","encoding","143","PotatoMasher_Zigzag.jpg","37","0","691"
"2","2","encoding","encoding","144","Drill.jpg","37","0","944"
"2","2","encoding","encoding","145","Gun_Glue.jpg","37","0","816"
"2","2","encoding","encoding","146","BunsenBurner.jpg","37","0","561"
"2","2","encoding","encoding","147","Toy_GasPump.jpg","37","0","667"
"2","2","encoding","encoding","148","Puzzle_Tree.jpg","37","0","706"
"2","2","encoding","encoding","149","Desk_Office.jpg","37","0","1441"
"2","2","encoding","encoding","150","Whip.jpg","0","0","2000"
"2","2","encoding","encoding","151","ChalkLineTool.jpg","37","0","738"
"2","2","encoding","encoding","152","Mask_Ski.jpg","37","0","840"
"2","2","encoding","encoding","153","BowlingPin.jpg","37","0","770"
"2","2","encoding","encoding","154","RibbonString.jpg","37","0","873"
"2","2","encoding","encoding","155","Nuts_Pecan.jpg","36","0","1031"
"2","2","encoding","encoding","156","Jacket_Suit.jpg","37","0","1047"
"2","2","encoding","encoding","157","Bench_Concrete.jpg","37","0","575"
"2","2","encoding","encoding","158","Booties_Blue.jpg","37","0","1075"
"2","2","encoding","encoding","159","SpiderWeb.jpg","37","0","984"
"2","2","encoding","encoding","160","Case_Pencil.jpg","37","0","959"
"2","2","encoding","encoding","161","Honeycomb.jpg","36","0","1191"
"2","2","encoding","encoding","162","Candy_Heart.jpg","37","0","1283"
"2","2","encoding","encoding","163","Box_WoodenClosed.jpg","37","0","890"
"2","2","encoding","encoding","164","Briefcase_Open.jpg","37","0","942"
"2","2","encoding","encoding","165","Corn.jpg","36","0","968"
"2","2","encoding","encoding","166","Chest.jpg","37","0","764"
"2","2","encoding","encoding","167","KitchenTools.jpg","37","0","741"
"2","2","encoding","encoding","168","Bottle_Bleach.jpg","37","0","935"
"2","2","encoding","encoding","169","Elephant.jpg","36","0","725"
"2","2","encoding","encoding","170","Iron_Antique.jpg","37","0","1106"
"2","2","encoding","encoding","171","Toy_Chameleon.jpg","36","0","952"
"2","2","encoding","encoding","172","Hat_Police.jpg","37","0","669"
"2","2","encoding","encoding","173","Syringe_Blunt.jpg","37","0","782"
"2","2","encoding","encoding","174","Flute_Tin.jpg","37","0","1009"
"2","2","encoding","encoding","175","ChocolateBar_Unwrapped.jpg","36","0","850"
"2","2","encoding","encoding","176","PaperTowel_Kitchen.jpg","37","0","713"
"2","2","encoding","encoding","177","Jug_Milk.jpg","37","0","890"
"2","2","retrieval","old_objects","1","Elephant.jpg","36","1","1094"
"2","2","retrieval","new_objects","2","Box_Present.jpg","37","1","889"
"2","2","retrieval","new_objects","3","Goat.jpg","37","1","1076"
"2","2","retrieval","old_objects","4","Dice.jpg","36","1","925"
"2","2","retrieval","new_objects","5","Crib_Standard.jpg","37","1","1164"
"2","2","retrieval","old_objects","6","Balcony.jpg","36","1","976"
"2","2","retrieval","old_objects","7","Machine_Arm.jpg","37","0","1005"
"2","2","retrieval","old_objects","8","GranolaBar.jpg","37","0","968"
"2","2","retrieval","new_objects","9","Toy_TrailerAirport.jpg","37","1","807"
"2","2","retrieval","new_objects","10","Dress_Blue.jpg","37","1","735"
"2","2","retrieval","old_objects","11","Candelabra.jpg","37","0","920"
"2","2","retrieval","new_objects","12","Toy_ModelMolecule.jpg","37","1","1074"
"2","2","retrieval","old_objects","13","Hazelnut.jpg","36","1","796"
"2","2","retrieval","new_objects","14","Domino.jpg","37","1","613"
"2","2","retrieval","old_objects","15","MusicSheet.jpg","36","1","727"
"2","2","retrieval","new_objects","16","Cabinet_Office.jpg","37","1","596"
"2","2","retrieval","new_objects","17","Gloves_WhiteKnit.jpg","37","1","534"
"2","2","retrieval","old_objects","18","BicycleOdometer.jpg","37","0","610"
"2","2","retrieval","old_objects","19","Jug_Milk.jpg","36","1","602"
"2","2","retrieval","new_objects","20","Baster.jpg","36","0","540"
"2","2","retrieval","old_objects","21","Toy_Turtle.jpg","36","1","551"
"2","2","retrieval","new_objects","22","NailPolish.jpg","37","1","602"
"2","2","retrieval","new_objects","23","Brush_BathBack.jpg","36","0","858"
"2","2","retrieval","old_objects","24","Jack.jpg","36","1","723"
"2","2","retrieval","new_objects","25","Kebab_Meat.jpg","37","1","672"
"2","2","retrieval","new_objects","26","Plate_Children.jpg","36","0","789"
"2","2","retrieval","new_objects","27","Shoe_Highheel.jpg","37","1","624"
"2","2","retrieval","old_objects","28","CheeseSlicer.jpg","36","1","901"
"2","2","retrieval","old_objects","29","Tray_Metal.jpg","36","1","758"
"2","2","retrieval","new_objects","30","Clock_Radioalarm.jpg","37","1","708"
"2","2","retrieval","old_objects","31","Case_Pencil.jpg","36","1","668"
"2","2","retrieval","old_objects","32","Mask_Ski.jpg","36","1","655"
"2","2","retrieval","old_objects","33","Stapler_Gun.jpg","36","1","774"
"2","2","retrieval","old_objects","34","Booth_Carnival.jpg","36","1","836"
"2","2","retrieval","new_objects","35","Magnet_Three.jpg","37","1","732"
"2","2","retrieval","new_objects","36","Canteen.jpg","37","1","767"
"2","2","retrieval","new_objects","37","Socks_Baby.jpg","36","0","1291"
"2","2","retrieval","old_objects","38","Toy_Lion.jpg","36","1","636"
"2","2","retrieval","old_objects","39","Flamingo_Cartoon.jpg","36","1","840"
"2","2","retrieval","new_objects","40","ShoeLace_Flat.jpg","37","1","1112"
"2","2","retrieval","new_objects","41","Stamp.jpg","37","1","800"
"2","2","retrieval","new_objects","42","Bag_Gift.jpg","37","1","1043"
"2","2","retrieval","new_objects","43","SoapDish.jpg","37","1","1120"
"2","2","retrieval","old_objects","44","Bench_Concrete.jpg","37","0","730"
"2","2","retrieval","old_objects","45","TinChristmas.jpg","37","0","692"
"2","2","retrieval","old_objects","46","Spatula_1.jpg","36","1","609"
"2","2","retrieval","old_objects","47","Toy_RobotClassic.jpg","36","1","957"
"2","2","retrieval","old_objects","48","Gorilla.jpg","36","1","861"
"2","2","retrieval","old_objects","49","MeasuringTape.jpg","36","1","734"
"2","2","retrieval","new_objects","50","Makeup_Bag.jpg","37","1","716"
"2","2","retrieval","new_objects","51","Glass_Ball.jpg","37","1","663"
"2","2","retrieval","new_objects","52","Tree_ChristmasMini.jpg","37","1","726"
"2","2","retrieval","new_objects","53","Sword.jpg","37","1","1103"
"2","2","retrieval","new_objects","54","Cable_JumpStart.jpg","37","1","620"
"2","2","retrieval","old_objects","55","Whip.jpg","37","0","689"
"2","2","retrieval","old_objects","56","Grill_Gas.jpg","36","1","886"
"2","2","retrieval","new_objects","57","ComputerKeyboard_F1.jpg","37","1","746"
"2","2","retrieval","old_objects","58","Lighter_Yellow.jpg","36","1","991"
"2","2","retrieval","new_objects","59","Toolbox_Old.jpg","37","1","645"
"2","2","retrieval","old_objects","60","Toy_BlocksMultiShape.jpg","37","0","809"
"2","2","retrieval","new_objects","62","Sled.jpg","37","1","1201"
"2","2","retrieval","new_objects","63","ShowerCap.jpg","37","1","643"
"2","2","retrieval","new_objects","64","PassionFruit.jpg","36","0","705"
"2","2","retrieval","old_objects","65","Nuts_Pecan.jpg","36","1","683"
"2","2","retrieval","new_objects","66","HairClipper.jpg","37","1","861"
"2","2","retrieval","old_objects","67","VacuumHandheld.jpg","37","0","711"
"2","2","retrieval","new_objects","68","Boardgame_ChineseCheckers.jpg","37","1","725"
"2","2","retrieval","new_objects","69","Telephone_DialAntique.jpg","36","0","650"
"2","2","retrieval","new_objects","70","PumpBreast.jpg","37","1","750"
"2","2","retrieval","old_objects","71","GasBurner.jpg","36","1","1115"
"2","2","retrieval","old_objects","72","Toy_MerryGoRound.jpg","36","1","690"
"2","2","retrieval","new_objects","73","Hammer_Reflex.jpg","36","0","741"
"2","2","retrieval","old_objects","74","Jacket_Suit.jpg","37","0","731"
"2","2","retrieval","old_objects","75","Pottery.jpg","37","0","661"
"2","2","retrieval","new_objects","76","Stove_Propane.jpg","37","1","1222"
"2","2","retrieval","old_objects","77","Pipe.jpg","36","1","763"
"2","2","retrieval","old_objects","78","SewingPin_Cushion.jpg","36","1","703"
"2","2","retrieval","old_objects","79","Piano_Keyboard.jpg","36","1","708"
"2","2","retrieval","old_objects","80","Pasta_Spaghetti.jpg","36","1","629"
"2","2","retrieval","old_objects","81","Mask_HockeyGoalie.jpg","37","0","823"
"2","2","retrieval","old_objects","82","Teardrop.jpg","36","1","797"
"2","2","retrieval","old_objects","83","Toy_Chameleon.jpg","36","1","953"
"2","2","retrieval","old_objects","84","Honeydew_Green.jpg","36","1","699"
"2","2","retrieval","new_objects","85","Umbrella_Retractable.jpg","37","1","922"
"2","2","retrieval","old_objects","86","Flute_Tin.jpg","37","0","1014"
"2","2","retrieval","new_objects","87","DentalFloss.jpg","37","1","1033"
"2","2","retrieval","new_objects","88","Bird_Hen.jpg","37","1","663"
"2","2","retrieval","new_objects","89","WaterHeater.jpg","37","1","903"
"2","2","retrieval","new_objects","90","White_Screen.jpg","37","1","1857"
"2","2","retrieval","new_objects","91","Slippers.jpg","37","1","756"
"2","2","retrieval","old_objects","92","Bottle_Liquor.jpg","36","1","1188"
"2","2","retrieval","old_objects","93","DoorKnob.jpg","36","1","1106"
"2","2","retrieval","old_objects","94","Hat_Police.jpg","36","1","755"
"2","2","retrieval","old_objects","95","Lacrosse_Stick.jpg","36","1","781"
"2","2","retrieval","old_objects","96","Kangaroo_WithJoey.jpg","36","1","586"
"2","2","retrieval","new_objects","97","Bleachers.jpg","37","1","798"
"2","2","retrieval","old_objects","98","Drum_Cymbal.jpg","36","1","680"
"2","2","retrieval","old_objects","99","Horseshoe.jpg","36","1","622"
"2","2","retrieval","old_objects","100","Table_PingPong.jpg","36","1","773"
"2","2","retrieval","old_objects","101","NintendoWii.jpg","36","1","633"
"2","2","retrieval","old_objects","102","SatelliteDish.jpg","36","1","1166"
"2","2","retrieval","old_objects","103","Napkin_Single.jpg","36","1","734"
"2","2","retrieval","old_objects","104","Gun_Glue.jpg","36","1","613"
"2","2","retrieval","new_objects","105","DogHouse.jpg","37","1","728"
"2","2","retrieval","new_objects","106","GrillRack.jpg","37","1","680"
"2","2","retrieval","new_objects","107","Saw.jpg","36","0","911"
"2","2","retrieval","new_objects","108","Bucket_Rusty.jpg","37","1","672"
"2","2","retrieval","old_objects","109","WateringCan_PlasticDarkGreen.jpg","36","1","820"
"2","2","retrieval","new_objects","110","Scalpel.jpg","36","0","688"
"2","2","retrieval","old_objects","111","Bag_Camera.jpg","37","0","994"
"2","2","retrieval","new_objects","112","AlarmSystem.jpg","37","1","605"
"2","2","retrieval","old_objects","113","Dress_Cocktail.jpg","37","0","787"
"2","2","retrieval","new_objects","114","Mirror_Dental.jpg","36","0","779"
"2","2","retrieval","new_objects","115","Toy_Wooden rings.jpg","37","1","886"
"2","2","retrieval","old_objects","116","Iron_Antique.jpg","37","0","1248"
"2","2","retrieval","new_objects","117","Scroll.jpg","37","1","613"
"2","2","retrieval","new_objects","118","DrinkingFountain.jpg","37","1","794"
"2","2","retrieval","old_objects","119","Buffalo.jpg","37","0","861"
"2","2","retrieval","old_objects","120","Stone_Mill.jpg","36","1","770"
"2","2","retrieval","old_objects","121","Wire_ElectricalSingle.jpg","37","0","1079"
"2","2","retrieval","new_objects","123","Deodorant.jpg","37","1","588"
"2","2","retrieval","old_objects","124","Ship_Cruise.jpg","36","1","829"
"2","2","retrieval","new_objects","125","Makeup_Mascara.jpg","37","1","606"
"2","2","retrieval","old_objects","126","CableConnecter.jpg","37","0","527"
"2","2","retrieval","new_objects","127","Centrifuge.jpg","37","1","652"
"2","2","retrieval","old_objects","128","Lamp_Table.jpg","37","0","772"
"2","2","retrieval","old_objects","129","ServiceBell.jpg","37","0","736"
"2","2","retrieval","new_objects","130","Paddle_Beach.jpg","37","1","522"
"2","2","retrieval","old_objects","131","TestTube_Single.jpg","36","1","622"
"2","2","retrieval","new_objects","132","Tie.jpg","37","1","580"
"2","2","retrieval","old_objects","133","PaperTowel_Kitchen.jpg","36","1","680"
"2","2","retrieval","new_objects","134","CasketOpen.jpg","37","1","691"
"2","2","retrieval","new_objects","135","Cake_Birthday.jpg","37","1","551"
"2","2","retrieval","old_objects","136","Ladder.jpg","36","1","631"
"2","2","retrieval","new_objects","137","Sign_TrafficArrow.jpg","37","1","555"
"2","2","retrieval","old_objects","138","Brush_Light.jpg","36","1","762"
"2","2","retrieval","new_objects","139","Mask_CPR.jpg","36","0","1135"
"2","2","retrieval","new_objects","140","Brush_Shaving.jpg","37","1","706"
"2","2","retrieval","new_objects","141","Dress_Party.jpg","37","1","988"
"2","2","retrieval","new_objects","142","Paddle_PingPong.jpg","36","0","936"
"2","2","retrieval","new_objects","143","WateringCan_Antique.jpg","36","0","1134"
"2","2","retrieval","old_objects","144","Desk_Office.jpg","37","0","901"
"2","2","retrieval","new_objects","145","Boxcutter.jpg","37","1","701"
"2","2","retrieval","new_objects","146","Brush_Cleaning.jpg","37","1","633"
"2","2","retrieval","new_objects","147","Jug_GallonWhite.jpg","37","1","686"
"2","2","retrieval","old_objects","148","Owl.jpg","36","1","615"
"2","2","retrieval","new_objects","149","PenStand.jpg","37","1","665"
"2","2","retrieval","new_objects","150","Phone_Wireless.jpg","37","1","759"
"2","2","retrieval","new_objects","151","Sphinx.jpg","37","1","1296"
"2","2","retrieval","new_objects","152","Switch_LightWhite.jpg","37","1","929"
"2","2","retrieval","new_objects","153","Toy_Boat.jpg","36","0","972"
"2","2","retrieval","old_objects","154","PylonTraffic.jpg","36","1","1003"
"2","2","retrieval","old_objects","155","Belt.jpg","36","1","709"
"2","2","retrieval","new_objects","156","Oven.jpg","37","1","744"
"2","2","retrieval","old_objects","157","Sign_Parking.jpg","37","0","624"
"2","2","retrieval","new_objects","158","Weights_Dumbells.jpg","37","1","588"
"2","2","retrieval","old_objects","159","WireStripper.jpg","37","0","802"
"2","2","retrieval","new_objects","160","Tray_Wooden.jpg","37","1","537"
"2","2","retrieval","new_objects","161","Jug_Wicker.jpg","37","1","456"
"2","2","retrieval","new_objects","162","Giraffe.jpg","37","1","625"
"2","2","retrieval","old_objects","163","Sieve_TopView.jpg","37","0","729"
"2","2","retrieval","new_objects","164","Seashell_AlternateTellin.jpg","37","1","565"
"2","2","retrieval","old_objects","165","RAMchip.jpg","36","1","747"
"2","2","retrieval","new_objects","166","Screw.jpg","37","1","1105"
"2","2","retrieval","new_objects","167","Candleholder_Tall.jpg","37","1","608"
"2","2","retrieval","old_objects","168","Bird_Pelican.jpg","37","0","842"
"2","2","retrieval","old_objects","169","Car_Ferrari.jpg","37","0","1182"
"2","2","retrieval","old_objects","170","ThreeHolePunch.jpg","36","1","813"
"2","2","retrieval","new_objects","171","Barometer.jpg","37","1","616"
"2","2","retrieval","old_objects","172","Toy_GasPump.jpg","37","0","854"
"2","2","retrieval","new_objects","173","GoldNugget.jpg","37","1","747"
"2","2","retrieval","old_objects","174","Chair_Airplane.jpg","37","0","704"
"2","2","retrieval","old_objects","175","Boardgame_Chess.jpg","36","1","1046"
"2","2","retrieval","new_objects","176","WatermelonSlice.jpg","37","1","691"
"2","2","retrieval","old_objects","177","Seashell_BayScallop.jpg","36","1","744"
"2","2","retrieval","old_objects","178","ElasticBand.jpg","36","1","979"
"2","2","retrieval","new_objects","179","HairClip.jpg","37","1","680"
"2","2","retrieval","old_objects","180","KitchenTools.jpg","37","0","843"
"2","2","retrieval","old_objects","181","TortillaChip.jpg","36","1","988"
"2","2","retrieval","old_objects","182","Chest.jpg","36","1","1105"
"2","2","retrieval","old_objects","184","StickyTack.jpg","36","1","864"
"2","2","retrieval","old_objects","185","PowerDoorPushButton.jpg","37","0","862"
"2","2","retrieval","new_objects","186","Dresser.jpg","37","1","583"
"2","2","retrieval","new_objects","187","Jacket_Jean.jpg","37","1","877"
"2","2","retrieval","old_objects","188","ChalkLineTool.jpg","37","0","700"
"2","2","retrieval","new_objects","189","Boat_Ferry.jpg","37","1","593"
"2","2","retrieval","new_objects","190","PoliceTape.jpg","37","1","621"
"2","2","retrieval","old_objects","191","Drill.jpg","36","1","650"
"2","2","retrieval","new_objects","192","ContactLens.jpg","37","1","963"
"2","2","retrieval","old_objects","193","Bag_Satchel.jpg","37","0","632"
"2","2","retrieval","old_objects","194","Pretzel_Sticks.jpg","36","1","543"
"2","2","retrieval","new_objects","195","Crowbar.jpg","37","1","826"
"2","2","retrieval","old_objects","196","Pasta_Shell.jpg","36","1","868"
"2","2","retrieval","old_objects","197","Spraybottle.jpg","37","0","709"
"2","2","retrieval","old_objects","198","Branches_Campfire.jpg","36","1","955"
"2","2","retrieval","new_objects","199","MobilityScooter.jpg","37","1","755"
"2","2","retrieval","new_objects","200","Toy_DinosaurBrontosaurus.jpg","37","1","1025"
"2","2","retrieval","old_objects","201","RollingPin.jpg","36","1","1041"
"2","2","retrieval","new_objects","202","Cabinet_Display.jpg","37","1","840"
"2","2","retrieval","new_objects","203","Tray_Medical.jpg","37","1","1072"
"2","2","retrieval","old_objects","204","ComputerMouse.jpg","36","1","1285"
"2","2","retrieval","old_objects","205","Trunk.jpg","36","1","682"
"2","2","retrieval","new_objects","206","Helmet_Construction.jpg","37","1","1179"
"2","2","retrieval","old_objects","207","SpiderWeb.jpg","36","1","1119"
"2","2","retrieval","old_objects","208","Sign_SlipperyRoad.jpg","37","0","990"
"2","2","retrieval","new_objects","209","Clothespin_Red.jpg","37","1","764"
"2","2","retrieval","old_objects","210","Carousel copy.jpg","36","1","792"
"2","2","retrieval","new_objects","211","ChessPiece_Knight.jpg","37","1","739"
"2","2","retrieval","old_objects","212","Nutcracker.jpg","36","1","666"
"2","2","retrieval","new_objects","213","Gametable_AirHockey.jpg","37","1","634"
"2","2","retrieval","old_objects","214","BunsenBurner.jpg","37","0","1130"
"2","2","retrieval","new_objects","215","CigarCase.jpg","37","1","683"
"2","2","retrieval","old_objects","216","LaundryHamper.jpg","37","0","836"
"2","2","retrieval","old_objects","217","Cannister_Gas.jpg","36","1","968"
"2","2","retrieval","old_objects","218","Trumpet.jpg","36","1","716"
"2","2","retrieval","new_objects","219","LitterScoop.jpg","37","1","681"
"2","2","retrieval","new_objects","220","MilkJug.jpg","37","1","657"
"2","2","retrieval","old_objects","221","TrapAnimal.jpg","36","1","726"
"2","2","retrieval","old_objects","222","Bird_Cardinal.jpg","37","0","1076"
"2","2","retrieval","old_objects","223","SofaAntique.jpg","37","0","732"
"2","2","retrieval","old_objects","224","LightHouse.jpg","36","1","786"
"2","2","retrieval","old_objects","225","ChocolateBar_Unwrapped.jpg","36","1","701"
"2","2","retrieval","old_objects","226","Drink_Green.jpg","36","1","1248"
"2","2","retrieval","old_objects","227","SmokeDetector.jpg","36","1","1103"
"2","2","retrieval","old_objects","228","PictureFrame.jpg","36","1","679"
"2","2","retrieval","old_objects","229","BowlingPin.jpg","36","1","1124"
"2","2","retrieval","new_objects","230","Asparagus.jpg","37","1","805"
"2","2","retrieval","old_objects","231","Flower_Hibiscus.jpg","36","1","1242"
"2","2","retrieval","new_objects","232","RollerCoaster.jpg","37","1","832"
"2","2","retrieval","new_objects","233","GutterAndDrainPipe.jpg","37","1","815"
"2","2","retrieval","old_objects","234","Helmet_Soldier.jpg","36","1","796"
"2","2","retrieval","old_objects","235","Candy_Heart.jpg","36","1","785"
"2","2","retrieval","new_objects","236","HorseshoeCrab.jpg","37","1","872"
"2","2","retrieval","old_objects","237","Escalator.jpg","37","0","856"
"2","2","retrieval","new_objects","238","Book_Leather.jpg","37","1","810"
"2","2","retrieval","new_objects","239","PenHolder.jpg","37","1","741"
"2","2","retrieval","new_objects","240","Lock_Key.jpg","36","0","950"
"2","2","retrieval","new_objects","241","Faucet.jpg","37","1","1009"
"2","2","retrieval","old_objects","242","Syringe_Blunt.jpg","36","1","788"
"2","2","retrieval","new_objects","243","PaintRollTray.jpg","37","1","710"
"2","2","retrieval","old_objects","245","Booties_Blue.jpg","37","0","755"
"2","2","retrieval","new_objects","246","Pretzel_Knot.jpg","37","1","782"
"2","2","retrieval","new_objects","247","Coral.jpg","37","1","580"
"2","2","retrieval","new_objects","248","PaperStack.jpg","37","1","617"
"2","2","retrieval","new_objects","249","PillBottle_Closed.jpg","37","1","629"
"2","2","retrieval","old_objects","250","Spool_Thread.jpg","37","0","535"
"2","2","retrieval","old_objects","251","Chair_High.jpg","36","1","872"
"2","2","retrieval","old_objects","252","Toy_FigurineSwing.jpg","37","0","689"
"2","2","retrieval","old_objects","253","Heelpad.jpg","36","1","782"
"2","2","retrieval","new_objects","254","FireHydrant.jpg","36","0","854"
"2","2","retrieval","old_objects","255","Box_WoodenClosed.jpg","37","0","1185"
"2","2","retrieval","new_objects","256","SpinalCord.jpg","37","1","953"
"2","2","retrieval","old_objects","257","HairDryer.jpg","37","0","791"
"2","2","retrieval","new_objects","258","Helmet_Knight.jpg","37","1","740"
"2","2","retrieval","old_objects","259","Bowl_Chinese.jpg","0","0","2000"
"2","2","retrieval","old_objects","260","Tap.jpg","36","1","870"
"2","2","retrieval","old_objects","261","Barometer_Wood.jpg","37","0","947"
"2","2","retrieval","new_objects","262","RibbonSpool.jpg","36","0","861"
"2","2","retrieval","old_objects","263","Honeycomb.jpg","36","1","945"
"2","2","retrieval","new_objects","264","BadgeSpecialAgent.jpg","37","1","669"
"2","2","retrieval","old_objects","265","Cheeseburger.jpg","36","1","724"
"2","2","retrieval","old_objects","266","PotatoMasher_Zigzag.jpg","37","0","619"
"2","2","retrieval","old_objects","267","Lantern_TeaBox.jpg","37","0","625"
"2","2","retrieval","new_objects","268","Dreamcatcher.jpg","37","1","503"
"2","2","retrieval","new_objects","269","Mop.jpg","37","1","610"
"2","2","retrieval","new_objects","270","Shorts_Plaid.jpg","37","1","542"
"2","2","retrieval","old_objects","271","Boar.jpg","36","1","898"
"2","2","retrieval","old_objects","272","Statue_VirginMary.jpg","37","0","613"
"2","2","retrieval","new_objects","273","Puzzle_Animal.jpg","37","1","535"
"2","2","retrieval","old_objects","274","Instrument_Guiro.jpg","37","0","616"
"2","2","retrieval","old_objects","275","DrinkShaker.jpg","37","0","827"
"2","2","retrieval","new_objects","276","VGAport.jpg","37","1","1028"
"2","2","retrieval","old_objects","277","SewingPin_Single.jpg","36","1","1276"
"2","2","retrieval","old_objects","278","RibbonString.jpg","37","0","893"
"2","2","retrieval","new_objects","279","GatedEntrance.jpg","37","1","547"
"2","2","retrieval","new_objects","280","TurkeyDinner.jpg","37","1","687"
"2","2","retrieval","old_objects","281","Mask_VenetianCat.jpg","36","1","638"
"2","2","retrieval","old_objects","282","Briefcase_Open.jpg","36","1","858"
"2","2","retrieval","old_objects","283","Archery_Arrows.jpg","36","1","760"
"2","2","retrieval","old_objects","284","IceCrusher.jpg","37","0","630"
"2","2","retrieval","old_objects","285","Thumbtack.jpg","36","1","661"
"2","2","retrieval","new_objects","286","Chest_Toys.jpg","37","1","854"
"2","2","retrieval","old_objects","287","Stethoscope.jpg","36","1","858"
"2","2","retrieval","old_objects","288","Avocado.jpg","36","1","794"
"2","2","retrieval","new_objects","289","Clock_Grandfather.jpg","37","1","723"
"2","2","retrieval","new_objects","290","DoubleBass.jpg","37","1","744"
"2","2","retrieval","new_objects","291","Stove_Camping.jpg","37","1","864"
"2","2","retrieval","new_objects","292","Toy_Ladybug.jpg","37","1","598"
"2","2","retrieval","new_objects","293","Spatula.jpg","37","1","538"
"2","2","retrieval","old_objects","294","CarSuspension.jpg","37","0","516"
"2","2","retrieval","old_objects","295","CoffeeBeans.jpg","36","1","708"
"2","2","retrieval","new_objects","296","Mailbox_Antique.jpg","37","1","628"
"2","2","retrieval","old_objects","297","Bible.jpg","36","1","763"
"2","2","retrieval","new_objects","298","Flowers_DryBouquet.jpg","37","1","596"
"2","2","retrieval","new_objects","299","Battery_Car.jpg","37","1","584"
"2","2","retrieval","old_objects","300","CertificateFramed.jpg","37","0","869"
"2","2","retrieval","new_objects","301","Cup_Bathroom.jpg","37","1","592"
"2","2","retrieval","new_objects","302","Cane_Metal.jpg","37","1","513"
"2","2","retrieval","new_objects","303","Gameboy.jpg","37","1","704"
"2","2","retrieval","new_objects","304","Bagpipes.jpg","37","1","769"
"2","2","retrieval","old_objects","306","Bag_Hand.jpg","37","0","501"
"2","2","retrieval","new_objects","307","Caterpillar.jpg","37","1","544"
"2","2","retrieval","old_objects","308","Puzzle_Tree.jpg","37","0","537"
"2","2","retrieval","new_objects","309","NailFiles.jpg","37","1","579"
"2","2","retrieval","new_objects","310","Toy_Tank.jpg","37","1","468"
"2","2","retrieval","new_objects","311","StreetSweeper.jpg","37","1","562"
"2","2","retrieval","new_objects","312","Dragonfly.jpg","37","1","548"
"2","2","retrieval","old_objects","313","PatioHeater.jpg","37","0","807"
"2","2","retrieval","new_objects","314","Stool_Wood.jpg","37","1","661"
"2","2","retrieval","old_objects","315","Bag_Diaper.jpg","37","0","478"
"2","2","retrieval","old_objects","316","Shirt_Tshirt.jpg","37","0","580"
"2","2","retrieval","new_objects","317","Box_WoodCrate.jpg","37","1","608"
"2","2","retrieval","old_objects","318","Chipmunk.jpg","36","1","626"
"2","2","retrieval","new_objects","319","Stick_Drum.jpg","37","1","886"
"2","2","retrieval","new_objects","320","CigarCutter.jpg","37","1","554"
"2","2","retrieval","new_objects","321","Hoverboard.jpg","37","1","569"
"2","2","retrieval","old_objects","322","Table_Set.jpg","37","0","621"
"2","2","retrieval","new_objects","323","Toy_JackInTheBox.jpg","37","1","734"
"2","2","retrieval","new_objects","324","Castle_Sand.jpg","37","1","542"
"2","2","retrieval","old_objects","325","Windmill_Building.jpg","37","0","519"
"2","2","retrieval","new_objects","326","ButterDish.jpg","37","1","668"
"2","2","retrieval","new_objects","327","Pasta_Macaroni.jpg","37","1","728"
"2","2","retrieval","new_objects","328","Box_Floral.jpg","37","1","981"
"2","2","retrieval","old_objects","329","SetSquare.jpg","37","0","901"
"2","2","retrieval","new_objects","330","Basket_Straw.jpg","37","1","853"
"2","2","retrieval","new_objects","331","Doll_Rag.jpg","37","1","733"
"2","2","retrieval","new_objects","332","FileDivider.jpg","37","1","661"
"2","2","retrieval","new_objects","333","Hay.jpg","37","1","1169"
"2","2","retrieval","new_objects","334","Brace_Leg.jpg","37","1","585"
"2","2","retrieval","new_objects","335","Flashlight.jpg","37","1","701"
"2","2","retrieval","new_objects","336","Tractor_Yellow.jpg","37","1","432"
"2","2","retrieval","new_objects","337","Card_TwoSpade.jpg","37","1","547"
"2","2","retrieval","old_objects","338","TireRims.jpg","36","1","887"
"2","2","retrieval","old_objects","339","PocketKnife.jpg","36","1","833"
"2","2","retrieval","new_objects","340","Earring_Hoop.jpg","37","1","799"
"2","2","retrieval","new_objects","341","Teapot.jpg","37","1","711"
"2","2","retrieval","new_objects","342","Colander.jpg","37","1","619"
"2","2","retrieval","new_objects","343","WashingMachine.jpg","37","1","680"
"2","2","retrieval","old_objects","344","AirPump.jpg","37","0","922"
"2","2","retrieval","old_objects","345","IroningBoard.jpg","36","1","857"
"2","2","retrieval","old_objects","346","Blueberry.jpg","36","1","765"
"2","2","retrieval","new_objects","347","Panda.jpg","37","1","701"
"2","2","retrieval","new_objects","348","Ball_Basketball.jpg","37","1","629"
"2","2","retrieval","new_objects","349","Mat_Bamboo.jpg","37","1","515"
"2","2","retrieval","old_objects","350","Corn.jpg","36","1","801"
"2","2","retrieval","old_objects","351","Bottle_Bleach.jpg","36","1","660"
"2","2","retrieval","new_objects","352","Kebab_Vegetables.jpg","37","1","614"
"2","2","retrieval","old_objects","353","Cat.jpg","36","1","739"
"2","2","retrieval","old_objects","354","Sashimi.jpg","36","1","878"
"2","2","retrieval","old_objects","355","AmpMeter.jpg","36","1","572"
"2","2","demographics_block","gender","1","AmpMeter.jpg","Male","1","23790"
"2","2","demographics_block","age","1","AmpMeter.jpg","23","1","23790"
"2","2","demographics_block","education","1","AmpMeter.jpg","15","1","23790"
"2","2","demographics_block","left_right_handed","2","AmpMeter.jpg","Right","1","11088"
"2","2","demographics_block","raceoption1","2","AmpMeter.jpg","","1","11088"
"2","2","demographics_block","raceoption2","2","AmpMeter.jpg","","1","11088"
"2","2","demographics_block","raceoption3","2","AmpMeter.jpg","","1","11088"
"2","2","demographics_block","raceoption4","2","AmpMeter.jpg","","1","11088"
"2","2","demographics_block","raceoption5","2","AmpMeter.jpg","","1","11088"
"2","2","demographics_block","raceoption6","2","AmpMeter.jpg","","1","11088"
"2","2","demographics_block","raceoption7","2","AmpMeter.jpg","","1","11088"
"2","2","demographics_block","raceoption8","2","AmpMeter.jpg","7","1","11088"
"2","2","demographics_block","raceoption9","2","AmpMeter.jpg","","1","11088"
"2","2","demographics_block","raceother","2","AmpMeter.jpg","","1","11088"
"2","2","demographics_block","raceother","2","AmpMeter.jpg","","1","11088"
"2","2","demographics_block","english_language","2","AmpMeter.jpg","Yes","1","11088"
"2","2","demographics_block","english_languageother","2","AmpMeter.jpg","","1","11088"
"2","2","demographics_block","eyesight","3","AmpMeter.jpg","Yes","1","4179"
"2","2","demographics_block","colorblind","3","AmpMeter.jpg","No","1","4179"
"2","2","worker_id_block","worker_id_textbox","1","AmpMeter.jpg","A3RQBXJQOOEX3S","1","57261"
"4","4","encoding","encoding","1","Avocado.jpg","36","0","1546"
"4","4","encoding","encoding","2","AirPump.jpg","37","0","1353"
"4","4","encoding","encoding","3","ElasticBand.jpg","37","0","1061"
"4","4","encoding","encoding","4","Drink_Green.jpg","36","0","714"
"4","4","encoding","encoding","5","Toy_MerryGoRound.jpg","37","0","853"
"4","4","encoding","encoding","6","Heelpad.jpg","0","0","2000"
"4","4","encoding","encoding","7","RollingPin.jpg","37","0","1294"
"4","4","encoding","encoding","8","Stapler_Gun.jpg","37","0","604"
"4","4","encoding","encoding","9","Bench_Concrete.jpg","37","0","623"
"4","4","encoding","encoding","10","SewingPin_Cushion.jpg","37","0","946"
"4","4","encoding","encoding","11","Table_Set.jpg","37","0","473"
"4","4","encoding","encoding","12","PocketKnife.jpg","37","0","628"
"4","4","encoding","encoding","13","Sieve_TopView.jpg","37","0","506"
"4","4","encoding","encoding","14","Table_PingPong.jpg","37","0","468"
"4","4","encoding","encoding","15","Bag_Hand.jpg","37","0","448"
"4","4","encoding","encoding","16","Instrument_Guiro.jpg","37","0","342"
"4","4","encoding","encoding","17","MusicSheet.jpg","37","0","385"
"4","4","encoding","encoding","18","IroningBoard.jpg","37","0","384"
"4","4","encoding","encoding","19","Lantern_TeaBox.jpg","37","0","255"
"4","4","encoding","encoding","20","Dice.jpg","37","0","350"
"4","4","encoding","encoding","21","Drum_Cymbal.jpg","37","0","303"
"4","4","encoding","encoding","22","RibbonString.jpg","37","0","216"
"4","4","encoding","encoding","23","Toy_Lion.jpg","37","0","280"
"4","4","encoding","encoding","24","Blueberry.jpg","37","0","261"
"4","4","encoding","encoding","25","Bag_Diaper.jpg","37","0","599"
"4","4","encoding","encoding","26","CableConnecter.jpg","37","0","467"
"4","4","encoding","encoding","27","SpiderWeb.jpg","36","0","1375"
"4","4","encoding","encoding","28","Gun_Glue.jpg","37","0","499"
"4","4","encoding","encoding","29","RAMchip.jpg","37","0","484"
"4","4","encoding","encoding","30","Buffalo.jpg","36","0","838"
"4","4","encoding","encoding","31","Barometer_Wood.jpg","37","0","591"
"4","4","encoding","encoding","32","Shirt_Tshirt.jpg","37","0","978"
"4","4","encoding","encoding","33","Ladder.jpg","37","0","981"
"4","4","encoding","encoding","34","Jug_Milk.jpg","37","0","844"
"4","4","encoding","encoding","35","LightHouse.jpg","37","0","692"
"4","4","encoding","encoding","36","StickyTack.jpg","36","0","1194"
"4","4","encoding","encoding","37","Spatula_1.jpg","37","0","770"
"4","4","encoding","encoding","38","Brush_Light.jpg","37","0","1869"
"4","4","encoding","encoding","39","KitchenTools.jpg","37","0","742"
"4","4","encoding","encoding","40","ChalkLineTool.jpg","37","0","674"
"4","4","encoding","encoding","41","Statue_VirginMary.jpg","37","0","1164"
"4","4","encoding","encoding","42","Horseshoe.jpg","37","0","1457"
"4","4","encoding","encoding","43","Piano_Keyboard.jpg","37","0","877"
"4","4","encoding","encoding","44","Trunk.jpg","37","0","1361"
"4","4","encoding","encoding","45","TortillaChip.jpg","37","0","1799"
"4","4","encoding","encoding","46","Nuts_Pecan.jpg","36","0","1001"
"4","4","encoding","encoding","47","Booties_Blue.jpg","37","0","955"
"4","4","encoding","encoding","48","Jack.jpg","37","0","637"
"4","4","encoding","encoding","49","Pipe.jpg","37","0","1430"
"4","4","encoding","encoding","50","CertificateFramed.jpg","37","0","935"
"4","4","encoding","encoding","51","LaundryHamper.jpg","37","0","674"
"4","4","encoding","encoding","52","Napkin_Single.jpg","37","0","850"
"4","4","encoding","encoding","53","Hat_Police.jpg","37","0","597"
"4","4","encoding","encoding","54","Ship_Cruise.jpg","37","0","948"
"4","4","encoding","encoding","55","Spraybottle.jpg","37","0","833"
"4","4","encoding","encoding","56","Chest.jpg","37","0","780"
"4","4","encoding","encoding","57","Sashimi.jpg","36","0","1686"
"4","4","encoding","encoding","58","Bird_Pelican.jpg","36","0","1031"
"4","4","encoding","encoding","59","SmokeDetector.jpg","37","0","816"
"4","4","encoding","encoding","60","Hazelnut.jpg","36","0","894"
"4","4","encoding","encoding","62","BowlingPin.jpg","37","0","749"
"4","4","encoding","encoding","63","Gorilla.jpg","36","0","649"
"4","4","encoding","encoding","64","Bottle_Bleach.jpg","37","0","977"
"4","4","encoding","encoding","65","WateringCan_PlasticDarkGreen.jpg","37","0","670"
"4","4","encoding","encoding","66","Owl.jpg","36","0","777"
"4","4","encoding","encoding","67","MeasuringTape.jpg","37","0","855"
"4","4","encoding","encoding","68","Belt.jpg","37","0","748"
"4","4","encoding","encoding","69","Spool_Thread.jpg","37","0","547"
"4","4","encoding","encoding","70","Windmill_Building.jpg","37","0","914"
"4","4","encoding","encoding","71","SetSquare.jpg","37","0","970"
"4","4","encoding","encoding","72","Candelabra.jpg","37","0","775"
"4","4","encoding","encoding","73","Archery_Arrows.jpg","37","0","768"
"4","4","encoding","encoding","74","Stone_Mill.jpg","37","0","1139"
"4","4","encoding","encoding","75","SofaAntique.jpg","37","0","705"
"4","4","encoding","encoding","76","Carousel copy.jpg","37","0","778"
"4","4","encoding","encoding","77","CheeseSlicer.jpg","37","0","1259"
"4","4","encoding","encoding","78","BunsenBurner.jpg","37","0","590"
"4","4","encoding","encoding","79","Lighter_Yellow.jpg","37","0","504"
"4","4","encoding","encoding","80","Pretzel_Sticks.jpg","37","0","258"
"4","4","encoding","encoding","81","Toy_RobotClassic.jpg","37","0","525"
"4","4","encoding","encoding","82","Wire_ElectricalSingle.jpg","37","0","665"
"4","4","encoding","encoding","83","Iron_Antique.jpg","37","0","912"
"4","4","encoding","encoding","84","Flamingo_Cartoon.jpg","37","0","1057"
"4","4","encoding","encoding","85","Case_Pencil.jpg","37","0","623"
"4","4","encoding","encoding","86","Kangaroo_WithJoey.jpg","37","0","534"
"4","4","encoding","encoding","87","Pottery.jpg","37","0","568"
"4","4","encoding","encoding","88","PowerDoorPushButton.jpg","37","0","463"
"4","4","encoding","encoding","89","Stethoscope.jpg","37","0","538"
"4","4","encoding","encoding","90","DrinkShaker.jpg","37","0","501"
"4","4","encoding","encoding","91","Mask_Ski.jpg","37","0","385"
"4","4","encoding","encoding","92","Sign_Parking.jpg","37","0","626"
"4","4","encoding","encoding","93","Corn.jpg","36","0","658"
"4","4","encoding","encoding","94","Grill_Gas.jpg","37","0","1257"
"4","4","encoding","encoding","95","Machine_Arm.jpg","37","0","678"
"4","4","encoding","encoding","96","ChocolateBar_Unwrapped.jpg","36","0","579"
"4","4","encoding","encoding","97","Bag_Satchel.jpg","37","0","502"
"4","4","encoding","encoding","98","Teardrop.jpg","37","0","360"
"4","4","encoding","encoding","99","Mask_HockeyGoalie.jpg","37","0","717"
"4","4","encoding","encoding","100","Toy_GasPump.jpg","37","0","997"
"4","4","encoding","encoding","101","Box_WoodenClosed.jpg","37","0","533"
"4","4","encoding","encoding","102","TireRims.jpg","37","0","597"
"4","4","encoding","encoding","103","SewingPin_Single.jpg","37","0","561"
"4","4","encoding","encoding","104","Lacrosse_Stick.jpg","37","0","638"
"4","4","encoding","encoding","105","WireStripper.jpg","37","0","518"
"4","4","encoding","encoding","106","Toy_FigurineSwing.jpg","37","0","540"
"4","4","encoding","encoding","107","Boardgame_Chess.jpg","37","0","446"
"4","4","encoding","encoding","108","TrapAnimal.jpg","37","0","397"
"4","4","encoding","encoding","109","VacuumHandheld.jpg","37","0","918"
"4","4","encoding","encoding","110","PictureFrame.jpg","37","0","1559"
"4","4","encoding","encoding","111","Jacket_Suit.jpg","37","0","562"
"4","4","encoding","encoding","112","Cheeseburger.jpg","37","0","427"
"4","4","encoding","encoding","113","BicycleOdometer.jpg","37","0","609"
"4","4","encoding","encoding","114","Sign_SlipperyRoad.jpg","37","0","527"
"4","4","encoding","encoding","115","Seashell_BayScallop.jpg","36","0","766"
"4","4","encoding","encoding","116","Briefcase_Open.jpg","37","0","525"
"4","4","encoding","encoding","117","Dress_Cocktail.jpg","37","0","680"
"4","4","encoding","encoding","118","HairDryer.jpg","37","0","583"
"4","4","encoding","encoding","119","ServiceBell.jpg","37","0","792"
"4","4","encoding","encoding","120","Chipmunk.jpg","36","0","888"
"4","4","encoding","encoding","121","Flower_Hibiscus.jpg","36","0","508"
"4","4","encoding","encoding","123","Toy_BlocksMultiShape.jpg","37","0","678"
"4","4","encoding","encoding","124","Cat.jpg","36","0","478"
"4","4","encoding","encoding","125","IceCrusher.jpg","37","0","571"
"4","4","encoding","encoding","126","Chair_High.jpg","37","0","390"
"4","4","encoding","encoding","127","AmpMeter.jpg","37","0","462"
"4","4","encoding","encoding","128","GranolaBar.jpg","36","0","446"
"4","4","encoding","encoding","129","Syringe_Blunt.jpg","37","0","604"
"4","4","encoding","encoding","130","Drill.jpg","37","0","478"
"4","4","encoding","encoding","131","PylonTraffic.jpg","37","0","906"
"4","4","encoding","encoding","132","Bird_Cardinal.jpg","36","0","543"
"4","4","encoding","encoding","133","Trumpet.jpg","37","0","438"
"4","4","encoding","encoding","134","Bottle_Liquor.jpg","37","0","386"
"4","4","encoding","encoding","135","Pasta_Spaghetti.jpg","37","0","404"
"4","4","encoding","encoding","136","Toy_Chameleon.jpg","36","0","579"
"4","4","encoding","encoding","137","Bag_Camera.jpg","37","0","456"
"4","4","encoding","encoding","138","ComputerMouse.jpg","37","0","415"
"4","4","encoding","encoding","139","SatelliteDish.jpg","37","0","397"
"4","4","encoding","encoding","140","Mask_VenetianCat.jpg","37","0","622"
"4","4","encoding","encoding","141","Booth_Carnival.jpg","37","0","532"
"4","4","encoding","encoding","142","Flute_Tin.jpg","37","0","477"
"4","4","encoding","encoding","143","Nutcracker.jpg","37","0","475"
"4","4","encoding","encoding","144","Bible.jpg","37","0","232"
"4","4","encoding","encoding","145","Pasta_Shell.jpg","37","0","343"
"4","4","encoding","encoding","146","Balcony.jpg","37","0","451"
"4","4","encoding","encoding","147","GasBurner.jpg","37","0","499"
"4","4","encoding","encoding","148","Escalator.jpg","37","0","453"
"4","4","encoding","encoding","149","Chair_Airplane.jpg","37","0","480"
"4","4","encoding","encoding","150","Thumbtack.jpg","37","0","510"
"4","4","encoding","encoding","151","Car_Ferrari.jpg","37","0","439"
"4","4","encoding","encoding","152","TestTube_Single.jpg","37","0","499"
"4","4","encoding","encoding","153","Candy_Heart.jpg","37","0","337"
"4","4","encoding","encoding","154","Puzzle_Tree.jpg","37","0","219"
"4","4","encoding","encoding","155","Lamp_Table.jpg","37","0","403"
"4","4","encoding","encoding","156","PaperTowel_Kitchen.jpg","37","0","346"
"4","4","encoding","encoding","157","Honeycomb.jpg","36","0","735"
"4","4","encoding","encoding","158","PatioHeater.jpg","37","0","618"
"4","4","encoding","encoding","159","Boar.jpg","36","0","564"
"4","4","encoding","encoding","160","Tray_Metal.jpg","37","0","573"
"4","4","encoding","encoding","161","DoorKnob.jpg","37","0","454"
"4","4","encoding","encoding","162","ThreeHolePunch.jpg","37","0","390"
"4","4","encoding","encoding","163","Cannister_Gas.jpg","37","0","380"
"4","4","encoding","encoding","164","TinChristmas.jpg","0","0","2000"
"4","4","encoding","encoding","165","PotatoMasher_Zigzag.jpg","37","0","849"
"4","4","encoding","encoding","166","Toy_Turtle.jpg","37","0","707"
"4","4","encoding","encoding","167","Tap.jpg","37","0","717"
"4","4","encoding","encoding","168","CoffeeBeans.jpg","36","0","626"
"4","4","encoding","encoding","169","Branches_Campfire.jpg","36","0","804"
"4","4","encoding","encoding","170","Bowl_Chinese.jpg","37","0","559"
"4","4","encoding","encoding","171","Honeydew_Green.jpg","0","0","2000"
"4","4","encoding","encoding","172","NintendoWii.jpg","0","0","2000"
"4","4","encoding","encoding","173","Whip.jpg","37","0","792"
"4","4","encoding","encoding","174","Desk_Office.jpg","37","0","663"
"4","4","encoding","encoding","175","Elephant.jpg","36","0","570"
"4","4","encoding","encoding","176","Helmet_Soldier.jpg","37","0","1499"
"4","4","encoding","encoding","177","CarSuspension.jpg","37","0","603"
"4","4","retrieval","new_objects","1","Jug_GallonWhite.jpg","36","0","1397"
"4","4","retrieval","new_objects","2","GatedEntrance.jpg","37","1","663"
"4","4","retrieval","old_objects","3","Buffalo.jpg","36","1","942"
"4","4","retrieval","new_objects","4","Sword.jpg","37","1","602"
"4","4","retrieval","old_objects","5","Candelabra.jpg","36","1","665"
"4","4","retrieval","new_objects","6","CasketOpen.jpg","37","1","639"
"4","4","retrieval","new_objects","7","Cable_JumpStart.jpg","37","1","610"
"4","4","retrieval","new_objects","8","Mop.jpg","37","1","593"
"4","4","retrieval","old_objects","9","ChalkLineTool.jpg","36","1","800"
"4","4","retrieval","old_objects","10","PylonTraffic.jpg","37","0","598"
"4","4","retrieval","new_objects","11","PenHolder.jpg","37","1","995"
"4","4","retrieval","new_objects","12","Toy_Tank.jpg","37","1","580"
"4","4","retrieval","new_objects","13","PassionFruit.jpg","37","1","913"
"4","4","retrieval","old_objects","14","Piano_Keyboard.jpg","36","1","816"
"4","4","retrieval","new_objects","15","Paddle_Beach.jpg","37","1","786"
"4","4","retrieval","new_objects","16","Bag_Gift.jpg","37","1","603"
"4","4","retrieval","old_objects","17","TestTube_Single.jpg","36","1","693"
"4","4","retrieval","new_objects","18","Tree_ChristmasMini.jpg","37","1","520"
"4","4","retrieval","new_objects","19","DentalFloss.jpg","37","1","746"
"4","4","retrieval","old_objects","20","SewingPin_Cushion.jpg","37","0","521"
"4","4","retrieval","old_objects","21","Bench_Concrete.jpg","36","1","643"
"4","4","retrieval","new_objects","22","Hoverboard.jpg","37","1","564"
"4","4","retrieval","old_objects","23","AmpMeter.jpg","36","1","726"
"4","4","retrieval","new_objects","24","PillBottle_Closed.jpg","37","1","536"
"4","4","retrieval","old_objects","25","WireStripper.jpg","36","1","530"
"4","4","retrieval","new_objects","26","WatermelonSlice.jpg","37","1","548"
"4","4","retrieval","old_objects","27","Bible.jpg","36","1","564"
"4","4","retrieval","new_objects","28","Sphinx.jpg","37","1","544"
"4","4","retrieval","new_objects","29","Toy_JackInTheBox.jpg","37","1","584"
"4","4","retrieval","new_objects","30","Paddle_PingPong.jpg","37","1","778"
"4","4","retrieval","old_objects","31","CableConnecter.jpg","36","1","650"
"4","4","retrieval","old_objects","32","Puzzle_Tree.jpg","36","1","636"
"4","4","retrieval","old_objects","33","Pottery.jpg","36","1","680"
"4","4","retrieval","old_objects","34","ChocolateBar_Unwrapped.jpg","36","1","500"
"4","4","retrieval","old_objects","35","Belt.jpg","36","1","549"
"4","4","retrieval","new_objects","36","Dress_Blue.jpg","37","1","564"
"4","4","retrieval","old_objects","37","Mask_Ski.jpg","36","1","487"
"4","4","retrieval","old_objects","38","Barometer_Wood.jpg","36","1","637"
"4","4","retrieval","new_objects","39","Screw.jpg","37","1","745"
"4","4","retrieval","new_objects","40","Crowbar.jpg","37","1","779"
"4","4","retrieval","new_objects","41","RibbonSpool.jpg","37","1","637"
"4","4","retrieval","new_objects","42","BadgeSpecialAgent.jpg","37","1","527"
"4","4","retrieval","new_objects","43","Coral.jpg","37","1","539"
"4","4","retrieval","old_objects","44","Cannister_Gas.jpg","36","1","743"
"4","4","retrieval","new_objects","45","Faucet.jpg","36","0","886"
"4","4","retrieval","new_objects","46","Jug_Wicker.jpg","37","1","651"
"4","4","retrieval","old_objects","47","TrapAnimal.jpg","36","1","684"
"4","4","retrieval","new_objects","48","Stool_Wood.jpg","37","1","692"
"4","4","retrieval","new_objects","49","Brush_Shaving.jpg","36","0","524"
"4","4","retrieval","new_objects","50","Gameboy.jpg","37","1","571"
"4","4","retrieval","old_objects","51","Stethoscope.jpg","36","1","628"
"4","4","retrieval","new_objects","52","Panda.jpg","37","1","796"
"4","4","retrieval","new_objects","53","Scroll.jpg","37","1","771"
"4","4","retrieval","new_objects","54","Flowers_DryBouquet.jpg","37","1","540"
"4","4","retrieval","old_objects","55","Drill.jpg","37","0","637"
"4","4","retrieval","old_objects","56","Table_PingPong.jpg","37","0","559"
"4","4","retrieval","new_objects","57","Helmet_Construction.jpg","37","1","1417"
"4","4","retrieval","new_objects","58","DoubleBass.jpg","37","1","644"
"4","4","retrieval","new_objects","59","Clock_Grandfather.jpg","37","1","644"
"4","4","retrieval","new_objects","60","Mask_CPR.jpg","37","1","1068"
"4","4","retrieval","new_objects","62","Teapot.jpg","37","1","1019"
"4","4","retrieval","old_objects","63","Honeycomb.jpg","36","1","520"
"4","4","retrieval","old_objects","64","PatioHeater.jpg","36","1","727"
"4","4","retrieval","new_objects","65","Mat_Bamboo.jpg","37","1","502"
"4","4","retrieval","old_objects","66","NintendoWii.jpg","36","1","711"
"4","4","retrieval","old_objects","67","Bottle_Liquor.jpg","37","0","1068"
"4","4","retrieval","old_objects","68","RollingPin.jpg","37","0","1415"
"4","4","retrieval","old_objects","69","Dress_Cocktail.jpg","37","0","757"
"4","4","retrieval","new_objects","70","Cabinet_Display.jpg","37","1","930"
"4","4","retrieval","old_objects","71","Stapler_Gun.jpg","36","1","612"
"4","4","retrieval","new_objects","72","StreetSweeper.jpg","37","1","630"
"4","4","retrieval","old_objects","73","WateringCan_PlasticDarkGreen.jpg","36","1","590"
"4","4","retrieval","old_objects","74","LightHouse.jpg","36","1","586"
"4","4","retrieval","new_objects","75","Tray_Wooden.jpg","36","0","777"
"4","4","retrieval","old_objects","76","RibbonString.jpg","36","1","855"
"4","4","retrieval","new_objects","77","HorseshoeCrab.jpg","37","1","813"
"4","4","retrieval","new_objects","78","Gloves_WhiteKnit.jpg","36","0","718"
"4","4","retrieval","old_objects","79","LaundryHamper.jpg","36","1","743"
"4","4","retrieval","new_objects","80","Baster.jpg","36","0","696"
"4","4","retrieval","new_objects","81","Toy_Wooden rings.jpg","37","1","626"
"4","4","retrieval","old_objects","82","PowerDoorPushButton.jpg","37","0","639"
"4","4","retrieval","new_objects","83","PenStand.jpg","37","1","723"
"4","4","retrieval","old_objects","84","Tray_Metal.jpg","36","1","731"
"4","4","retrieval","new_objects","85","GrillRack.jpg","37","1","781"
"4","4","retrieval","old_objects","86","Dice.jpg","36","1","647"
"4","4","retrieval","old_objects","87","Nutcracker.jpg","37","0","801"
"4","4","retrieval","old_objects","88","Sign_Parking.jpg","36","1","771"
"4","4","retrieval","new_objects","89","VGAport.jpg","37","1","887"
"4","4","retrieval","new_objects","90","CigarCutter.jpg","37","1","720"
"4","4","retrieval","new_objects","91","Earring_Hoop.jpg","37","1","1013"
"4","4","retrieval","new_objects","92","Book_Leather.jpg","37","1","773"
"4","4","retrieval","old_objects","93","Syringe_Blunt.jpg","37","0","635"
"4","4","retrieval","new_objects","94","Stick_Drum.jpg","37","1","674"
"4","4","retrieval","new_objects","95","Basket_Straw.jpg","37","1","740"
"4","4","retrieval","old_objects","96","Instrument_Guiro.jpg","36","1","708"
"4","4","retrieval","new_objects","97","Gametable_AirHockey.jpg","37","1","644"
"4","4","retrieval","old_objects","98","Corn.jpg","36","1","584"
"4","4","retrieval","new_objects","99","WaterHeater.jpg","37","1","1072"
"4","4","retrieval","new_objects","100","WateringCan_Antique.jpg","37","1","1252"
"4","4","retrieval","old_objects","101","CoffeeBeans.jpg","36","1","498"
"4","4","retrieval","old_objects","102","KitchenTools.jpg","36","1","564"
"4","4","retrieval","new_objects","103","Boardgame_ChineseCheckers.jpg","37","1","536"
"4","4","retrieval","old_objects","104","HairDryer.jpg","36","1","457"
"4","4","retrieval","new_objects","105","CigarCase.jpg","37","1","578"
"4","4","retrieval","old_objects","106","Lamp_Table.jpg","37","0","578"
"4","4","retrieval","new_objects","107","Toy_Boat.jpg","37","1","553"
"4","4","retrieval","new_objects","108","ChessPiece_Knight.jpg","37","1","574"
"4","4","retrieval","new_objects","109","Pasta_Macaroni.jpg","36","0","461"
"4","4","retrieval","new_objects","110","Socks_Baby.jpg","36","0","809"
"4","4","retrieval","new_objects","111","Dresser.jpg","37","1","521"
"4","4","retrieval","old_objects","112","Statue_VirginMary.jpg","37","0","478"
"4","4","retrieval","old_objects","113","Box_WoodenClosed.jpg","36","1","608"
"4","4","retrieval","new_objects","114","Telephone_DialAntique.jpg","37","1","573"
"4","4","retrieval","old_objects","115","Pretzel_Sticks.jpg","36","1","522"
"4","4","retrieval","new_objects","116","Boxcutter.jpg","37","1","684"
"4","4","retrieval","new_objects","117","Cabinet_Office.jpg","36","0","514"
"4","4","retrieval","old_objects","118","Mask_HockeyGoalie.jpg","36","1","549"
"4","4","retrieval","old_objects","119","Toy_Turtle.jpg","36","1","499"
"4","4","retrieval","old_objects","120","Boar.jpg","36","1","505"
"4","4","retrieval","old_objects","121","Jug_Milk.jpg","37","0","539"
"4","4","retrieval","old_objects","123","Mask_VenetianCat.jpg","36","1","796"
"4","4","retrieval","new_objects","124","RollerCoaster.jpg","37","1","632"
"4","4","retrieval","old_objects","125","IceCrusher.jpg","37","0","562"
"4","4","retrieval","new_objects","126","PoliceTape.jpg","37","1","697"
"4","4","retrieval","new_objects","127","Bucket_Rusty.jpg","36","0","631"
"4","4","retrieval","old_objects","128","GranolaBar.jpg","36","1","590"
"4","4","retrieval","old_objects","129","Avocado.jpg","36","1","525"
"4","4","retrieval","old_objects","130","MusicSheet.jpg","36","1","516"
"4","4","retrieval","new_objects","131","Shoe_Highheel.jpg","37","1","536"
"4","4","retrieval","new_objects","132","Toy_Ladybug.jpg","37","1","667"
"4","4","retrieval","new_objects","133","GoldNugget.jpg","36","0","584"
"4","4","retrieval","old_objects","134","Bag_Satchel.jpg","36","1","703"
"4","4","retrieval","old_objects","135","Ship_Cruise.jpg","36","1","704"
"4","4","retrieval","new_objects","136","PumpBreast.jpg","37","1","802"
"4","4","retrieval","old_objects","137","Cat.jpg","36","1","544"
"4","4","retrieval","old_objects","138","Drum_Cymbal.jpg","36","1","604"
"4","4","retrieval","old_objects","139","Spatula_1.jpg","36","1","536"
"4","4","retrieval","old_objects","140","TinChristmas.jpg","37","0","660"
"4","4","retrieval","new_objects","141","ButterDish.jpg","37","1","595"
"4","4","retrieval","old_objects","142","ThreeHolePunch.jpg","37","0","565"
"4","4","retrieval","new_objects","143","Box_Floral.jpg","36","0","571"
"4","4","retrieval","old_objects","144","CheeseSlicer.jpg","36","1","734"
"4","4","retrieval","new_objects","145","Asparagus.jpg","36","0","545"
"4","4","retrieval","old_objects","146","Spool_Thread.jpg","36","1","517"
"4","4","retrieval","new_objects","147","Doll_Rag.jpg","37","1","501"
"4","4","retrieval","new_objects","148","AlarmSystem.jpg","37","1","536"
"4","4","retrieval","old_objects","149","ServiceBell.jpg","36","1","624"
"4","4","retrieval","old_objects","150","Briefcase_Open.jpg","36","1","674"
"4","4","retrieval","new_objects","151","Toy_TrailerAirport.jpg","37","1","557"
"4","4","retrieval","old_objects","152","CertificateFramed.jpg","37","0","550"
"4","4","retrieval","new_objects","153","Weights_Dumbells.jpg","37","1","1140"
"4","4","retrieval","old_objects","154","Chair_High.jpg","37","0","1923"
"4","4","retrieval","new_objects","155","Lock_Key.jpg","36","0","854"
"4","4","retrieval","old_objects","156","SofaAntique.jpg","36","1","595"
"4","4","retrieval","new_objects","157","Shorts_Plaid.jpg","37","1","592"
"4","4","retrieval","new_objects","158","Scalpel.jpg","36","0","1398"
"4","4","retrieval","old_objects","159","BicycleOdometer.jpg","36","1","723"
"4","4","retrieval","old_objects","160","Sign_SlipperyRoad.jpg","37","0","668"
"4","4","retrieval","old_objects","161","Helmet_Soldier.jpg","37","0","1098"
"4","4","retrieval","new_objects","162","MilkJug.jpg","37","1","794"
"4","4","retrieval","new_objects","163","Bagpipes.jpg","37","1","778"
"4","4","retrieval","old_objects","164","Flower_Hibiscus.jpg","36","1","568"
"4","4","retrieval","old_objects","165","Whip.jpg","36","1","852"
"4","4","retrieval","old_objects","166","Lantern_TeaBox.jpg","36","1","761"
"4","4","retrieval","new_objects","167","Card_TwoSpade.jpg","37","1","636"
"4","4","retrieval","new_objects","168","HairClip.jpg","37","1","661"
"4","4","retrieval","old_objects","169","Bowl_Chinese.jpg","37","0","760"
"4","4","retrieval","new_objects","170","Box_WoodCrate.jpg","37","1","1751"
"4","4","retrieval","new_objects","171","PaintRollTray.jpg","37","1","776"
"4","4","retrieval","old_objects","172","Flamingo_Cartoon.jpg","36","1","580"
"4","4","retrieval","old_objects","173","RAMchip.jpg","37","0","616"
"4","4","retrieval","old_objects","174","SewingPin_Single.jpg","36","1","577"
"4","4","retrieval","old_objects","175","Desk_Office.jpg","36","1","773"
"4","4","retrieval","old_objects","176","IroningBoard.jpg","36","1","683"
"4","4","retrieval","old_objects","177","Spraybottle.jpg","36","1","532"
"4","4","retrieval","old_objects","178","PictureFrame.jpg","36","1","459"
"4","4","retrieval","new_objects","179","Centrifuge.jpg","37","1","655"
"4","4","retrieval","new_objects","180","Toy_DinosaurBrontosaurus.jpg","37","1","643"
"4","4","retrieval","old_objects","181","SetSquare.jpg","36","1","588"
"4","4","retrieval","old_objects","182","Toy_BlocksMultiShape.jpg","36","1","706"
"4","4","retrieval","new_objects","184","ComputerKeyboard_F1.jpg","37","1","960"
"4","4","retrieval","old_objects","185","Brush_Light.jpg","37","0","536"
"4","4","retrieval","new_objects","186","Stove_Camping.jpg","37","1","696"
"4","4","retrieval","new_objects","187","Kebab_Meat.jpg","37","1","557"
"4","4","retrieval","old_objects","188","Jacket_Suit.jpg","36","1","686"
"4","4","retrieval","old_objects","189","CarSuspension.jpg","37","0","693"
"4","4","retrieval","new_objects","190","Makeup_Mascara.jpg","37","1","693"
"4","4","retrieval","old_objects","191","Shirt_Tshirt.jpg","36","1","675"
"4","4","retrieval","new_objects","192","Sled.jpg","37","1","590"
"4","4","retrieval","new_objects","193","Barometer.jpg","37","1","621"
"4","4","retrieval","old_objects","194","Nuts_Pecan.jpg","36","1","561"
"4","4","retrieval","new_objects","195","Tractor_Yellow.jpg","37","1","564"
"4","4","retrieval","old_objects","196","Honeydew_Green.jpg","36","1","639"
"4","4","retrieval","old_objects","197","TortillaChip.jpg","36","1","551"
"4","4","retrieval","old_objects","198","Toy_RobotClassic.jpg","36","1","785"
"4","4","retrieval","old_objects","199","Wire_ElectricalSingle.jpg","36","1","1003"
"4","4","retrieval","old_objects","200","Grill_Gas.jpg","36","1","484"
"4","4","retrieval","new_objects","201","Plate_Children.jpg","37","1","499"
"4","4","retrieval","old_objects","202","GasBurner.jpg","36","1","712"
"4","4","retrieval","new_objects","203","Boat_Ferry.jpg","36","0","466"
"4","4","retrieval","new_objects","204","Crib_Standard.jpg","37","1","643"
"4","4","retrieval","old_objects","205","SmokeDetector.jpg","36","1","637"
"4","4","retrieval","old_objects","206","Candy_Heart.jpg","37","0","531"
"4","4","retrieval","new_objects","207","Canteen.jpg","37","1","657"
"4","4","retrieval","new_objects","208","Hay.jpg","37","1","1146"
"4","4","retrieval","new_objects","209","Colander.jpg","37","1","780"
"4","4","retrieval","new_objects","210","Helmet_Knight.jpg","37","1","644"
"4","4","retrieval","new_objects","211","Seashell_AlternateTellin.jpg","36","0","517"
"4","4","retrieval","new_objects","212","Slippers.jpg","37","1","436"
"4","4","retrieval","old_objects","213","Pasta_Shell.jpg","36","1","540"
"4","4","retrieval","new_objects","214","Bird_Hen.jpg","37","1","528"
"4","4","retrieval","new_objects","215","MobilityScooter.jpg","37","1","432"
"4","4","retrieval","old_objects","216","Gorilla.jpg","36","1","509"
"4","4","retrieval","new_objects","217","LitterScoop.jpg","37","1","495"
"4","4","retrieval","new_objects","218","TurkeyDinner.jpg","37","1","841"
"4","4","retrieval","new_objects","219","Battery_Car.jpg","37","1","437"
"4","4","retrieval","old_objects","220","Heelpad.jpg","36","1","695"
"4","4","retrieval","new_objects","221","Switch_LightWhite.jpg","37","1","659"
"4","4","retrieval","old_objects","222","Case_Pencil.jpg","37","0","449"
"4","4","retrieval","new_objects","223","Flashlight.jpg","37","1","525"
"4","4","retrieval","old_objects","224","Trumpet.jpg","37","0","505"
"4","4","retrieval","old_objects","225","Chair_Airplane.jpg","36","1","660"
"4","4","retrieval","new_objects","226","SoapDish.jpg","37","1","557"
"4","4","retrieval","old_objects","227","BunsenBurner.jpg","36","1","877"
"4","4","retrieval","new_objects","228","Mirror_Dental.jpg","36","0","507"
"4","4","retrieval","old_objects","229","Boardgame_Chess.jpg","36","1","481"
"4","4","retrieval","new_objects","230","Toy_ModelMolecule.jpg","37","1","527"
"4","4","retrieval","old_objects","231","Hat_Police.jpg","36","1","556"
"4","4","retrieval","new_objects","232","Kebab_Vegetables.jpg","37","1","651"
"4","4","retrieval","new_objects","233","FileDivider.jpg","37","1","568"
"4","4","retrieval","old_objects","234","Napkin_Single.jpg","36","1","590"
"4","4","retrieval","new_objects","235","Hammer_Reflex.jpg","37","1","634"
"4","4","retrieval","old_objects","236","DrinkShaker.jpg","37","0","772"
"4","4","retrieval","old_objects","237","MeasuringTape.jpg","36","1","537"
"4","4","retrieval","old_objects","238","Drink_Green.jpg","36","1","552"
"4","4","retrieval","new_objects","239","Brush_BathBack.jpg","37","1","612"
"4","4","retrieval","new_objects","240","Saw.jpg","37","1","559"
"4","4","retrieval","new_objects","241","Clock_Radioalarm.jpg","37","1","576"
"4","4","retrieval","new_objects","242","GutterAndDrainPipe.jpg","37","1","499"
"4","4","retrieval","new_objects","243","Mailbox_Antique.jpg","37","1","432"
"4","4","retrieval","old_objects","245","Booth_Carnival.jpg","37","0","566"
"4","4","retrieval","old_objects","246","Teardrop.jpg","37","0","377"
"4","4","retrieval","old_objects","247","Car_Ferrari.jpg","37","0","525"
"4","4","retrieval","new_objects","248","Magnet_Three.jpg","37","1","515"
"4","4","retrieval","new_objects","249","Tray_Medical.jpg","37","1","482"
"4","4","retrieval","new_objects","250","Sign_TrafficArrow.jpg","36","0","524"
"4","4","retrieval","old_objects","251","Trunk.jpg","36","1","679"
"4","4","retrieval","new_objects","252","Dreamcatcher.jpg","37","1","517"
"4","4","retrieval","new_objects","253","PaperStack.jpg","37","1","531"
"4","4","retrieval","new_objects","254","Dress_Party.jpg","37","1","514"
"4","4","retrieval","old_objects","255","Toy_MerryGoRound.jpg","37","0","448"
"4","4","retrieval","new_objects","256","Toolbox_Old.jpg","37","1","679"
"4","4","retrieval","old_objects","257","Lacrosse_Stick.jpg","36","1","614"
"4","4","retrieval","new_objects","258","Brush_Cleaning.jpg","37","1","510"
"4","4","retrieval","old_objects","259","Toy_Chameleon.jpg","36","1","577"
"4","4","retrieval","new_objects","260","White_Screen.jpg","37","1","1972"
"4","4","retrieval","old_objects","261","SpiderWeb.jpg","36","1","565"
"4","4","retrieval","old_objects","262","SatelliteDish.jpg","37","0","626"
"4","4","retrieval","new_objects","263","Caterpillar.jpg","37","1","541"
"4","4","retrieval","old_objects","264","VacuumHandheld.jpg","37","0","492"
"4","4","retrieval","old_objects","265","Gun_Glue.jpg","37","0","607"
"4","4","retrieval","new_objects","266","Cup_Bathroom.jpg","37","1","419"
"4","4","retrieval","new_objects","267","Domino.jpg","37","1","366"
"4","4","retrieval","old_objects","268","Pasta_Spaghetti.jpg","36","1","565"
"4","4","retrieval","new_objects","269","ShowerCap.jpg","37","1","741"
"4","4","retrieval","new_objects","270","Tie.jpg","37","1","451"
"4","4","retrieval","new_objects","271","Oven.jpg","37","1","558"
"4","4","retrieval","old_objects","272","Owl.jpg","36","1","586"
"4","4","retrieval","old_objects","273","Bottle_Bleach.jpg","36","1","594"
"4","4","retrieval","new_objects","274","ShoeLace_Flat.jpg","37","1","627"
"4","4","retrieval","old_objects","275","Bag_Camera.jpg","37","0","437"
"4","4","retrieval","old_objects","276","DoorKnob.jpg","37","0","411"
"4","4","retrieval","old_objects","277","Archery_Arrows.jpg","36","1","546"
"4","4","retrieval","old_objects","278","TireRims.jpg","37","0","621"
"4","4","retrieval","old_objects","279","Toy_Lion.jpg","36","1","441"
"4","4","retrieval","new_objects","280","Chest_Toys.jpg","37","1","982"
"4","4","retrieval","new_objects","281","Stamp.jpg","37","1","635"
"4","4","retrieval","new_objects","282","Candleholder_Tall.jpg","36","0","673"
"4","4","retrieval","new_objects","283","Spatula.jpg","37","1","750"
"4","4","retrieval","new_objects","284","Clothespin_Red.jpg","37","1","628"
"4","4","retrieval","old_objects","285","Booties_Blue.jpg","36","1","750"
"4","4","retrieval","old_objects","286","StickyTack.jpg","36","1","834"
"4","4","retrieval","new_objects","287","SpinalCord.jpg","37","1","507"
"4","4","retrieval","new_objects","288","FireHydrant.jpg","37","1","741"
"4","4","retrieval","old_objects","289","Escalator.jpg","36","1","704"
"4","4","retrieval","old_objects","290","Windmill_Building.jpg","36","1","577"
"4","4","retrieval","new_objects","291","Jacket_Jean.jpg","36","0","623"
"4","4","retrieval","new_objects","292","Goat.jpg","37","1","566"
"4","4","retrieval","old_objects","293","Table_Set.jpg","36","1","798"
"4","4","retrieval","old_objects","294","Pipe.jpg","37","0","783"
"4","4","retrieval","new_objects","295","Puzzle_Animal.jpg","37","1","649"
"4","4","retrieval","old_objects","296","Jack.jpg","36","1","722"
"4","4","retrieval","new_objects","297","Ball_Basketball.jpg","37","1","992"
"4","4","retrieval","new_objects","298","Pretzel_Knot.jpg","37","1","764"
"4","4","retrieval","old_objects","299","Branches_Campfire.jpg","36","1","778"
"4","4","retrieval","old_objects","300","Cheeseburger.jpg","36","1","563"
"4","4","retrieval","new_objects","301","Glass_Ball.jpg","36","0","860"
"4","4","retrieval","old_objects","302","Toy_FigurineSwing.jpg","36","1","626"
"4","4","retrieval","old_objects","303","Chipmunk.jpg","36","1","508"
"4","4","retrieval","old_objects","304","Elephant.jpg","36","1","465"
"4","4","retrieval","old_objects","306","Blueberry.jpg","36","1","649"
"4","4","retrieval","new_objects","307","WashingMachine.jpg","37","1","625"
"4","4","retrieval","new_objects","308","Brace_Leg.jpg","37","1","672"
"4","4","retrieval","old_objects","309","Sieve_TopView.jpg","36","1","763"
"4","4","retrieval","old_objects","310","Flute_Tin.jpg","37","0","648"
"4","4","retrieval","old_objects","311","Bird_Pelican.jpg","36","1","1106"
"4","4","retrieval","new_objects","312","DrinkingFountain.jpg","37","1","785"
"4","4","retrieval","old_objects","313","Horseshoe.jpg","36","1","535"
"4","4","retrieval","old_objects","314","Hazelnut.jpg","36","1","530"
"4","4","retrieval","new_objects","315","Phone_Wireless.jpg","37","1","547"
"4","4","retrieval","old_objects","316","Iron_Antique.jpg","36","1","885"
"4","4","retrieval","new_objects","317","NailFiles.jpg","37","1","660"
"4","4","retrieval","old_objects","318","Chest.jpg","36","1","546"
"4","4","retrieval","new_objects","319","Stove_Propane.jpg","37","1","661"
"4","4","retrieval","new_objects","320","Box_Present.jpg","37","1","519"
"4","4","retrieval","old_objects","321","Thumbtack.jpg","36","1","709"
"4","4","retrieval","old_objects","322","Stone_Mill.jpg","36","1","569"
"4","4","retrieval","new_objects","323","DogHouse.jpg","37","1","576"
"4","4","retrieval","new_objects","324","Umbrella_Retractable.jpg","36","0","494"
"4","4","retrieval","old_objects","325","Sashimi.jpg","37","0","834"
"4","4","retrieval","old_objects","326","Tap.jpg","37","0","734"
"4","4","retrieval","new_objects","327","Cane_Metal.jpg","37","1","675"
"4","4","retrieval","old_objects","328","AirPump.jpg","37","0","543"
"4","4","retrieval","new_objects","329","HairClipper.jpg","37","1","654"
"4","4","retrieval","old_objects","330","PocketKnife.jpg","36","1","739"
"4","4","retrieval","old_objects","331","Kangaroo_WithJoey.jpg","36","1","513"
"4","4","retrieval","old_objects","332","Balcony.jpg","36","1","519"
"4","4","retrieval","old_objects","333","Bird_Cardinal.jpg","36","1","378"
"4","4","retrieval","new_objects","334","Giraffe.jpg","36","0","477"
"4","4","retrieval","old_objects","335","ElasticBand.jpg","36","1","472"
"4","4","retrieval","old_objects","336","BowlingPin.jpg","37","0","675"
"4","4","retrieval","old_objects","337","Carousel copy.jpg","36","1","574"
"4","4","retrieval","new_objects","338","Cake_Birthday.jpg","37","1","1031"
"4","4","retrieval","new_objects","339","Dragonfly.jpg","37","1","635"
"4","4","retrieval","new_objects","340","ContactLens.jpg","36","0","857"
"4","4","retrieval","old_objects","341","Bag_Diaper.jpg","37","0","498"
"4","4","retrieval","old_objects","342","Ladder.jpg","36","1","737"
"4","4","retrieval","new_objects","343","Deodorant.jpg","37","1","591"
"4","4","retrieval","old_objects","344","PaperTowel_Kitchen.jpg","36","1","686"
"4","4","retrieval","old_objects","345","ComputerMouse.jpg","36","1","459"
"4","4","retrieval","old_objects","346","Bag_Hand.jpg","37","0","530"
"4","4","retrieval","old_objects","347","Toy_GasPump.jpg","37","0","556"
"4","4","retrieval","new_objects","348","Bleachers.jpg","37","1","544"
"4","4","retrieval","old_objects","349","PotatoMasher_Zigzag.jpg","37","0","511"
"4","4","retrieval","old_objects","350","Lighter_Yellow.jpg","37","0","442"
"4","4","retrieval","new_objects","351","Castle_Sand.jpg","37","1","333"
"4","4","retrieval","new_objects","352","NailPolish.jpg","37","1","470"
"4","4","retrieval","old_objects","353","Machine_Arm.jpg","37","0","408"
"4","4","retrieval","new_objects","354","Makeup_Bag.jpg","37","1","468"
"4","4","retrieval","old_objects","355","Seashell_BayScallop.jpg","36","1","521"
"4","4","demographics_block","gender","1","Seashell_BayScallop.jpg","Female","1","15132"
"4","4","demographics_block","age","1","Seashell_BayScallop.jpg","24","1","15132"
"4","4","demographics_block","education","1","Seashell_BayScallop.jpg","16","1","15132"
"4","4","demographics_block","left_right_handed","2","Seashell_BayScallop.jpg","Right","1","4772"
"4","4","demographics_block","raceoption1","2","Seashell_BayScallop.jpg","0","1","4772"
"4","4","demographics_block","raceoption2","2","Seashell_BayScallop.jpg","","1","4772"
"4","4","demographics_block","raceoption3","2","Seashell_BayScallop.jpg","","1","4772"
"4","4","demographics_block","raceoption4","2","Seashell_BayScallop.jpg","","1","4772"
"4","4","demographics_block","raceoption5","2","Seashell_BayScallop.jpg","","1","4772"
"4","4","demographics_block","raceoption6","2","Seashell_BayScallop.jpg","","1","4772"
"4","4","demographics_block","raceoption7","2","Seashell_BayScallop.jpg","","1","4772"
"4","4","demographics_block","raceoption8","2","Seashell_BayScallop.jpg","","1","4772"
"4","4","demographics_block","raceoption9","2","Seashell_BayScallop.jpg","","1","4772"
"4","4","demographics_block","raceother","2","Seashell_BayScallop.jpg","","1","4772"
"4","4","demographics_block","raceother","2","Seashell_BayScallop.jpg","","1","4772"
"4","4","demographics_block","english_language","2","Seashell_BayScallop.jpg","Yes","1","4772"
"4","4","demographics_block","english_languageother","2","Seashell_BayScallop.jpg","","1","4772"
"4","4","demographics_block","eyesight","3","Seashell_BayScallop.jpg","Yes","1","4583"
"4","4","demographics_block","colorblind","3","Seashell_BayScallop.jpg","No","1","4583"
"4","4","worker_id_block","worker_id_textbox","1","Seashell_BayScallop.jpg","A3VBBMDQ61N1L","1","3677"
"3","3","encoding","encoding","1","LightHouse.jpg","36","0","1473"
"3","3","encoding","encoding","2","ComputerMouse.jpg","37","0","1656"
"3","3","encoding","encoding","3","Branches_Campfire.jpg","0","0","2000"
"3","3","encoding","encoding","4","Avocado.jpg","36","0","782"
"3","3","encoding","encoding","5","TireRims.jpg","37","0","940"
"3","3","encoding","encoding","6","Desk_Office.jpg","37","0","1010"
"3","3","encoding","encoding","7","Chair_Airplane.jpg","37","0","765"
"3","3","encoding","encoding","8","Bottle_Bleach.jpg","37","0","677"
"3","3","encoding","encoding","9","NintendoWii.jpg","37","0","673"
"3","3","encoding","encoding","10","TestTube_Single.jpg","37","0","822"
"3","3","encoding","encoding","11","Piano_Keyboard.jpg","37","0","639"
"3","3","encoding","encoding","12","Bag_Camera.jpg","37","0","553"
"3","3","encoding","encoding","13","Bench_Concrete.jpg","37","0","683"
"3","3","encoding","encoding","14","CableConnecter.jpg","37","0","964"
"3","3","encoding","encoding","15","Bag_Hand.jpg","37","0","498"
"3","3","encoding","encoding","16","Gorilla.jpg","36","0","632"
"3","3","encoding","encoding","17","Flower_Hibiscus.jpg","36","0","717"
"3","3","encoding","encoding","18","ServiceBell.jpg","37","0","1361"
"3","3","encoding","encoding","19","Drink_Green.jpg","37","0","1277"
"3","3","encoding","encoding","20","Sign_Parking.jpg","37","0","741"
"3","3","encoding","encoding","21","Cheeseburger.jpg","36","0","730"
"3","3","encoding","encoding","22","CheeseSlicer.jpg","37","0","794"
"3","3","encoding","encoding","23","Elephant.jpg","36","0","713"
"3","3","encoding","encoding","24","Toy_Lion.jpg","37","0","812"
"3","3","encoding","encoding","25","Toy_FigurineSwing.jpg","37","0","588"
"3","3","encoding","encoding","26","VacuumHandheld.jpg","37","0","666"
"3","3","encoding","encoding","27","PocketKnife.jpg","37","0","996"
"3","3","encoding","encoding","28","RollingPin.jpg","37","0","620"
"3","3","encoding","encoding","29","Table_Set.jpg","37","0","571"
"3","3","encoding","encoding","30","WireStripper.jpg","37","0","581"
"3","3","encoding","encoding","31","TortillaChip.jpg","37","0","1303"
"3","3","encoding","encoding","32","Iron_Antique.jpg","37","0","657"
"3","3","encoding","encoding","33","Barometer_Wood.jpg","37","0","532"
"3","3","encoding","encoding","34","Pasta_Shell.jpg","37","0","1884"
"3","3","encoding","encoding","35","TrapAnimal.jpg","37","0","851"
"3","3","encoding","encoding","36","Thumbtack.jpg","37","0","703"
"3","3","encoding","encoding","37","Sieve_TopView.jpg","37","0","741"
"3","3","encoding","encoding","38","Hat_Police.jpg","37","0","597"
"3","3","encoding","encoding","39","MusicSheet.jpg","37","0","615"
"3","3","encoding","encoding","40","GranolaBar.jpg","36","0","1753"
"3","3","encoding","encoding","41","Heelpad.jpg","37","0","802"
"3","3","encoding","encoding","42","Drum_Cymbal.jpg","37","0","904"
"3","3","encoding","encoding","43","ChalkLineTool.jpg","37","0","626"
"3","3","encoding","encoding","44","Pasta_Spaghetti.jpg","36","0","702"
"3","3","encoding","encoding","45","RibbonString.jpg","37","0","582"
"3","3","encoding","encoding","46","SewingPin_Cushion.jpg","37","0","692"
"3","3","encoding","encoding","47","Pottery.jpg","36","0","1414"
"3","3","encoding","encoding","48","Spraybottle.jpg","37","0","473"
"3","3","encoding","encoding","49","CarSuspension.jpg","37","0","530"
"3","3","encoding","encoding","50","Bowl_Chinese.jpg","37","0","736"
"3","3","encoding","encoding","51","Bird_Cardinal.jpg","36","0","709"
"3","3","encoding","encoding","52","Horseshoe.jpg","37","0","752"
"3","3","encoding","encoding","53","Lantern_TeaBox.jpg","37","0","879"
"3","3","encoding","encoding","54","Car_Ferrari.jpg","37","0","637"
"3","3","encoding","encoding","55","ElasticBand.jpg","37","0","980"
"3","3","encoding","encoding","56","Stapler_Gun.jpg","37","0","625"
"3","3","encoding","encoding","57","KitchenTools.jpg","37","0","830"
"3","3","encoding","encoding","58","Candy_Heart.jpg","37","0","1058"
"3","3","encoding","encoding","59","Corn.jpg","36","0","673"
"3","3","encoding","encoding","60","ChocolateBar_Unwrapped.jpg","37","0","1265"
"3","3","encoding","encoding","62","Machine_Arm.jpg","37","0","674"
"3","3","encoding","encoding","63","Statue_VirginMary.jpg","37","0","680"
"3","3","encoding","encoding","64","SpiderWeb.jpg","36","0","760"
"3","3","encoding","encoding","65","SewingPin_Single.jpg","37","0","645"
"3","3","encoding","encoding","66","Boar.jpg","36","0","727"
"3","3","encoding","encoding","67","Mask_VenetianCat.jpg","37","0","739"
"3","3","encoding","encoding","68","Brush_Light.jpg","37","0","685"
"3","3","encoding","encoding","69","HairDryer.jpg","37","0","591"
"3","3","encoding","encoding","70","Toy_Chameleon.jpg","37","0","580"
"3","3","encoding","encoding","71","Candelabra.jpg","37","0","602"
"3","3","encoding","encoding","72","DoorKnob.jpg","37","0","740"
"3","3","encoding","encoding","73","Toy_Turtle.jpg","37","0","549"
"3","3","encoding","encoding","74","SofaAntique.jpg","37","0","799"
"3","3","encoding","encoding","75","PaperTowel_Kitchen.jpg","37","0","1176"
"3","3","encoding","encoding","76","Stethoscope.jpg","37","0","904"
"3","3","encoding","encoding","77","Chipmunk.jpg","36","0","810"
"3","3","encoding","encoding","78","Chair_High.jpg","37","0","756"
"3","3","encoding","encoding","79","Tray_Metal.jpg","37","0","1105"
"3","3","encoding","encoding","80","BowlingPin.jpg","37","0","733"
"3","3","encoding","encoding","81","Flute_Tin.jpg","37","0","765"
"3","3","encoding","encoding","82","SetSquare.jpg","37","0","784"
"3","3","encoding","encoding","83","Sashimi.jpg","36","0","1412"
"3","3","encoding","encoding","84","Archery_Arrows.jpg","37","0","535"
"3","3","encoding","encoding","85","BicycleOdometer.jpg","37","0","707"
"3","3","encoding","encoding","86","Tap.jpg","37","0","491"
"3","3","encoding","encoding","87","Pipe.jpg","37","0","476"
"3","3","encoding","encoding","88","Nuts_Pecan.jpg","36","0","930"
"3","3","encoding","encoding","89","RAMchip.jpg","37","0","667"
"3","3","encoding","encoding","90","ThreeHolePunch.jpg","37","0","636"
"3","3","encoding","encoding","91","AirPump.jpg","37","0","455"
"3","3","encoding","encoding","92","Bag_Satchel.jpg","37","0","600"
"3","3","encoding","encoding","93","Bottle_Liquor.jpg","36","0","931"
"3","3","encoding","encoding","94","Case_Pencil.jpg","37","0","601"
"3","3","encoding","encoding","95","Cannister_Gas.jpg","37","0","521"
"3","3","encoding","encoding","96","Napkin_Single.jpg","37","0","469"
"3","3","encoding","encoding","97","Toy_MerryGoRound.jpg","37","0","688"
"3","3","encoding","encoding","98","WateringCan_PlasticDarkGreen.jpg","37","0","562"
"3","3","encoding","encoding","99","Flamingo_Cartoon.jpg","37","0","1592"
"3","3","encoding","encoding","100","Hazelnut.jpg","36","0","875"
"3","3","encoding","encoding","101","Belt.jpg","37","0","499"
"3","3","encoding","encoding","102","Chest.jpg","37","0","1168"
"3","3","encoding","encoding","103","Shirt_Tshirt.jpg","37","0","580"
"3","3","encoding","encoding","104","Table_PingPong.jpg","37","0","520"
"3","3","encoding","encoding","105","CertificateFramed.jpg","37","0","809"
"3","3","encoding","encoding","106","Bible.jpg","37","0","594"
"3","3","encoding","encoding","107","LaundryHamper.jpg","37","0","867"
"3","3","encoding","encoding","108","Booth_Carnival.jpg","37","0","587"
"3","3","encoding","encoding","109","Stone_Mill.jpg","36","0","1628"
"3","3","encoding","encoding","110","Syringe_Blunt.jpg","37","0","621"
"3","3","encoding","encoding","111","Helmet_Soldier.jpg","37","0","537"
"3","3","encoding","encoding","112","Escalator.jpg","37","0","555"
"3","3","encoding","encoding","113","Buffalo.jpg","36","0","673"
"3","3","encoding","encoding","114","Seashell_BayScallop.jpg","36","0","679"
"3","3","encoding","encoding","115","Sign_SlipperyRoad.jpg","37","0","458"
"3","3","encoding","encoding","116","PatioHeater.jpg","37","0","693"
"3","3","encoding","encoding","117","Bag_Diaper.jpg","37","0","548"
"3","3","encoding","encoding","118","Cat.jpg","36","0","658"
"3","3","encoding","encoding","119","SmokeDetector.jpg","37","0","532"
"3","3","encoding","encoding","120","Puzzle_Tree.jpg","37","0","606"
"3","3","encoding","encoding","121","Windmill_Building.jpg","37","0","613"
"3","3","encoding","encoding","123","Briefcase_Open.jpg","37","0","591"
"3","3","encoding","encoding","124","GasBurner.jpg","37","0","583"
"3","3","encoding","encoding","125","Lacrosse_Stick.jpg","37","0","677"
"3","3","encoding","encoding","126","Wire_ElectricalSingle.jpg","37","0","817"
"3","3","encoding","encoding","127","Balcony.jpg","37","0","892"
"3","3","encoding","encoding","128","Jug_Milk.jpg","37","0","717"
"3","3","encoding","encoding","129","Trumpet.jpg","37","0","893"
"3","3","encoding","encoding","130","IceCrusher.jpg","37","0","924"
"3","3","encoding","encoding","131","Jack.jpg","37","0","996"
"3","3","encoding","encoding","132","Honeydew_Green.jpg","36","0","732"
"3","3","encoding","encoding","133","Boardgame_Chess.jpg","37","0","595"
"3","3","encoding","encoding","134","IroningBoard.jpg","37","0","734"
"3","3","encoding","encoding","135","CoffeeBeans.jpg","36","0","637"
"3","3","encoding","encoding","136","Gun_Glue.jpg","37","0","596"
"3","3","encoding","encoding","137","Owl.jpg","36","0","619"
"3","3","encoding","encoding","138","TinChristmas.jpg","37","0","521"
"3","3","encoding","encoding","139","Spool_Thread.jpg","37","0","574"
"3","3","encoding","encoding","140","PowerDoorPushButton.jpg","37","0","449"
"3","3","encoding","encoding","141","Mask_Ski.jpg","37","0","469"
"3","3","encoding","encoding","142","SatelliteDish.jpg","37","0","494"
"3","3","encoding","encoding","143","Teardrop.jpg","36","0","656"
"3","3","encoding","encoding","144","Spatula_1.jpg","37","0","489"
"3","3","encoding","encoding","145","Honeycomb.jpg","37","0","482"
"3","3","encoding","encoding","146","Ladder.jpg","37","0","507"
"3","3","encoding","encoding","147","PotatoMasher_Zigzag.jpg","37","0","556"
"3","3","encoding","encoding","148","Nutcracker.jpg","37","0","623"
"3","3","encoding","encoding","149","PictureFrame.jpg","37","0","635"
"3","3","encoding","encoding","150","Toy_RobotClassic.jpg","37","0","622"
"3","3","encoding","encoding","151","Toy_GasPump.jpg","37","0","609"
"3","3","encoding","encoding","152","Instrument_Guiro.jpg","37","0","1523"
"3","3","encoding","encoding","153","Bird_Pelican.jpg","36","0","933"
"3","3","encoding","encoding","154","Mask_HockeyGoalie.jpg","37","0","566"
"3","3","encoding","encoding","155","Jacket_Suit.jpg","37","0","672"
"3","3","encoding","encoding","156","Blueberry.jpg","36","0","601"
"3","3","encoding","encoding","157","Pretzel_Sticks.jpg","37","0","1503"
"3","3","encoding","encoding","158","Box_WoodenClosed.jpg","37","0","443"
"3","3","encoding","encoding","159","Trunk.jpg","37","0","682"
"3","3","encoding","encoding","160","StickyTack.jpg","36","0","1231"
"3","3","encoding","encoding","161","Drill.jpg","37","0","528"
"3","3","encoding","encoding","162","Lighter_Yellow.jpg","37","0","549"
"3","3","encoding","encoding","163","AmpMeter.jpg","37","0","554"
"3","3","encoding","encoding","164","DrinkShaker.jpg","37","0","693"
"3","3","encoding","encoding","165","Toy_BlocksMultiShape.jpg","37","0","588"
"3","3","encoding","encoding","166","Whip.jpg","37","0","542"
"3","3","encoding","encoding","167","Dress_Cocktail.jpg","37","0","722"
"3","3","encoding","encoding","168","Dice.jpg","37","0","807"
"3","3","encoding","encoding","169","Booties_Blue.jpg","37","0","1201"
"3","3","encoding","encoding","170","Kangaroo_WithJoey.jpg","36","0","622"
"3","3","encoding","encoding","171","Ship_Cruise.jpg","37","0","822"
"3","3","encoding","encoding","172","Lamp_Table.jpg","37","0","550"
"3","3","encoding","encoding","173","Grill_Gas.jpg","37","0","758"
"3","3","encoding","encoding","174","BunsenBurner.jpg","37","0","560"
"3","3","encoding","encoding","175","Carousel copy.jpg","37","0","488"
"3","3","encoding","encoding","176","MeasuringTape.jpg","37","0","772"
"3","3","encoding","encoding","177","PylonTraffic.jpg","0","0","2000"
"3","3","retrieval","old_objects","1","Trumpet.jpg","37","0","1424"
"3","3","retrieval","old_objects","2","Bag_Satchel.jpg","36","1","1062"
"3","3","retrieval","old_objects","3","KitchenTools.jpg","36","1","808"
"3","3","retrieval","new_objects","4","White_Screen.jpg","0","0","2000"
"3","3","retrieval","old_objects","5","Hazelnut.jpg","36","1","841"
"3","3","retrieval","old_objects","6","Ship_Cruise.jpg","36","1","1135"
"3","3","retrieval","old_objects","7","Toy_GasPump.jpg","36","1","680"
"3","3","retrieval","new_objects","8","Crib_Standard.jpg","37","1","623"
"3","3","retrieval","old_objects","9","ChalkLineTool.jpg","36","1","868"
"3","3","retrieval","old_objects","10","Mask_VenetianCat.jpg","36","1","695"
"3","3","retrieval","old_objects","11","Stone_Mill.jpg","36","1","591"
"3","3","retrieval","new_objects","12","ShoeLace_Flat.jpg","37","1","588"
"3","3","retrieval","old_objects","13","Heelpad.jpg","36","1","900"
"3","3","retrieval","old_objects","14","Briefcase_Open.jpg","36","1","692"
"3","3","retrieval","old_objects","15","WateringCan_PlasticDarkGreen.jpg","37","0","607"
"3","3","retrieval","new_objects","16","Stove_Propane.jpg","37","1","709"
"3","3","retrieval","new_objects","17","Puzzle_Animal.jpg","37","1","650"
"3","3","retrieval","old_objects","18","Avocado.jpg","36","1","725"
"3","3","retrieval","new_objects","19","Weights_Dumbells.jpg","37","1","1213"
"3","3","retrieval","new_objects","20","Toy_JackInTheBox.jpg","37","1","911"
"3","3","retrieval","new_objects","21","Plate_Children.jpg","37","1","689"
"3","3","retrieval","old_objects","22","SpiderWeb.jpg","36","1","593"
"3","3","retrieval","new_objects","23","Magnet_Three.jpg","37","1","677"
"3","3","retrieval","old_objects","24","Honeycomb.jpg","36","1","591"
"3","3","retrieval","old_objects","25","Sieve_TopView.jpg","36","1","803"
"3","3","retrieval","new_objects","26","Ball_Basketball.jpg","37","1","867"
"3","3","retrieval","old_objects","27","Escalator.jpg","36","1","845"
"3","3","retrieval","old_objects","28","Kangaroo_WithJoey.jpg","36","1","651"
"3","3","retrieval","old_objects","29","Thumbtack.jpg","36","1","915"
"3","3","retrieval","old_objects","30","Dice.jpg","36","1","699"
"3","3","retrieval","new_objects","31","PumpBreast.jpg","37","1","742"
"3","3","retrieval","new_objects","32","ShowerCap.jpg","36","0","1190"
"3","3","retrieval","old_objects","33","RollingPin.jpg","36","1","571"
"3","3","retrieval","old_objects","34","PowerDoorPushButton.jpg","36","1","757"
"3","3","retrieval","old_objects","35","Owl.jpg","36","1","562"
"3","3","retrieval","old_objects","36","Nuts_Pecan.jpg","36","1","592"
"3","3","retrieval","old_objects","37","ComputerMouse.jpg","36","1","721"
"3","3","retrieval","new_objects","38","FileDivider.jpg","37","1","668"
"3","3","retrieval","new_objects","39","Stool_Wood.jpg","37","1","590"
"3","3","retrieval","old_objects","40","Dress_Cocktail.jpg","36","1","620"
"3","3","retrieval","old_objects","41","PaperTowel_Kitchen.jpg","36","1","721"
"3","3","retrieval","new_objects","42","DentalFloss.jpg","37","1","733"
"3","3","retrieval","new_objects","43","Tray_Medical.jpg","37","1","702"
"3","3","retrieval","new_objects","44","Paddle_Beach.jpg","37","1","583"
"3","3","retrieval","old_objects","45","Candy_Heart.jpg","36","1","528"
"3","3","retrieval","new_objects","46","Stove_Camping.jpg","36","0","1197"
"3","3","retrieval","new_objects","47","Helmet_Knight.jpg","37","1","812"
"3","3","retrieval","new_objects","48","Toy_ModelMolecule.jpg","37","1","773"
"3","3","retrieval","old_objects","49","Barometer_Wood.jpg","36","1","670"
"3","3","retrieval","old_objects","50","DoorKnob.jpg","36","1","841"
"3","3","retrieval","old_objects","51","IroningBoard.jpg","36","1","677"
"3","3","retrieval","new_objects","52","HairClipper.jpg","37","1","935"
"3","3","retrieval","new_objects","53","GutterAndDrainPipe.jpg","37","1","767"
"3","3","retrieval","old_objects","54","Teardrop.jpg","36","1","600"
"3","3","retrieval","new_objects","55","Sword.jpg","37","1","954"
"3","3","retrieval","old_objects","56","Branches_Campfire.jpg","36","1","616"
"3","3","retrieval","old_objects","57","Windmill_Building.jpg","36","1","657"
"3","3","retrieval","new_objects","58","Clock_Grandfather.jpg","37","1","713"
"3","3","retrieval","old_objects","59","Lamp_Table.jpg","36","1","724"
"3","3","retrieval","new_objects","60","WashingMachine.jpg","37","1","700"
"3","3","retrieval","new_objects","62","Dress_Blue.jpg","37","1","693"
"3","3","retrieval","old_objects","63","Ladder.jpg","36","1","709"
"3","3","retrieval","new_objects","64","Jacket_Jean.jpg","37","1","770"
"3","3","retrieval","old_objects","65","PotatoMasher_Zigzag.jpg","36","1","793"
"3","3","retrieval","old_objects","66","Sashimi.jpg","36","1","718"
"3","3","retrieval","new_objects","67","HorseshoeCrab.jpg","36","0","851"
"3","3","retrieval","new_objects","68","Castle_Sand.jpg","37","1","692"
"3","3","retrieval","new_objects","69","Doll_Rag.jpg","37","1","741"
"3","3","retrieval","old_objects","70","Hat_Police.jpg","36","1","705"
"3","3","retrieval","old_objects","71","PylonTraffic.jpg","37","0","893"
"3","3","retrieval","old_objects","72","Helmet_Soldier.jpg","36","1","555"
"3","3","retrieval","old_objects","73","Lighter_Yellow.jpg","36","1","648"
"3","3","retrieval","old_objects","74","RAMchip.jpg","36","1","639"
"3","3","retrieval","old_objects","75","GasBurner.jpg","36","1","975"
"3","3","retrieval","new_objects","76","NailPolish.jpg","37","1","549"
"3","3","retrieval","new_objects","77","Paddle_PingPong.jpg","36","0","838"
"3","3","retrieval","old_objects","78","LightHouse.jpg","36","1","913"
"3","3","retrieval","old_objects","79","Seashell_BayScallop.jpg","36","1","718"
"3","3","retrieval","new_objects","80","Kebab_Vegetables.jpg","37","1","637"
"3","3","retrieval","new_objects","81","WatermelonSlice.jpg","37","1","625"
"3","3","retrieval","old_objects","82","TestTube_Single.jpg","36","1","625"
"3","3","retrieval","old_objects","83","Drill.jpg","36","1","604"
"3","3","retrieval","old_objects","84","BowlingPin.jpg","36","1","629"
"3","3","retrieval","old_objects","85","RibbonString.jpg","37","0","552"
"3","3","retrieval","new_objects","86","NailFiles.jpg","37","1","675"
"3","3","retrieval","new_objects","87","ComputerKeyboard_F1.jpg","37","1","681"
"3","3","retrieval","old_objects","88","Machine_Arm.jpg","36","1","725"
"3","3","retrieval","new_objects","89","Box_Present.jpg","37","1","820"
"3","3","retrieval","new_objects","90","Toy_Tank.jpg","37","1","789"
"3","3","retrieval","old_objects","91","ChocolateBar_Unwrapped.jpg","36","1","702"
"3","3","retrieval","new_objects","92","Shoe_Highheel.jpg","37","1","774"
"3","3","retrieval","new_objects","93","Tree_ChristmasMini.jpg","37","1","914"
"3","3","retrieval","new_objects","94","Lock_Key.jpg","37","1","923"
"3","3","retrieval","old_objects","95","Wire_ElectricalSingle.jpg","36","1","699"
"3","3","retrieval","old_objects","96","Booth_Carnival.jpg","36","1","649"
"3","3","retrieval","old_objects","97","Trunk.jpg","36","1","764"
"3","3","retrieval","old_objects","98","Elephant.jpg","36","1","656"
"3","3","retrieval","old_objects","99","ServiceBell.jpg","36","1","944"
"3","3","retrieval","new_objects","100","Dreamcatcher.jpg","37","1","676"
"3","3","retrieval","new_objects","101","Makeup_Bag.jpg","37","1","585"
"3","3","retrieval","new_objects","102","MobilityScooter.jpg","36","0","838"
"3","3","retrieval","old_objects","103","Lantern_TeaBox.jpg","36","1","961"
"3","3","retrieval","new_objects","104","Deodorant.jpg","36","0","696"
"3","3","retrieval","new_objects","105","Toy_Wooden rings.jpg","37","1","714"
"3","3","retrieval","old_objects","106","CheeseSlicer.jpg","36","1","727"
