"group","subject","blockcode","trialcode","trialnum","values.stimulus","response","correct","latency"
"2","2","encoding","encoding","1","Lettuce_GreenLeaf.jpg","0","0","2000"
"2","2","encoding","encoding","2","Archery_ArrowsBows.jpg","37","0","1813"
"2","2","encoding","encoding","3","Binoculars.jpg","37","0","1105"
"2","2","encoding","encoding","4","Chair_Barber.jpg","37","0","1168"
"2","2","encoding","encoding","5","Key_Car.jpg","37","0","1471"
"2","2","encoding","encoding","6","Box_Jewellery.jpg","37","0","1209"
"2","2","encoding","encoding","7","Stick_IceHockey.jpg","37","0","1157"
"2","2","encoding","encoding","8","NailClipper.jpg","37","0","1006"
"2","2","encoding","encoding","9","Bird_Duck.jpg","36","0","788"
"2","2","encoding","encoding","10","Mask_Gas.jpg","37","0","1188"
"2","2","encoding","encoding","11","CementFinisher.jpg","37","0","918"
"2","2","encoding","encoding","12","Nuts_Walnut.jpg","36","0","986"
"2","2","encoding","encoding","13","Boot_Rain.jpg","37","0","1043"
"2","2","encoding","encoding","14","ComputerKeyboard_Backspace.jpg","37","0","1467"
"2","2","encoding","encoding","15","Pen_Ballpoint.jpg","37","0","1094"
"2","2","encoding","encoding","16","DrawingCompass.jpg","37","0","801"
"2","2","encoding","encoding","17","Pickaxe.jpg","37","0","635"
"2","2","encoding","encoding","18","Speaker_Single.jpg","37","0","1115"
"2","2","encoding","encoding","19","PortaPotty.jpg","37","0","774"
"2","2","encoding","encoding","20","Glasses_Reading.jpg","37","0","854"
"2","2","encoding","encoding","21","Card_Deck.jpg","37","0","869"
"2","2","encoding","encoding","22","RecordPlayer.jpg","37","0","745"
"2","2","encoding","encoding","23","Bottle_CosmeticSpray.jpg","37","0","878"
"2","2","encoding","encoding","24","WindowBlinds.jpg","37","0","916"
"2","2","encoding","encoding","25","Boat_Sail.jpg","37","0","924"
"2","2","encoding","encoding","26","Toy_FigurineEngineer.jpg","37","0","1103"
"2","2","encoding","encoding","27","Comb.jpg","37","0","902"
"2","2","encoding","encoding","28","PaperTowel_Brown.jpg","37","0","1378"
"2","2","encoding","encoding","29","CanOpener.jpg","37","0","1048"
"2","2","encoding","encoding","30","Stingray.jpg","36","0","1042"
"2","2","encoding","encoding","31","Glass_Wine.jpg","37","0","972"
"2","2","encoding","encoding","32","Photocopier.jpg","37","0","700"
"2","2","encoding","encoding","33","Dart.jpg","37","0","764"
"2","2","encoding","encoding","34","Phone_Flip.jpg","37","0","679"
"2","2","encoding","encoding","35","HairCurler.jpg","37","0","970"
"2","2","encoding","encoding","36","TailLight.jpg","37","0","729"
"2","2","encoding","encoding","37","Ball_8.jpg","37","0","1010"
"2","2","encoding","encoding","38","Shovel_Sandbox.jpg","37","0","773"
"2","2","encoding","encoding","39","Flower_Basket.jpg","36","0","1112"
"2","2","encoding","encoding","40","Shed.jpg","37","0","1247"
"2","2","encoding","encoding","41","Exercise_Stretch.jpg","37","0","1196"
"2","2","encoding","encoding","42","AngleGrinder.jpg","37","0","962"
"2","2","encoding","encoding","43","Toy_DollOffice.jpg","37","0","1287"
"2","2","encoding","encoding","44","Cactus.jpg","36","0","1189"
"2","2","encoding","encoding","45","Briefcase_Leather.jpg","37","0","961"
"2","2","encoding","encoding","46","LightBulb_Blue.jpg","37","0","713"
"2","2","encoding","encoding","47","Lock_Combination.jpg","37","0","644"
"2","2","encoding","encoding","48","Carabiner_Orange.jpg","37","0","616"
"2","2","encoding","encoding","49","ChewingGum.jpg","37","0","625"
"2","2","encoding","encoding","50","Wreath.jpg","36","0","980"
"2","2","encoding","encoding","51","Sign_OneWay.jpg","37","0","928"
"2","2","encoding","encoding","52","Mat_Car.jpg","37","0","1630"
"2","2","encoding","encoding","53","DentalProbe.jpg","37","0","617"
"2","2","encoding","encoding","54","Decoration_ChristmasRed.jpg","37","0","976"
"2","2","encoding","encoding","55","SpaceShuttle.jpg","37","0","953"
"2","2","encoding","encoding","56","CookieCutter_Bell.jpg","37","0","762"
"2","2","encoding","encoding","57","SelfieStick.jpg","37","0","681"
"2","2","encoding","encoding","58","Bucket_WoodenDark.jpg","37","0","813"
"2","2","encoding","encoding","59","EyeChart.jpg","37","0","624"
"2","2","encoding","encoding","60","FloorTile.jpg","37","0","1033"
"2","2","encoding","encoding","62","ProcessorFood_Modern.jpg","37","0","1139"
"2","2","encoding","encoding","63","BusStop.jpg","37","0","687"
"2","2","encoding","encoding","64","Crown.jpg","37","0","602"
"2","2","encoding","encoding","65","ShotGlassTray.jpg","0","0","2000"
"2","2","encoding","encoding","66","Lollipop_Grape.jpg","0","0","2000"
"2","2","encoding","encoding","67","Microscope.jpg","37","0","753"
"2","2","encoding","encoding","68","Blanket.jpg","37","0","1364"
"2","2","encoding","encoding","69","IceScraper.jpg","37","0","756"
"2","2","encoding","encoding","70","Car_Vintage.jpg","37","0","768"
"2","2","encoding","encoding","71","PaperShredder.jpg","37","0","633"
"2","2","encoding","encoding","72","Sand.jpg","36","0","1813"
"2","2","encoding","encoding","73","Yarmulke.jpg","37","0","931"
"2","2","encoding","encoding","74","Purse.jpg","37","0","1493"
"2","2","encoding","encoding","75","Candy_Chocolate.jpg","0","0","2000"
"2","2","encoding","encoding","76","Mailbox_Community.jpg","37","0","1629"
"2","2","encoding","encoding","77","Crayon_Green.jpg","37","0","928"
"2","2","encoding","encoding","78","Bamboo.jpg","36","0","866"
"2","2","encoding","encoding","79","Ball_Disco.jpg","37","0","771"
"2","2","encoding","encoding","80","SlideViewer.jpg","37","0","743"
"2","2","encoding","encoding","81","Scythe.jpg","37","0","589"
"2","2","encoding","encoding","82","Camel_Dromedary.jpg","36","0","828"
"2","2","encoding","encoding","83","Broccoli.jpg","36","0","1099"
"2","2","encoding","encoding","84","Ball_Baseball.jpg","37","0","916"
"2","2","encoding","encoding","85","Piano_Upright.jpg","37","0","752"
"2","2","encoding","encoding","86","Oars.jpg","37","0","836"
"2","2","encoding","encoding","87","Toy_DogBall.jpg","37","0","1068"
"2","2","encoding","encoding","88","RadioactiveContainer.jpg","37","0","756"
"2","2","encoding","encoding","89","Exercise_Machine.jpg","37","0","1957"
"2","2","encoding","encoding","90","Pasta_Penne.jpg","36","0","949"
"2","2","encoding","encoding","91","Toy_TableSet.jpg","37","0","1316"
"2","2","encoding","encoding","92","MonaLisa.jpg","37","0","769"
"2","2","encoding","encoding","93","Box_WoodenOpen.jpg","37","0","726"
"2","2","encoding","encoding","94","Squash_Butternut.jpg","36","0","906"
"2","2","encoding","encoding","95","Toy_RobotTransformer.jpg","37","0","790"
"2","2","encoding","encoding","96","Bells_Christmas.jpg","37","0","681"
"2","2","encoding","encoding","97","TigerWhite.jpg","36","0","1171"
"2","2","encoding","encoding","98","House_CeramicGingerbread.jpg","0","0","2000"
"2","2","encoding","encoding","99","Pasta_Fettuccine.jpg","36","0","919"
"2","2","encoding","encoding","100","Stick_Stirring.jpg","37","0","1072"
"2","2","encoding","encoding","101","SkiPoles.jpg","37","0","1204"
"2","2","encoding","encoding","102","PaintCan.jpg","37","0","731"
"2","2","encoding","encoding","103","Nametag.jpg","37","0","531"
"2","2","encoding","encoding","104","Jar_Capers.jpg","36","0","1762"
"2","2","encoding","encoding","105","LicensePlate.jpg","37","0","710"
"2","2","encoding","encoding","106","Acorn.jpg","36","0","1208"
"2","2","encoding","encoding","107","Nyala.jpg","36","0","847"
"2","2","encoding","encoding","108","CoolingFan_Engine.jpg","37","0","728"
"2","2","encoding","encoding","109","Chopsticks.jpg","37","0","1137"
"2","2","encoding","encoding","110","BicyclePedal.jpg","37","0","615"
"2","2","encoding","encoding","111","Pillar.jpg","37","0","809"
"2","2","encoding","encoding","112","Pricegun.jpg","37","0","720"
"2","2","encoding","encoding","113","Spear.jpg","37","0","698"
"2","2","encoding","encoding","114","Calculator.jpg","37","0","582"
"2","2","encoding","encoding","115","Squid_Orange.jpg","36","0","840"
"2","2","encoding","encoding","116","CodeDoorLock.jpg","37","0","504"
"2","2","encoding","encoding","117","OvenElement.jpg","37","0","572"
"2","2","encoding","encoding","118","Necklace_Black.jpg","37","0","836"
"2","2","encoding","encoding","119","Toy_Firetruck.jpg","37","0","1021"
"2","2","encoding","encoding","120","CameoPortrait.jpg","37","0","1858"
"2","2","encoding","encoding","121","Squid_Pink.jpg","36","0","1090"
"2","2","encoding","encoding","123","Lynx.jpg","36","0","810"
"2","2","encoding","encoding","124","JoustingSpear.jpg","37","0","647"
"2","2","encoding","encoding","125","Box_Cutlery.jpg","37","0","751"
"2","2","encoding","encoding","126","Container_Tupperware.jpg","37","0","827"
"2","2","encoding","encoding","127","Clam.jpg","36","0","901"
"2","2","encoding","encoding","128","Pliers_SlipJoint.jpg","37","0","611"
"2","2","encoding","encoding","129","Flower_Tulip.jpg","36","0","656"
"2","2","encoding","encoding","130","Table_AntiqueWooden.jpg","37","0","583"
"2","2","encoding","encoding","131","PulleyWooden.jpg","37","0","644"
"2","2","encoding","encoding","132","Trophy.jpg","37","0","925"
"2","2","encoding","encoding","133","Cheesegrater_Box.jpg","37","0","569"
"2","2","encoding","encoding","134","Toy_Motorcycle.jpg","37","0","678"
"2","2","encoding","encoding","135","Tractor_Orange.jpg","37","0","642"
"2","2","encoding","encoding","136","Handbag.jpg","37","0","1070"
"2","2","encoding","encoding","137","Bird_Eagle.jpg","36","0","768"
"2","2","encoding","encoding","138","Sandwich_Ham.jpg","36","0","1698"
"2","2","encoding","encoding","139","Can_MilkAntique.jpg","37","0","1223"
"2","2","encoding","encoding","140","Beater_Electric.jpg","37","0","664"
"2","2","encoding","encoding","141","Inukshuk.jpg","36","0","1190"
"2","2","encoding","encoding","142","Bowl_Flour.jpg","0","0","2000"
"2","2","encoding","encoding","143","Bathtub.jpg","37","0","736"
"2","2","encoding","encoding","144","JuicerCitrus.jpg","37","0","678"
"2","2","encoding","encoding","145","Bed_QueenSize.jpg","37","0","795"
"2","2","encoding","encoding","146","Hook_Double.jpg","37","0","585"
"2","2","encoding","encoding","147","Figurine_Ballerina.jpg","37","0","955"
"2","2","encoding","encoding","148","CarJack.jpg","37","0","581"
"2","2","encoding","encoding","149","Jar_Empty.jpg","37","0","787"
"2","2","encoding","encoding","150","Blackboard.jpg","37","0","737"
"2","2","encoding","encoding","151","Fruit_Orange.jpg","36","0","768"
"2","2","encoding","encoding","152","Radish.jpg","36","0","630"
"2","2","encoding","encoding","153","ClothesDryingRack.jpg","37","0","571"
"2","2","encoding","encoding","154","Walker_Blue.jpg","37","0","642"
"2","2","encoding","encoding","155","Statue_Horse.jpg","37","0","794"
"2","2","encoding","encoding","156","StockingChristmas.jpg","37","0","1239"
"2","2","encoding","encoding","157","Tray_Muffin.jpg","37","0","586"
"2","2","encoding","encoding","158","Toy_Top.jpg","37","0","1542"
"2","2","encoding","encoding","159","Crutches.jpg","37","0","615"
"2","2","encoding","encoding","160","CoffeePot.jpg","37","0","672"
"2","2","encoding","encoding","161","Flags_CheckeredRacing.jpg","37","0","855"
"2","2","encoding","encoding","162","Amp.jpg","37","0","525"
"2","2","encoding","encoding","163","Cinnamonroll.jpg","36","0","794"
"2","2","encoding","encoding","164","Clave.jpg","37","0","719"
"2","2","encoding","encoding","165","Computer_CPU.jpg","37","0","780"
"2","2","encoding","encoding","166","GiftBow.jpg","37","0","883"
"2","2","encoding","encoding","167","CoffeeGrinder.jpg","37","0","793"
"2","2","encoding","encoding","168","Toy_RabbitPlushie.jpg","37","0","741"
"2","2","encoding","encoding","169","Bowl_Pasta.jpg","37","0","1707"
"2","2","encoding","encoding","170","Bird_Budgie.jpg","36","0","786"
"2","2","encoding","encoding","171","Tube_Paint.jpg","37","0","1041"
"2","2","encoding","encoding","172","Table_Magazine.jpg","37","0","736"
"2","2","encoding","encoding","173","MortarPestle_WhiteMarble.jpg","37","0","846"
"2","2","encoding","encoding","174","Bag_PaperWithFlour.jpg","37","0","1672"
"2","2","encoding","encoding","175","Flamingo_Real.jpg","36","0","1031"
"2","2","encoding","encoding","176","Microwave.jpg","37","0","1081"
"2","2","encoding","encoding","177","Mirror_Handheld.jpg","37","0","699"
"2","2","retrieval","old_objects","1","Squid_Pink.jpg","36","1","1285"
"2","2","retrieval","old_objects","2","StockingChristmas.jpg","36","1","1782"
"2","2","retrieval","old_objects","3","Mat_Car.jpg","37","0","1288"
"2","2","retrieval","new_objects","4","Coin.jpg","37","1","934"
"2","2","retrieval","new_objects","5","SolderingIron.jpg","37","1","972"
"2","2","retrieval","old_objects","6","CanOpener.jpg","36","1","835"
"2","2","retrieval","old_objects","7","ChewingGum.jpg","37","0","1683"
"2","2","retrieval","old_objects","8","Blanket.jpg","36","1","1194"
"2","2","retrieval","new_objects","9","Truck_VintageBlue.jpg","37","1","1431"
"2","2","retrieval","new_objects","10","Switch_LightBlack.jpg","37","1","1139"
"2","2","retrieval","new_objects","11","Table_Picnic.jpg","37","1","889"
"2","2","retrieval","new_objects","12","Toy_Taxi.jpg","37","1","835"
"2","2","retrieval","old_objects","13","Broccoli.jpg","36","1","841"
"2","2","retrieval","old_objects","14","Hook_Double.jpg","37","0","897"
"2","2","retrieval","old_objects","15","FloorTile.jpg","36","1","1382"
"2","2","retrieval","new_objects","16","SandBagThrowGame.jpg","37","1","1030"
"2","2","retrieval","old_objects","17","MonaLisa.jpg","37","0","1197"
"2","2","retrieval","old_objects","18","Bowl_Flour.jpg","36","1","1054"
"2","2","retrieval","new_objects","19","Candy_GummyBear.jpg","37","1","1204"
"2","2","retrieval","old_objects","20","Microscope.jpg","37","0","1376"
"2","2","retrieval","new_objects","21","Compact_Mirror.jpg","0","0","2000"
"2","2","retrieval","old_objects","22","Toy_RabbitPlushie.jpg","36","1","1364"
"2","2","retrieval","new_objects","23","Notepad_WithPen.jpg","37","1","905"
"2","2","retrieval","new_objects","24","Instrument_Nyckelharpa.jpg","37","1","831"
"2","2","retrieval","new_objects","25","Bench_Black.jpg","37","1","935"
"2","2","retrieval","old_objects","26","Jar_Capers.jpg","36","1","1031"
"2","2","retrieval","old_objects","27","Inukshuk.jpg","36","1","781"
"2","2","retrieval","new_objects","28","Candy_Cotton.jpg","37","1","886"
"2","2","retrieval","old_objects","29","Squash_Butternut.jpg","36","1","812"
"2","2","retrieval","new_objects","30","Pepperoni.jpg","37","1","1089"
"2","2","retrieval","new_objects","31","Spotlight.jpg","37","1","789"
"2","2","retrieval","old_objects","32","Crayon_Green.jpg","36","1","1048"
"2","2","retrieval","new_objects","33","Tombstone.jpg","37","1","1092"
"2","2","retrieval","new_objects","34","Swing_Porch.jpg","37","1","1032"
"2","2","retrieval","old_objects","35","Flamingo_Real.jpg","36","1","981"
"2","2","retrieval","old_objects","36","Toy_Top.jpg","36","1","1054"
"2","2","retrieval","old_objects","37","House_CeramicGingerbread.jpg","36","1","895"
"2","2","retrieval","old_objects","38","Camel_Dromedary.jpg","36","1","768"
"2","2","retrieval","new_objects","39","Fish_Rockbass.jpg","37","1","895"
"2","2","retrieval","old_objects","40","PaperTowel_Brown.jpg","36","1","980"
"2","2","retrieval","old_objects","41","Jar_Empty.jpg","36","1","756"
"2","2","retrieval","new_objects","42","Ring_Plain.jpg","37","1","959"
"2","2","retrieval","new_objects","43","CookieCutter_Tree.jpg","36","0","1262"
"2","2","retrieval","old_objects","44","Stick_IceHockey.jpg","36","1","915"
"2","2","retrieval","old_objects","45","Briefcase_Leather.jpg","36","1","801"
"2","2","retrieval","new_objects","46","Origami_Bird.jpg","37","1","920"
"2","2","retrieval","old_objects","47","Card_Deck.jpg","36","1","953"
"2","2","retrieval","old_objects","48","Clave.jpg","36","1","1285"
"2","2","retrieval","old_objects","49","Car_Vintage.jpg","36","1","859"
"2","2","retrieval","old_objects","50","Speaker_Single.jpg","36","1","1495"
"2","2","retrieval","old_objects","51","Toy_DollOffice.jpg","36","1","943"
"2","2","retrieval","new_objects","52","Almond.jpg","37","1","1120"
"2","2","retrieval","new_objects","53","Clip_Chip.jpg","37","1","1034"
"2","2","retrieval","new_objects","54","Garbage_GreenBin.jpg","37","1","1209"
"2","2","retrieval","new_objects","55","MechanicalSpring.jpg","37","1","767"
"2","2","retrieval","new_objects","56","LifeJacket_Orangejpg.jpg","37","1","815"
"2","2","retrieval","old_objects","57","Archery_ArrowsBows.jpg","36","1","988"
"2","2","retrieval","old_objects","58","Clam.jpg","36","1","744"
"2","2","retrieval","old_objects","59","Toy_TableSet.jpg","36","1","851"
"2","2","retrieval","new_objects","60","Napkin_Holder.jpg","37","1","848"
"2","2","retrieval","old_objects","62","Cinnamonroll.jpg","36","1","803"
"2","2","retrieval","old_objects","63","CarJack.jpg","37","0","734"
"2","2","retrieval","new_objects","64","Catheter.jpg","37","1","1041"
"2","2","retrieval","new_objects","65","Boots_Hiking.jpg","37","1","812"
"2","2","retrieval","old_objects","66","Candy_Chocolate.jpg","37","0","803"
"2","2","retrieval","old_objects","67","JoustingSpear.jpg","37","0","757"
"2","2","retrieval","new_objects","68","Tribunal_Wooden.jpg","36","0","1191"
"2","2","retrieval","old_objects","69","Crown.jpg","36","1","943"
"2","2","retrieval","old_objects","70","Wreath.jpg","36","1","768"
"2","2","retrieval","old_objects","71","SelfieStick.jpg","37","0","782"
"2","2","retrieval","new_objects","72","Cheese_Platter.jpg","37","1","725"
"2","2","retrieval","new_objects","73","Bottle_BubbleBlower.jpg","37","1","935"
"2","2","retrieval","old_objects","74","Cheesegrater_Box.jpg","36","1","885"
"2","2","retrieval","old_objects","75","Toy_RobotTransformer.jpg","36","1","802"
"2","2","retrieval","new_objects","76","Pepper_Green.jpg","37","1","1019"
"2","2","retrieval","new_objects","77","CompassCardinal.jpg","37","1","1283"
"2","2","retrieval","new_objects","78","Peppermill.jpg","37","1","1002"
"2","2","retrieval","new_objects","79","Car_Buggy.jpg","37","1","848"
"2","2","retrieval","old_objects","80","CoolingFan_Engine.jpg","36","1","1054"
"2","2","retrieval","old_objects","81","CodeDoorLock.jpg","36","1","1013"
"2","2","retrieval","old_objects","82","Ball_8.jpg","36","1","752"
"2","2","retrieval","new_objects","83","MousepadAndMouse.jpg","37","1","994"
"2","2","retrieval","new_objects","84","Bowl_Fruits.jpg","37","1","1352"
"2","2","retrieval","new_objects","85","Hawk.jpg","36","0","1071"
"2","2","retrieval","old_objects","86","Necklace_Black.jpg","36","1","1164"
"2","2","retrieval","new_objects","87","Bottle_Beer.jpg","37","1","997"
"2","2","retrieval","new_objects","88","Bandage_Adhesive.jpg","37","1","892"
"2","2","retrieval","old_objects","89","Chair_Barber.jpg","36","1","985"
"2","2","retrieval","old_objects","90","Pasta_Penne.jpg","36","1","863"
"2","2","retrieval","old_objects","91","Decoration_ChristmasRed.jpg","36","1","881"
"2","2","retrieval","new_objects","92","Table_Pool.jpg","37","1","832"
"2","2","retrieval","new_objects","93","Flower_Sun.jpg","36","0","1071"
"2","2","retrieval","new_objects","94","LifeJacket_BlueYellow.jpg","36","0","1110"
"2","2","retrieval","new_objects","95","Shark_GreatWhite.jpg","37","1","1091"
"2","2","retrieval","old_objects","96","Trophy.jpg","36","1","1061"
"2","2","retrieval","old_objects","97","BicyclePedal.jpg","36","1","1161"
"2","2","retrieval","new_objects","98","Freezer.jpg","37","1","1236"
"2","2","retrieval","old_objects","99","Table_AntiqueWooden.jpg","36","1","971"
"2","2","retrieval","old_objects","100","Bottle_CosmeticSpray.jpg","36","1","1033"
"2","2","retrieval","old_objects","101","Dart.jpg","36","1","824"
"2","2","retrieval","old_objects","102","NailClipper.jpg","36","1","828"
"2","2","retrieval","old_objects","103","Mirror_Handheld.jpg","37","0","1036"
"2","2","retrieval","new_objects","104","Garlic_Whole.jpg","37","1","1146"
"2","2","retrieval","new_objects","105","HardDrive.jpg","36","0","1358"
"2","2","retrieval","new_objects","106","Bag_Garbage.jpg","37","1","830"
"2","2","retrieval","old_objects","107","CoffeePot.jpg","36","1","995"
"2","2","retrieval","new_objects","108","Pot_Cooking.jpg","37","1","909"
"2","2","retrieval","old_objects","109","Flags_CheckeredRacing.jpg","36","1","895"
"2","2","retrieval","new_objects","110","Pacifier.jpg","37","1","1405"
"2","2","retrieval","old_objects","111","Comb.jpg","37","0","922"
"2","2","retrieval","new_objects","112","Carousel.jpg","36","0","898"
"2","2","retrieval","new_objects","113","Microphone.jpg","37","1","1005"
"2","2","retrieval","new_objects","114","Costume_Wizard.jpg","37","1","659"
"2","2","retrieval","old_objects","115","Figurine_Ballerina.jpg","36","1","963"
"2","2","retrieval","new_objects","116","Chair_BeanBag.jpg","37","1","865"
"2","2","retrieval","new_objects","117","Printer.jpg","37","1","821"
"2","2","retrieval","old_objects","118","PaintCan.jpg","36","1","916"
"2","2","retrieval","new_objects","119","Paddle_Bread.jpg","36","0","840"
"2","2","retrieval","old_objects","120","Sandwich_Ham.jpg","36","1","902"
"2","2","retrieval","old_objects","121","ComputerKeyboard_Backspace.jpg","36","1","949"
"2","2","retrieval","new_objects","123","Chicken_FriedDrum.jpg","37","1","1161"
"2","2","retrieval","new_objects","124","Toy_WoodenPlainSingle.jpg","37","1","969"
"2","2","retrieval","old_objects","125","Pillar.jpg","37","0","890"
"2","2","retrieval","old_objects","126","Yarmulke.jpg","36","1","971"
"2","2","retrieval","new_objects","127","Toolbox_Red.jpg","37","1","1087"
"2","2","retrieval","new_objects","128","Fruit_Carambola.jpg","37","1","1158"
"2","2","retrieval","old_objects","129","Ball_Baseball.jpg","37","0","766"
"2","2","retrieval","new_objects","130","Spoons_MeasuringAttached.jpg","37","1","1082"
"2","2","retrieval","old_objects","131","Exercise_Stretch.jpg","36","1","956"
"2","2","retrieval","old_objects","132","MortarPestle_WhiteMarble.jpg","36","1","839"
"2","2","retrieval","new_objects","133","Egg_Wooden.jpg","37","1","838"
"2","2","retrieval","old_objects","134","Pen_Ballpoint.jpg","36","1","1292"
"2","2","retrieval","new_objects","135","Coconut.jpg","37","1","970"
"2","2","retrieval","old_objects","136","Carabiner_Orange.jpg","36","1","941"
"2","2","retrieval","new_objects","137","Peeler.jpg","36","0","870"
"2","2","retrieval","old_objects","138","Microwave.jpg","37","0","1398"
"2","2","retrieval","new_objects","139","Toy_DonkeyFur.jpg","37","1","1315"
"2","2","retrieval","old_objects","140","Bag_PaperWithFlour.jpg","36","1","995"
"2","2","retrieval","old_objects","141","GiftBow.jpg","36","1","1046"
"2","2","retrieval","new_objects","142","Fryingpan.jpg","36","0","1214"
"2","2","retrieval","old_objects","143","Acorn.jpg","36","1","841"
"2","2","retrieval","old_objects","144","Piano_Upright.jpg","36","1","1341"
"2","2","retrieval","new_objects","145","Mirror_Carside.jpg","36","0","1079"
"2","2","retrieval","new_objects","146","Weathervane.jpg","37","1","875"
"2","2","retrieval","new_objects","147","Notepad.jpg","37","1","994"
"2","2","retrieval","old_objects","148","Amp.jpg","37","0","974"
"2","2","retrieval","new_objects","149","Sock_Ankle.jpg","37","1","785"
"2","2","retrieval","old_objects","150","CoffeeGrinder.jpg","36","1","847"
"2","2","retrieval","new_objects","151","Crackers_Ritz.jpg","37","1","1094"
"2","2","retrieval","new_objects","152","HairScrunchie.jpg","37","1","1002"
"2","2","retrieval","new_objects","153","Leaf_Green.jpg","36","0","713"
"2","2","retrieval","new_objects","154","Basket_Firewood.jpg","37","1","1588"
"2","2","retrieval","new_objects","155","Spoons_Musical.jpg","37","1","898"
"2","2","retrieval","old_objects","156","TailLight.jpg","37","0","766"
"2","2","retrieval","old_objects","157","RadioactiveContainer.jpg","36","1","1141"
"2","2","retrieval","new_objects","158","Qtip_Multiple.jpg","37","1","944"
"2","2","retrieval","new_objects","159","BoogieBoard.jpg","37","1","808"
"2","2","retrieval","old_objects","160","EyeChart.jpg","36","1","1022"
"2","2","retrieval","old_objects","161","Radish.jpg","36","1","892"
"2","2","retrieval","old_objects","162","Can_MilkAntique.jpg","36","1","947"
"2","2","retrieval","old_objects","163","Lollipop_Grape.jpg","36","1","831"
"2","2","retrieval","old_objects","164","WindowBlinds.jpg","36","1","898"
"2","2","retrieval","new_objects","165","Butterfly.jpg","37","1","827"
"2","2","retrieval","new_objects","166","VacuumHead.jpg","37","1","908"
"2","2","retrieval","old_objects","167","Bathtub.jpg","36","1","975"
"2","2","retrieval","old_objects","168","Pricegun.jpg","36","1","1644"
"2","2","retrieval","new_objects","169","FoodMill.jpg","37","1","1177"
"2","2","retrieval","new_objects","170","Cross.jpg","37","1","934"
"2","2","retrieval","old_objects","171","Bamboo.jpg","36","1","988"
"2","2","retrieval","new_objects","172","Lighter_Black.jpg","37","1","989"
"2","2","retrieval","old_objects","173","Spear.jpg","37","0","1029"
"2","2","retrieval","new_objects","174","Hanger.jpg","37","1","1056"
"2","2","retrieval","old_objects","175","Walker_Blue.jpg","36","1","941"
"2","2","retrieval","old_objects","176","Pickaxe.jpg","36","1","1241"
"2","2","retrieval","old_objects","177","JuicerCitrus.jpg","36","1","923"
"2","2","retrieval","old_objects","178","Box_Cutlery.jpg","36","1","822"
"2","2","retrieval","new_objects","179","Decoration_ChristmasWhite.jpg","37","1","1014"
"2","2","retrieval","new_objects","180","Basket_Plastic.jpg","37","1","697"
"2","2","retrieval","old_objects","181","Container_Tupperware.jpg","36","1","968"
"2","2","retrieval","old_objects","182","Bowl_Pasta.jpg","36","1","1080"
"2","2","retrieval","old_objects","184","SkiPoles.jpg","37","0","1215"
"2","2","retrieval","old_objects","185","Bird_Eagle.jpg","36","1","697"
"2","2","retrieval","new_objects","186","Alfalfa.jpg","37","1","921"
"2","2","retrieval","old_objects","187","AngleGrinder.jpg","37","0","831"
"2","2","retrieval","new_objects","188","Toy_Zebra.jpg","37","1","1115"
"2","2","retrieval","new_objects","189","Kazoo.jpg","37","1","952"
"2","2","retrieval","new_objects","190","Joystick.jpg","36","0","979"
"2","2","retrieval","old_objects","191","Sign_OneWay.jpg","37","0","973"
"2","2","retrieval","old_objects","192","Cactus.jpg","36","1","765"
"2","2","retrieval","old_objects","193","Crutches.jpg","36","1","981"
"2","2","retrieval","new_objects","194","Accordion.jpg","37","1","811"
"2","2","retrieval","new_objects","195","Makeup_Foundation.jpg","37","1","959"
"2","2","retrieval","old_objects","196","PulleyWooden.jpg","37","0","776"
"2","2","retrieval","new_objects","197","GingerbreadMan.jpg","37","1","809"
"2","2","retrieval","new_objects","198","Hangar.jpg","37","1","770"
"2","2","retrieval","new_objects","199","Hubcap.jpg","37","1","726"
"2","2","retrieval","new_objects","200","DogFood.jpg","37","1","910"
"2","2","retrieval","old_objects","201","ProcessorFood_Modern.jpg","36","1","902"
"2","2","retrieval","new_objects","202","Pillow_Plaid.jpg","37","1","698"
"2","2","retrieval","old_objects","203","Glass_Wine.jpg","36","1","1044"
"2","2","retrieval","old_objects","204","ShotGlassTray.jpg","36","1","894"
"2","2","retrieval","old_objects","205","Nametag.jpg","37","0","894"
"2","2","retrieval","new_objects","206","Cup_Latte.jpg","37","1","989"
"2","2","retrieval","new_objects","207","Shrimp.jpg","37","1","1072"
"2","2","retrieval","old_objects","208","LicensePlate.jpg","37","0","946"
"2","2","retrieval","old_objects","209","Box_WoodenOpen.jpg","37","0","720"
"2","2","retrieval","old_objects","210","Mask_Gas.jpg","37","0","1001"
"2","2","retrieval","new_objects","211","Sign_Open.jpg","37","1","860"
"2","2","retrieval","new_objects","212","Mask_Happy.jpg","37","1","1254"
"2","2","retrieval","old_objects","213","Ball_Disco.jpg","37","0","1047"
"2","2","retrieval","old_objects","214","Oars.jpg","37","0","1034"
"2","2","retrieval","old_objects","215","Shovel_Sandbox.jpg","36","1","940"
"2","2","retrieval","old_objects","216","Stingray.jpg","36","1","862"
"2","2","retrieval","old_objects","217","Bird_Duck.jpg","36","1","815"
"2","2","retrieval","old_objects","218","Handbag.jpg","36","1","852"
"2","2","retrieval","old_objects","219","Toy_Motorcycle.jpg","36","1","1037"
"2","2","retrieval","new_objects","220","Leg.jpg","37","1","875"
"2","2","retrieval","old_objects","221","Lettuce_GreenLeaf.jpg","36","1","1085"
"2","2","retrieval","new_objects","222","Brush_Winter.jpg","37","1","1759"
"2","2","retrieval","new_objects","223","Paddle_Ball.jpg","37","1","869"
"2","2","retrieval","new_objects","224","AirTank.jpg","37","1","736"
"2","2","retrieval","new_objects","225","Cougar.jpg","36","0","1153"
"2","2","retrieval","new_objects","226","Truck_Tanker.jpg","37","1","707"
"2","2","retrieval","new_objects","227","Honeydew_yellow.jpg","37","1","1070"
"2","2","retrieval","new_objects","228","DoorBell.jpg","37","1","807"
"2","2","retrieval","new_objects","229","DayPlanner.jpg","36","0","1429"
"2","2","retrieval","new_objects","230","Shoes_Snow.jpg","37","1","962"
"2","2","retrieval","old_objects","231","SpaceShuttle.jpg","37","0","1075"
"2","2","retrieval","new_objects","232","CoffeeLid.jpg","37","1","818"
"2","2","retrieval","new_objects","233","Stick_Bridge.jpg","37","1","1321"
"2","2","retrieval","new_objects","234","Kneepad.jpg","36","0","1121"
"2","2","retrieval","old_objects","235","Shed.jpg","37","0","1089"
"2","2","retrieval","old_objects","236","Blackboard.jpg","37","0","759"
"2","2","retrieval","new_objects","237","Stone_AncientWriting.jpg","37","1","1360"
"2","2","retrieval","old_objects","238","Boat_Sail.jpg","36","1","848"
"2","2","retrieval","new_objects","239","Strainer_Tea.jpg","37","1","1066"
"2","2","retrieval","new_objects","240","Clamp_Screw.jpg","37","1","1146"
"2","2","retrieval","new_objects","241","Cannoli.jpg","37","1","880"
"2","2","retrieval","old_objects","242","Boot_Rain.jpg","36","1","920"
"2","2","retrieval","new_objects","243","Toy_BearBluePlushie.jpg","36","0","1475"
"2","2","retrieval","old_objects","245","Scythe.jpg","37","0","1104"
"2","2","retrieval","old_objects","246","Phone_Flip.jpg","37","0","806"
"2","2","retrieval","old_objects","247","Calculator.jpg","37","0","727"
"2","2","retrieval","new_objects","248","NeedlesAcupuncture.jpg","36","0","995"
"2","2","retrieval","old_objects","249","HairCurler.jpg","36","1","1223"
"2","2","retrieval","new_objects","250","ShoeLace_Round.jpg","37","1","924"
"2","2","retrieval","old_objects","251","Fruit_Orange.jpg","36","1","710"
"2","2","retrieval","new_objects","252","Castle_Model.jpg","37","1","913"
"2","2","retrieval","new_objects","253","Shampoo.jpg","37","1","727"
"2","2","retrieval","new_objects","254","Diode.jpg","37","1","904"
"2","2","retrieval","new_objects","255","Thermometer_Room.jpg","37","1","687"
"2","2","retrieval","new_objects","256","Bowl_Wooden.jpg","37","1","931"
"2","2","retrieval","new_objects","257","Camel_Bactrian.jpg","36","0","705"
"2","2","retrieval","old_objects","258","Toy_DogBall.jpg","36","1","785"
"2","2","retrieval","new_objects","259","Dog_ChowChow.jpg","37","1","927"
"2","2","retrieval","new_objects","260","Hat_Colonial.jpg","37","1","922"
"2","2","retrieval","old_objects","261","Key_Car.jpg","36","1","985"
"2","2","retrieval","new_objects","262","WashRack.jpg","37","1","962"
"2","2","retrieval","new_objects","263","Rock_Mimetite.jpg","37","1","913"
"2","2","retrieval","old_objects","264","TigerWhite.jpg","36","1","952"
"2","2","retrieval","old_objects","265","Flower_Basket.jpg","36","1","841"
"2","2","retrieval","new_objects","266","Clippers_Glass.jpg","37","1","857"
"2","2","retrieval","old_objects","267","LightBulb_Blue.jpg","37","0","816"
"2","2","retrieval","new_objects","268","LightBulb_Christmas.jpg","37","1","678"
"2","2","retrieval","new_objects","269","Pipette.jpg","37","1","1074"
"2","2","retrieval","old_objects","270","Box_Jewellery.jpg","36","1","1108"
"2","2","retrieval","old_objects","271","Sand.jpg","36","1","853"
"2","2","retrieval","new_objects","272","Bottle_Wine.jpg","37","1","977"
"2","2","retrieval","old_objects","273","Bed_QueenSize.jpg","37","0","753"
"2","2","retrieval","new_objects","274","Bulldozer.jpg","37","1","1185"
"2","2","retrieval","old_objects","275","Toy_FigurineEngineer.jpg","36","1","901"
"2","2","retrieval","new_objects","276","Toy_PandaPlushie.jpg","37","1","886"
"2","2","retrieval","old_objects","277","Lynx.jpg","37","0","1129"
"2","2","retrieval","new_objects","278","Bucket_Champagne.jpg","37","1","1121"
"2","2","retrieval","new_objects","279","Aquarium.jpg","37","1","1148"
"2","2","retrieval","old_objects","280","DrawingCompass.jpg","37","0","881"
"2","2","retrieval","new_objects","281","Donut.jpg","37","1","1148"
"2","2","retrieval","old_objects","282","Statue_Horse.jpg","0","0","2000"
"2","2","retrieval","new_objects","283","PowderProtein.jpg","37","1","927"
"2","2","retrieval","old_objects","284","Beater_Electric.jpg","36","1","905"
"2","2","retrieval","new_objects","285","Flower_Rose.jpg","37","1","849"
"2","2","retrieval","old_objects","286","IceScraper.jpg","37","0","961"
"2","2","retrieval","old_objects","287","BusStop.jpg","36","1","915"
"2","2","retrieval","new_objects","288","SpaceRover.jpg","37","1","744"
"2","2","retrieval","new_objects","289","Qtip_Single.jpg","37","1","1065"
"2","2","retrieval","old_objects","290","Flower_Tulip.jpg","36","1","690"
"2","2","retrieval","new_objects","291","Keys_Bunch.jpg","37","1","854"
"2","2","retrieval","old_objects","292","Toy_Firetruck.jpg","37","0","809"
"2","2","retrieval","old_objects","293","Chopsticks.jpg","36","1","1147"
"2","2","retrieval","old_objects","294","ClothesDryingRack.jpg","37","0","797"
"2","2","retrieval","old_objects","295","SlideViewer.jpg","37","0","745"
"2","2","retrieval","new_objects","296","IceCream_Popsicle.jpg","37","1","845"
"2","2","retrieval","new_objects","297","DarthVader.jpg","36","0","1024"
"2","2","retrieval","new_objects","298","Popcorn.jpg","37","1","833"
"2","2","retrieval","old_objects","299","CookieCutter_Bell.jpg","36","1","1087"
"2","2","retrieval","old_objects","300","Nyala.jpg","37","0","1008"
"2","2","retrieval","old_objects","301","Mailbox_Community.jpg","37","0","858"
"2","2","retrieval","new_objects","302","FileFolder.jpg","37","1","826"
"2","2","retrieval","old_objects","303","Photocopier.jpg","37","0","910"
"2","2","retrieval","old_objects","304","Tube_Paint.jpg","36","1","1090"
"2","2","retrieval","old_objects","306","PaperShredder.jpg","36","1","1066"
"2","2","retrieval","new_objects","307","Mask_Buddhist.jpg","37","1","898"
"2","2","retrieval","new_objects","308","Thermostat.jpg","37","1","901"
"2","2","retrieval","old_objects","309","Lock_Combination.jpg","36","1","905"
"2","2","retrieval","new_objects","310","SaladCaesar.jpg","37","1","1147"
"2","2","retrieval","new_objects","311","Lamp_TableWhite.jpg","37","1","903"
"2","2","retrieval","new_objects","312","Clock_Radio.jpg","37","1","901"
"2","2","retrieval","new_objects","313","Jar_Canopic.jpg","37","1","688"
"2","2","retrieval","old_objects","314","Tray_Muffin.jpg","36","1","876"
"2","2","retrieval","old_objects","315","Tractor_Orange.jpg","36","1","1728"
"2","2","retrieval","new_objects","316","Bird_Parrot.jpg","36","0","1045"
"2","2","retrieval","new_objects","317","Teabag.jpg","37","1","792"
"2","2","retrieval","new_objects","318","Hottub.jpg","37","1","814"
"2","2","retrieval","old_objects","319","PortaPotty.jpg","36","1","1103"
"2","2","retrieval","old_objects","320","Computer_CPU.jpg","36","1","1005"
"2","2","retrieval","old_objects","321","Stick_Stirring.jpg","36","1","1014"
"2","2","retrieval","new_objects","322","Necklace_Pearl.jpg","37","1","849"
"2","2","retrieval","old_objects","323","Binoculars.jpg","36","1","1019"
"2","2","retrieval","new_objects","324","Cake_Cheese.jpg","37","1","841"
"2","2","retrieval","new_objects","325","Light_Siren.jpg","37","1","1002"
"2","2","retrieval","old_objects","326","Purse.jpg","37","0","1111"
"2","2","retrieval","old_objects","327","RecordPlayer.jpg","36","1","899"
"2","2","retrieval","old_objects","328","CementFinisher.jpg","36","1","844"
"2","2","retrieval","old_objects","329","Bucket_WoodenDark.jpg","36","1","855"
"2","2","retrieval","new_objects","330","Easel.jpg","37","1","810"
"2","2","retrieval","old_objects","331","Table_Magazine.jpg","37","0","1056"
"2","2","retrieval","new_objects","332","Bird_Peacock.jpg","37","1","973"
"2","2","retrieval","new_objects","333","Case_Leather.jpg","37","1","818"
"2","2","retrieval","new_objects","334","BikiniTop.jpg","37","1","713"
"2","2","retrieval","old_objects","335","Pliers_SlipJoint.jpg","37","0","764"
"2","2","retrieval","old_objects","336","Squid_Orange.jpg","36","1","880"
"2","2","retrieval","old_objects","337","CameoPortrait.jpg","36","1","1027"
"2","2","retrieval","new_objects","338","Tag_Price.jpg","37","1","774"
"2","2","retrieval","new_objects","339","Case_CD.jpg","37","1","901"
"2","2","retrieval","new_objects","340","WorldMap.jpg","37","1","886"
"2","2","retrieval","old_objects","341","OvenElement.jpg","36","1","1294"
"2","2","retrieval","old_objects","342","Exercise_Machine.jpg","36","1","1201"
"2","2","retrieval","new_objects","343","Pear_Yellow.jpg","37","1","1199"
"2","2","retrieval","new_objects","344","SafetyPin.jpg","37","1","1128"
"2","2","retrieval","old_objects","345","Bird_Budgie.jpg","37","0","1111"
"2","2","retrieval","old_objects","346","DentalProbe.jpg","37","0","869"
"2","2","retrieval","old_objects","347","Bells_Christmas.jpg","36","1","978"
"2","2","retrieval","new_objects","348","SiloGrain.jpg","37","1","875"
"2","2","retrieval","old_objects","349","Glasses_Reading.jpg","37","0","992"
"2","2","retrieval","new_objects","350","Truck_Dump.jpg","37","1","718"
"2","2","retrieval","new_objects","351","Tortilla.jpg","37","1","977"
"2","2","retrieval","old_objects","352","Pasta_Fettuccine.jpg","36","1","889"
"2","2","retrieval","new_objects","353","Camera_Security.jpg","37","1","810"
"2","2","retrieval","old_objects","354","Nuts_Walnut.jpg","36","1","680"
"2","2","retrieval","new_objects","355","Telescope.jpg","37","1","733"
"2","2","demographics_block","gender","1","Telescope.jpg","female","1","22712"
"2","2","demographics_block","age","1","Telescope.jpg","73","1","22712"
"2","2","demographics_block","education","1","Telescope.jpg","16","1","22712"
"2","2","demographics_block","left_right_handed","2","Telescope.jpg","Right","1","10976"
"2","2","demographics_block","raceoption1","2","Telescope.jpg","0","1","10976"
"2","2","demographics_block","raceoption2","2","Telescope.jpg","","1","10976"
"2","2","demographics_block","raceoption3","2","Telescope.jpg","","1","10976"
"2","2","demographics_block","raceoption4","2","Telescope.jpg","","1","10976"
"2","2","demographics_block","raceoption5","2","Telescope.jpg","","1","10976"
"2","2","demographics_block","raceoption6","2","Telescope.jpg","","1","10976"
"2","2","demographics_block","raceoption7","2","Telescope.jpg","","1","10976"
"2","2","demographics_block","raceoption8","2","Telescope.jpg","","1","10976"
"2","2","demographics_block","raceoption9","2","Telescope.jpg","","1","10976"
"2","2","demographics_block","raceother","2","Telescope.jpg","","1","10976"
"2","2","demographics_block","raceother","2","Telescope.jpg","","1","10976"
"2","2","demographics_block","english_language","2","Telescope.jpg","Yes","1","10976"
"2","2","demographics_block","english_languageother","2","Telescope.jpg","","1","10976"
"2","2","demographics_block","eyesight","3","Telescope.jpg","Yes","1","13917"
"2","2","demographics_block","colorblind","3","Telescope.jpg","No","1","13917"
"2","2","worker_id_block","worker_id_textbox","1","Telescope.jpg","A2O40SAIASDTPT","1","15900"
"3","3","encoding","encoding","1","Beater_Electric.jpg","37","0","725"
"3","3","encoding","encoding","2","Lock_Combination.jpg","37","0","636"
"3","3","encoding","encoding","3","Lynx.jpg","36","0","772"
"3","3","encoding","encoding","4","Ball_8.jpg","37","0","587"
"3","3","encoding","encoding","5","Comb.jpg","37","0","522"
"3","3","encoding","encoding","6","Speaker_Single.jpg","37","0","529"
"3","3","encoding","encoding","7","Toy_DogBall.jpg","37","0","472"
"3","3","encoding","encoding","8","Statue_Horse.jpg","37","0","671"
"3","3","encoding","encoding","9","Wreath.jpg","37","0","486"
"3","3","encoding","encoding","10","Yarmulke.jpg","37","0","773"
"3","3","encoding","encoding","11","TailLight.jpg","37","0","589"
"3","3","encoding","encoding","12","SelfieStick.jpg","37","0","628"
"3","3","encoding","encoding","13","ProcessorFood_Modern.jpg","37","0","443"
"3","3","encoding","encoding","14","Pasta_Fettuccine.jpg","37","0","955"
"3","3","encoding","encoding","15","Photocopier.jpg","37","0","514"
"3","3","encoding","encoding","16","SkiPoles.jpg","37","0","1089"
"3","3","encoding","encoding","17","WindowBlinds.jpg","37","0","840"
"3","3","encoding","encoding","18","Mirror_Handheld.jpg","37","0","591"
"3","3","encoding","encoding","19","Bag_PaperWithFlour.jpg","37","0","790"
"3","3","encoding","encoding","20","RecordPlayer.jpg","37","0","574"
"3","3","encoding","encoding","21","Container_Tupperware.jpg","37","0","476"
"3","3","encoding","encoding","22","BicyclePedal.jpg","37","0","739"
"3","3","encoding","encoding","23","Phone_Flip.jpg","37","0","587"
"3","3","encoding","encoding","24","ClothesDryingRack.jpg","37","0","594"
"3","3","encoding","encoding","25","Cheesegrater_Box.jpg","37","0","529"
"3","3","encoding","encoding","26","Stick_Stirring.jpg","37","0","728"
"3","3","encoding","encoding","27","SlideViewer.jpg","37","0","575"
"3","3","encoding","encoding","28","Stingray.jpg","37","0","639"
"3","3","encoding","encoding","29","Clave.jpg","37","0","646"
"3","3","encoding","encoding","30","Box_WoodenOpen.jpg","37","0","749"
"3","3","encoding","encoding","31","Shovel_Sandbox.jpg","37","0","564"
"3","3","encoding","encoding","32","PulleyWooden.jpg","37","0","819"
"3","3","encoding","encoding","33","Binoculars.jpg","37","0","506"
"3","3","encoding","encoding","34","BusStop.jpg","37","0","546"
"3","3","encoding","encoding","35","Scythe.jpg","37","0","553"
"3","3","encoding","encoding","36","Squid_Orange.jpg","37","0","552"
"3","3","encoding","encoding","37","Boot_Rain.jpg","37","0","719"
"3","3","encoding","encoding","38","Bowl_Flour.jpg","37","0","566"
"3","3","encoding","encoding","39","Bird_Eagle.jpg","36","0","757"
"3","3","encoding","encoding","40","JoustingSpear.jpg","37","0","636"
"3","3","encoding","encoding","41","Card_Deck.jpg","37","0","644"
"3","3","encoding","encoding","42","Toy_RobotTransformer.jpg","37","0","491"
"3","3","encoding","encoding","43","Necklace_Black.jpg","37","0","562"
"3","3","encoding","encoding","44","Flower_Tulip.jpg","36","0","915"
"3","3","encoding","encoding","45","Shed.jpg","37","0","536"
"3","3","encoding","encoding","46","PaintCan.jpg","37","0","513"
"3","3","encoding","encoding","47","Box_Jewellery.jpg","37","0","743"
"3","3","encoding","encoding","48","CarJack.jpg","37","0","744"
"3","3","encoding","encoding","49","RadioactiveContainer.jpg","37","0","1326"
"3","3","encoding","encoding","50","Candy_Chocolate.jpg","37","0","980"
"3","3","encoding","encoding","51","Fruit_Orange.jpg","36","0","539"
"3","3","encoding","encoding","52","TigerWhite.jpg","36","0","1051"
"3","3","encoding","encoding","53","Pen_Ballpoint.jpg","37","0","611"
"3","3","encoding","encoding","54","Carabiner_Orange.jpg","37","0","649"
"3","3","encoding","encoding","55","HairCurler.jpg","37","0","656"
"3","3","encoding","encoding","56","Jar_Capers.jpg","37","0","1007"
"3","3","encoding","encoding","57","Bowl_Pasta.jpg","37","0","1014"
"3","3","encoding","encoding","58","LicensePlate.jpg","37","0","637"
"3","3","encoding","encoding","59","Briefcase_Leather.jpg","37","0","740"
"3","3","encoding","encoding","60","Boat_Sail.jpg","37","0","588"
"3","3","encoding","encoding","62","Pasta_Penne.jpg","37","0","1353"
"3","3","encoding","encoding","63","Pillar.jpg","37","0","848"
"3","3","encoding","encoding","64","Tube_Paint.jpg","37","0","666"
"3","3","encoding","encoding","65","CoffeeGrinder.jpg","37","0","575"
"3","3","encoding","encoding","66","Bucket_WoodenDark.jpg","37","0","389"
"3","3","encoding","encoding","67","Archery_ArrowsBows.jpg","37","0","492"
"3","3","encoding","encoding","68","Cactus.jpg","37","0","460"
"3","3","encoding","encoding","69","Spear.jpg","37","0","435"
"3","3","encoding","encoding","70","Crutches.jpg","37","0","474"
"3","3","encoding","encoding","71","GiftBow.jpg","37","0","482"
"3","3","encoding","encoding","72","PaperTowel_Brown.jpg","37","0","640"
"3","3","encoding","encoding","73","Computer_CPU.jpg","37","0","648"
"3","3","encoding","encoding","74","Calculator.jpg","37","0","623"
"3","3","encoding","encoding","75","Sign_OneWay.jpg","37","0","758"
"3","3","encoding","encoding","76","Car_Vintage.jpg","37","0","605"
"3","3","encoding","encoding","77","Tray_Muffin.jpg","37","0","636"
"3","3","encoding","encoding","78","Bottle_CosmeticSpray.jpg","37","0","643"
"3","3","encoding","encoding","79","Acorn.jpg","36","0","906"
"3","3","encoding","encoding","80","MortarPestle_WhiteMarble.jpg","37","0","594"
"3","3","encoding","encoding","81","AngleGrinder.jpg","37","0","537"
"3","3","encoding","encoding","82","Jar_Empty.jpg","37","0","512"
"3","3","encoding","encoding","83","Toy_Firetruck.jpg","37","0","447"
"3","3","encoding","encoding","84","DentalProbe.jpg","37","0","550"
"3","3","encoding","encoding","85","Can_MilkAntique.jpg","37","0","493"
"3","3","encoding","encoding","86","JuicerCitrus.jpg","37","0","501"
"3","3","encoding","encoding","87","Walker_Blue.jpg","37","0","605"
"3","3","encoding","encoding","88","CameoPortrait.jpg","37","0","635"
"3","3","encoding","encoding","89","CementFinisher.jpg","37","0","674"
"3","3","encoding","encoding","90","Toy_DollOffice.jpg","37","0","649"
"3","3","encoding","encoding","91","EyeChart.jpg","37","0","561"
"3","3","encoding","encoding","92","Camel_Dromedary.jpg","37","0","504"
"3","3","encoding","encoding","93","Ball_Disco.jpg","37","0","575"
"3","3","encoding","encoding","94","Microwave.jpg","37","0","358"
"3","3","encoding","encoding","95","CookieCutter_Bell.jpg","37","0","581"
"3","3","encoding","encoding","96","Blackboard.jpg","37","0","941"
"3","3","encoding","encoding","97","OvenElement.jpg","37","0","1068"
"3","3","encoding","encoding","98","Squash_Butternut.jpg","36","0","571"
"3","3","encoding","encoding","99","Toy_TableSet.jpg","37","0","442"
"3","3","encoding","encoding","100","DrawingCompass.jpg","37","0","673"
"3","3","encoding","encoding","101","House_CeramicGingerbread.jpg","37","0","520"
"3","3","encoding","encoding","102","Pickaxe.jpg","37","0","495"
"3","3","encoding","encoding","103","Dart.jpg","37","0","534"
"3","3","encoding","encoding","104","Blanket.jpg","37","0","758"
"3","3","encoding","encoding","105","NailClipper.jpg","37","0","573"
"3","3","encoding","encoding","106","Exercise_Machine.jpg","37","0","452"
"3","3","encoding","encoding","107","Figurine_Ballerina.jpg","37","0","995"
"3","3","encoding","encoding","108","Squid_Pink.jpg","36","0","714"
"3","3","encoding","encoding","109","Toy_FigurineEngineer.jpg","37","0","849"
"3","3","encoding","encoding","110","ShotGlassTray.jpg","37","0","761"
"3","3","encoding","encoding","111","Sandwich_Ham.jpg","37","0","992"
"3","3","encoding","encoding","112","Mailbox_Community.jpg","37","0","1119"
"3","3","encoding","encoding","113","Box_Cutlery.jpg","37","0","550"
"3","3","encoding","encoding","114","SpaceShuttle.jpg","37","0","813"
"3","3","encoding","encoding","115","Radish.jpg","36","0","852"
"3","3","encoding","encoding","116","Bathtub.jpg","37","0","1084"
"3","3","encoding","encoding","117","Piano_Upright.jpg","37","0","675"
"3","3","encoding","encoding","118","Nuts_Walnut.jpg","36","0","810"
"3","3","encoding","encoding","119","Chair_Barber.jpg","37","0","649"
"3","3","encoding","encoding","120","Chopsticks.jpg","37","0","688"
"3","3","encoding","encoding","121","Trophy.jpg","37","0","599"
"3","3","encoding","encoding","123","Amp.jpg","37","0","1384"
"3","3","encoding","encoding","124","Sand.jpg","36","0","1359"
"3","3","encoding","encoding","125","Pliers_SlipJoint.jpg","37","0","1398"
"3","3","encoding","encoding","126","Nyala.jpg","36","0","669"
"3","3","encoding","encoding","127","Bells_Christmas.jpg","37","0","677"
"3","3","encoding","encoding","128","Glass_Wine.jpg","37","0","620"
"3","3","encoding","encoding","129","Decoration_ChristmasRed.jpg","37","0","659"
"3","3","encoding","encoding","130","Bed_QueenSize.jpg","37","0","634"
"3","3","encoding","encoding","131","Mat_Car.jpg","37","0","697"
"3","3","encoding","encoding","132","Key_Car.jpg","37","0","768"
"3","3","encoding","encoding","133","Bamboo.jpg","36","0","680"
"3","3","encoding","encoding","134","Lettuce_GreenLeaf.jpg","36","0","590"
"3","3","encoding","encoding","135","Hook_Double.jpg","37","0","566"
"3","3","encoding","encoding","136","CodeDoorLock.jpg","37","0","629"
"3","3","encoding","encoding","137","PortaPotty.jpg","37","0","476"
"3","3","encoding","encoding","138","MonaLisa.jpg","37","0","515"
"3","3","encoding","encoding","139","PaperShredder.jpg","37","0","618"
"3","3","encoding","encoding","140","CanOpener.jpg","37","0","497"
"3","3","encoding","encoding","141","Purse.jpg","37","0","496"
"3","3","encoding","encoding","142","Table_Magazine.jpg","37","0","536"
"3","3","encoding","encoding","143","Toy_RabbitPlushie.jpg","37","0","512"
"3","3","encoding","encoding","144","Cinnamonroll.jpg","37","0","1126"
"3","3","encoding","encoding","145","Toy_Motorcycle.jpg","37","0","781"
"3","3","encoding","encoding","146","FloorTile.jpg","37","0","716"
"3","3","encoding","encoding","147","Crown.jpg","37","0","691"
"3","3","encoding","encoding","148","Bird_Budgie.jpg","36","0","1179"
"3","3","encoding","encoding","149","Toy_Top.jpg","37","0","1186"
"3","3","encoding","encoding","150","Flags_CheckeredRacing.jpg","37","0","713"
"3","3","encoding","encoding","151","Inukshuk.jpg","37","0","681"
"3","3","encoding","encoding","152","CoolingFan_Engine.jpg","37","0","815"
"3","3","encoding","encoding","153","Flower_Basket.jpg","37","0","1174"
"3","3","encoding","encoding","154","Stick_IceHockey.jpg","37","0","1085"
"3","3","encoding","encoding","155","Ball_Baseball.jpg","37","0","837"
"3","3","encoding","encoding","156","Oars.jpg","37","0","836"
"3","3","encoding","encoding","157","Handbag.jpg","37","0","1067"
"3","3","encoding","encoding","158","Nametag.jpg","37","0","1298"
"3","3","encoding","encoding","159","Bird_Duck.jpg","37","0","1177"
"3","3","encoding","encoding","160","IceScraper.jpg","37","0","1177"
"3","3","encoding","encoding","161","Crayon_Green.jpg","37","0","680"
"3","3","encoding","encoding","162","Pricegun.jpg","37","0","647"
"3","3","encoding","encoding","163","CoffeePot.jpg","37","0","814"
"3","3","encoding","encoding","164","Glasses_Reading.jpg","37","0","949"
"3","3","encoding","encoding","165","LightBulb_Blue.jpg","37","0","1084"
"3","3","encoding","encoding","166","Table_AntiqueWooden.jpg","37","0","955"
"3","3","encoding","encoding","167","Microscope.jpg","37","0","587"
"3","3","encoding","encoding","168","ComputerKeyboard_Backspace.jpg","37","0","682"
"3","3","encoding","encoding","169","Exercise_Stretch.jpg","37","0","593"
"3","3","encoding","encoding","170","Flamingo_Real.jpg","37","0","632"
"3","3","encoding","encoding","171","Clam.jpg","36","0","705"
"3","3","encoding","encoding","172","Broccoli.jpg","36","0","607"
"3","3","encoding","encoding","173","Tractor_Orange.jpg","37","0","614"
"3","3","encoding","encoding","174","Lollipop_Grape.jpg","37","0","813"
"3","3","encoding","encoding","175","Mask_Gas.jpg","37","0","692"
"3","3","encoding","encoding","176","ChewingGum.jpg","37","0","827"
"3","3","encoding","encoding","177","StockingChristmas.jpg","37","0","826"
"3","3","retrieval","old_objects","1","TailLight.jpg","36","1","932"
"3","3","retrieval","new_objects","2","FileFolder.jpg","37","1","742"
"3","3","retrieval","old_objects","3","HairCurler.jpg","36","1","1143"
"3","3","retrieval","new_objects","4","HairScrunchie.jpg","37","1","793"
"3","3","retrieval","old_objects","5","Blackboard.jpg","36","1","1008"
"3","3","retrieval","new_objects","6","PowderProtein.jpg","37","1","1263"
"3","3","retrieval","new_objects","7","Origami_Bird.jpg","37","1","874"
"3","3","retrieval","old_objects","8","Flags_CheckeredRacing.jpg","37","0","982"
"3","3","retrieval","old_objects","9","Spear.jpg","36","1","837"
"3","3","retrieval","old_objects","10","BusStop.jpg","36","1","1074"
"3","3","retrieval","new_objects","11","DarthVader.jpg","37","1","846"
"3","3","retrieval","new_objects","12","NeedlesAcupuncture.jpg","37","1","907"
"3","3","retrieval","old_objects","13","Flamingo_Real.jpg","36","1","1005"
"3","3","retrieval","new_objects","14","AirTank.jpg","36","0","948"
"3","3","retrieval","new_objects","15","CookieCutter_Tree.jpg","36","0","964"
"3","3","retrieval","old_objects","16","Nametag.jpg","36","1","908"
"3","3","retrieval","old_objects","17","Toy_DogBall.jpg","36","1","823"
"3","3","retrieval","old_objects","18","Carabiner_Orange.jpg","36","1","749"
"3","3","retrieval","old_objects","19","Hook_Double.jpg","36","1","814"
"3","3","retrieval","new_objects","20","Clock_Radio.jpg","37","1","835"
"3","3","retrieval","new_objects","21","Telescope.jpg","37","1","880"
"3","3","retrieval","old_objects","22","Exercise_Stretch.jpg","36","1","876"
"3","3","retrieval","old_objects","23","Shed.jpg","36","1","912"
"3","3","retrieval","old_objects","24","Candy_Chocolate.jpg","36","1","922"
"3","3","retrieval","old_objects","25","Exercise_Machine.jpg","36","1","972"
"3","3","retrieval","old_objects","26","Bag_PaperWithFlour.jpg","36","1","884"
"3","3","retrieval","new_objects","27","WashRack.jpg","37","1","943"
"3","3","retrieval","new_objects","28","DoorBell.jpg","37","1","945"
"3","3","retrieval","new_objects","29","Chicken_FriedDrum.jpg","37","1","937"
"3","3","retrieval","new_objects","30","Costume_Wizard.jpg","37","1","843"
"3","3","retrieval","old_objects","31","Cinnamonroll.jpg","36","1","855"
"3","3","retrieval","new_objects","32","Case_CD.jpg","37","1","660"
"3","3","retrieval","new_objects","33","Dog_ChowChow.jpg","37","1","912"
"3","3","retrieval","new_objects","34","GingerbreadMan.jpg","37","1","810"
"3","3","retrieval","old_objects","35","PulleyWooden.jpg","37","0","505"
"3","3","retrieval","new_objects","36","Peppermill.jpg","37","1","844"
"3","3","retrieval","old_objects","37","DentalProbe.jpg","36","1","793"
"3","3","retrieval","new_objects","38","Chair_BeanBag.jpg","36","0","728"
"3","3","retrieval","old_objects","39","SkiPoles.jpg","36","1","690"
"3","3","retrieval","old_objects","40","Necklace_Black.jpg","36","1","821"
"3","3","retrieval","old_objects","41","Speaker_Single.jpg","36","1","691"
"3","3","retrieval","old_objects","42","Table_AntiqueWooden.jpg","36","1","750"
"3","3","retrieval","old_objects","43","JuicerCitrus.jpg","37","0","1265"
"3","3","retrieval","old_objects","44","Container_Tupperware.jpg","36","1","771"
"3","3","retrieval","new_objects","45","Cross.jpg","37","1","1203"
"3","3","retrieval","new_objects","46","Tombstone.jpg","37","1","809"
"3","3","retrieval","old_objects","47","Crayon_Green.jpg","36","1","727"
"3","3","retrieval","old_objects","48","Ball_Disco.jpg","36","1","761"
"3","3","retrieval","new_objects","49","Joystick.jpg","37","1","737"
"3","3","retrieval","old_objects","50","Photocopier.jpg","36","1","1011"
"3","3","retrieval","new_objects","51","Aquarium.jpg","37","1","928"
"3","3","retrieval","new_objects","52","Bandage_Adhesive.jpg","37","1","682"
"3","3","retrieval","new_objects","53","Swing_Porch.jpg","37","1","589"
"3","3","retrieval","old_objects","54","Tube_Paint.jpg","36","1","662"
"3","3","retrieval","old_objects","55","Pasta_Fettuccine.jpg","36","1","537"
"3","3","retrieval","new_objects","56","Freezer.jpg","36","0","810"
"3","3","retrieval","new_objects","57","Cup_Latte.jpg","37","1","728"
"3","3","retrieval","old_objects","58","Toy_DollOffice.jpg","36","1","795"
"3","3","retrieval","old_objects","59","Box_Jewellery.jpg","37","0","978"
"3","3","retrieval","old_objects","60","Toy_FigurineEngineer.jpg","36","1","745"
"3","3","retrieval","new_objects","62","DogFood.jpg","37","1","1130"
"3","3","retrieval","new_objects","63","Garbage_GreenBin.jpg","37","1","772"
"3","3","retrieval","new_objects","64","CompassCardinal.jpg","37","1","692"
"3","3","retrieval","old_objects","65","Box_WoodenOpen.jpg","36","1","758"
"3","3","retrieval","old_objects","66","Blanket.jpg","36","1","1071"
"3","3","retrieval","new_objects","67","Paddle_Bread.jpg","36","0","915"
"3","3","retrieval","old_objects","68","Dart.jpg","36","1","525"
"3","3","retrieval","old_objects","69","Bowl_Pasta.jpg","36","1","687"
"3","3","retrieval","new_objects","70","Toy_Zebra.jpg","37","1","594"
"3","3","retrieval","new_objects","71","Car_Buggy.jpg","37","1","904"
"3","3","retrieval","new_objects","72","Cougar.jpg","36","0","843"
"3","3","retrieval","new_objects","73","SiloGrain.jpg","37","1","792"
"3","3","retrieval","new_objects","74","Bottle_Wine.jpg","37","1","1015"
"3","3","retrieval","old_objects","75","Key_Car.jpg","36","1","837"
"3","3","retrieval","old_objects","76","Clave.jpg","36","1","1106"
"3","3","retrieval","old_objects","77","Chopsticks.jpg","37","0","941"
"3","3","retrieval","old_objects","78","Flower_Tulip.jpg","36","1","1015"
"3","3","retrieval","old_objects","79","Sand.jpg","37","0","837"
"3","3","retrieval","new_objects","80","Spoons_Musical.jpg","37","1","977"
"3","3","retrieval","new_objects","81","SafetyPin.jpg","37","1","770"
"3","3","retrieval","old_objects","82","BicyclePedal.jpg","36","1","816"
"3","3","retrieval","old_objects","83","Handbag.jpg","37","0","1006"
"3","3","retrieval","new_objects","84","Toolbox_Red.jpg","37","1","781"
"3","3","retrieval","old_objects","85","Squash_Butternut.jpg","36","1","749"
"3","3","retrieval","old_objects","86","CarJack.jpg","37","0","717"
"3","3","retrieval","old_objects","87","IceScraper.jpg","36","1","807"
"3","3","retrieval","old_objects","88","PaperTowel_Brown.jpg","36","1","1358"
"3","3","retrieval","new_objects","89","Instrument_Nyckelharpa.jpg","37","1","726"
"3","3","retrieval","new_objects","90","Donut.jpg","37","1","760"
"3","3","retrieval","new_objects","91","SolderingIron.jpg","37","1","1104"
"3","3","retrieval","new_objects","92","LightBulb_Christmas.jpg","37","1","819"
"3","3","retrieval","old_objects","93","PaperShredder.jpg","36","1","849"
"3","3","retrieval","new_objects","94","Toy_WoodenPlainSingle.jpg","37","1","773"
"3","3","retrieval","old_objects","95","MortarPestle_WhiteMarble.jpg","36","1","790"
"3","3","retrieval","old_objects","96","Calculator.jpg","36","1","1420"
"3","3","retrieval","new_objects","97","Lighter_Black.jpg","37","1","659"
"3","3","retrieval","new_objects","98","Hottub.jpg","37","1","695"
"3","3","retrieval","old_objects","99","PaintCan.jpg","36","1","1010"
"3","3","retrieval","new_objects","100","Bird_Peacock.jpg","37","1","569"
"3","3","retrieval","old_objects","101","CookieCutter_Bell.jpg","37","0","816"
"3","3","retrieval","new_objects","102","Fish_Rockbass.jpg","37","1","1063"
"3","3","retrieval","new_objects","103","Pepper_Green.jpg","37","1","1571"
"3","3","retrieval","old_objects","104","Tray_Muffin.jpg","37","0","690"
"3","3","retrieval","new_objects","105","Shark_GreatWhite.jpg","37","1","502"
"3","3","retrieval","new_objects","106","Cake_Cheese.jpg","37","1","848"
"3","3","retrieval","old_objects","107","Pasta_Penne.jpg","36","1","740"
"3","3","retrieval","old_objects","108","ShotGlassTray.jpg","36","1","950"
"3","3","retrieval","old_objects","109","Decoration_ChristmasRed.jpg","36","1","1704"
"3","3","retrieval","new_objects","110","Alfalfa.jpg","37","1","785"
"3","3","retrieval","old_objects","111","JoustingSpear.jpg","36","1","777"
"3","3","retrieval","old_objects","112","Crown.jpg","37","0","952"
"3","3","retrieval","old_objects","113","WindowBlinds.jpg","36","1","688"
"3","3","retrieval","old_objects","114","FloorTile.jpg","37","0","908"
"3","3","retrieval","new_objects","115","Catheter.jpg","37","1","886"
"3","3","retrieval","new_objects","116","BoogieBoard.jpg","37","1","593"
"3","3","retrieval","new_objects","117","Mask_Buddhist.jpg","37","1","722"
"3","3","retrieval","new_objects","118","Leg.jpg","37","1","884"
"3","3","retrieval","old_objects","119","Glasses_Reading.jpg","37","0","719"
"3","3","retrieval","new_objects","120","Leaf_Green.jpg","37","1","560"
"3","3","retrieval","new_objects","121","WorldMap.jpg","37","1","593"
"3","3","retrieval","new_objects","123","IceCream_Popsicle.jpg","37","1","790"
"3","3","retrieval","new_objects","124","Decoration_ChristmasWhite.jpg","37","1","490"
"3","3","retrieval","new_objects","125","Pot_Cooking.jpg","37","1","501"
"3","3","retrieval","old_objects","126","LicensePlate.jpg","36","1","592"
"3","3","retrieval","old_objects","127","Lettuce_GreenLeaf.jpg","36","1","535"
"3","3","retrieval","new_objects","128","FoodMill.jpg","37","1","625"
"3","3","retrieval","old_objects","129","Computer_CPU.jpg","37","0","438"
"3","3","retrieval","new_objects","130","Truck_Dump.jpg","37","1","556"
"3","3","retrieval","new_objects","131","Table_Picnic.jpg","37","1","564"
"3","3","retrieval","new_objects","132","Camera_Security.jpg","37","1","652"
"3","3","retrieval","new_objects","133","Toy_Taxi.jpg","37","1","593"
"3","3","retrieval","old_objects","134","Piano_Upright.jpg","36","1","632"
"3","3","retrieval","old_objects","135","Pricegun.jpg","37","0","933"
"3","3","retrieval","new_objects","136","Cannoli.jpg","37","1","814"
"3","3","retrieval","old_objects","137","Binoculars.jpg","36","1","813"
"3","3","retrieval","new_objects","138","Coconut.jpg","37","1","1914"
"3","3","retrieval","old_objects","139","GiftBow.jpg","36","1","620"
"3","3","retrieval","old_objects","140","Bird_Budgie.jpg","36","1","754"
"3","3","retrieval","old_objects","141","Shovel_Sandbox.jpg","36","1","658"
"3","3","retrieval","new_objects","142","Brush_Winter.jpg","36","0","536"
"3","3","retrieval","new_objects","143","Candy_Cotton.jpg","37","1","552"
"3","3","retrieval","old_objects","144","PortaPotty.jpg","37","0","561"
"3","3","retrieval","old_objects","145","Mat_Car.jpg","36","1","730"
"3","3","retrieval","new_objects","146","Boots_Hiking.jpg","37","1","682"
"3","3","retrieval","old_objects","147","Oars.jpg","36","1","590"
"3","3","retrieval","new_objects","148","MousepadAndMouse.jpg","36","0","494"
"3","3","retrieval","old_objects","149","Sign_OneWay.jpg","36","1","825"
"3","3","retrieval","new_objects","150","Hawk.jpg","36","0","759"
"3","3","retrieval","new_objects","151","Accordion.jpg","37","1","943"
"3","3","retrieval","new_objects","152","Hat_Colonial.jpg","37","1","583"
"3","3","retrieval","old_objects","153","StockingChristmas.jpg","37","0","591"
"3","3","retrieval","old_objects","154","CoolingFan_Engine.jpg","36","1","758"
"3","3","retrieval","new_objects","155","Microphone.jpg","37","1","759"
"3","3","retrieval","old_objects","156","Sandwich_Ham.jpg","36","1","591"
"3","3","retrieval","new_objects","157","Notepad_WithPen.jpg","37","1","599"
"3","3","retrieval","new_objects","158","Castle_Model.jpg","37","1","685"
"3","3","retrieval","new_objects","159","Pillow_Plaid.jpg","37","1","528"
"3","3","retrieval","old_objects","160","CoffeePot.jpg","37","0","538"
"3","3","retrieval","old_objects","161","ClothesDryingRack.jpg","37","0","468"
"3","3","retrieval","new_objects","162","Jar_Canopic.jpg","37","1","592"
"3","3","retrieval","old_objects","163","Bottle_CosmeticSpray.jpg","36","1","846"
"3","3","retrieval","new_objects","164","DayPlanner.jpg","37","1","747"
"3","3","retrieval","new_objects","165","Crackers_Ritz.jpg","37","1","779"
"3","3","retrieval","new_objects","166","HardDrive.jpg","37","1","611"
"3","3","retrieval","new_objects","167","Clip_Chip.jpg","37","1","553"
"3","3","retrieval","old_objects","168","Cheesegrater_Box.jpg","36","1","721"
"3","3","retrieval","new_objects","169","Toy_BearBluePlushie.jpg","37","1","563"
"3","3","retrieval","old_objects","170","Clam.jpg","37","0","780"
"3","3","retrieval","new_objects","171","Butterfly.jpg","37","1","674"
"3","3","retrieval","old_objects","172","Camel_Dromedary.jpg","37","0","918"
"3","3","retrieval","new_objects","173","CoffeeLid.jpg","37","1","872"
"3","3","retrieval","new_objects","174","Bowl_Fruits.jpg","37","1","468"
"3","3","retrieval","old_objects","175","ComputerKeyboard_Backspace.jpg","36","1","944"
"3","3","retrieval","old_objects","176","Bells_Christmas.jpg","37","0","569"
"3","3","retrieval","old_objects","177","Tractor_Orange.jpg","36","1","938"
"3","3","retrieval","new_objects","178","Flower_Rose.jpg","37","1","594"
"3","3","retrieval","new_objects","179","LifeJacket_BlueYellow.jpg","37","1","553"
"3","3","retrieval","old_objects","180","Trophy.jpg","37","0","562"
"3","3","retrieval","new_objects","181","Switch_LightBlack.jpg","37","1","457"
"3","3","retrieval","old_objects","182","TigerWhite.jpg","37","0","342"
"3","3","retrieval","new_objects","184","Strainer_Tea.jpg","37","1","608"
"3","3","retrieval","new_objects","185","Tribunal_Wooden.jpg","37","1","503"
"3","3","retrieval","old_objects","186","OvenElement.jpg","37","0","433"
"3","3","retrieval","old_objects","187","SelfieStick.jpg","36","1","655"
"3","3","retrieval","old_objects","188","Wreath.jpg","36","1","499"
"3","3","retrieval","old_objects","189","Cactus.jpg","36","1","557"
"3","3","retrieval","old_objects","190","Glass_Wine.jpg","37","0","654"
"3","3","retrieval","old_objects","191","RadioactiveContainer.jpg","36","1","786"
"3","3","retrieval","old_objects","192","Ball_8.jpg","36","1","594"
"3","3","retrieval","new_objects","193","Pipette.jpg","37","1","850"
"3","3","retrieval","new_objects","194","Bulldozer.jpg","36","0","782"
"3","3","retrieval","new_objects","195","Hangar.jpg","36","0","621"
"3","3","retrieval","old_objects","196","Figurine_Ballerina.jpg","37","0","618"
"3","3","retrieval","new_objects","197","Garlic_Whole.jpg","37","1","530"
"3","3","retrieval","old_objects","198","Comb.jpg","37","0","426"
"3","3","retrieval","old_objects","199","ProcessorFood_Modern.jpg","37","0","504"
"3","3","retrieval","new_objects","200","Truck_Tanker.jpg","37","1","562"
"3","3","retrieval","old_objects","201","Yarmulke.jpg","37","0","507"
"3","3","retrieval","new_objects","202","Camel_Bactrian.jpg","37","1","533"
"3","3","retrieval","new_objects","203","Spotlight.jpg","37","1","552"
"3","3","retrieval","new_objects","204","Table_Pool.jpg","37","1","656"
"3","3","retrieval","old_objects","205","Bucket_WoodenDark.jpg","36","1","660"
"3","3","retrieval","old_objects","206","Archery_ArrowsBows.jpg","36","1","632"
"3","3","retrieval","old_objects","207","Bowl_Flour.jpg","36","1","677"
"3","3","retrieval","old_objects","208","Box_Cutlery.jpg","36","1","570"
"3","3","retrieval","new_objects","209","Bag_Garbage.jpg","37","1","595"
"3","3","retrieval","old_objects","210","Nyala.jpg","37","0","848"
"3","3","retrieval","new_objects","211","Toy_DonkeyFur.jpg","37","1","525"
"3","3","retrieval","old_objects","212","SpaceShuttle.jpg","37","0","471"
"3","3","retrieval","old_objects","213","Beater_Electric.jpg","37","0","531"
"3","3","retrieval","old_objects","214","Lock_Combination.jpg","36","1","684"
"3","3","retrieval","old_objects","215","Toy_Motorcycle.jpg","37","0","711"
"3","3","retrieval","old_objects","216","Crutches.jpg","37","0","442"
"3","3","retrieval","old_objects","217","Mask_Gas.jpg","37","0","567"
"3","3","retrieval","old_objects","218","Acorn.jpg","37","0","399"
"3","3","retrieval","new_objects","219","Egg_Wooden.jpg","37","1","590"
"3","3","retrieval","new_objects","220","Printer.jpg","37","1","629"
"3","3","retrieval","new_objects","221","Paddle_Ball.jpg","37","1","770"
"3","3","retrieval","new_objects","222","SandBagThrowGame.jpg","0","0","2000"
"3","3","retrieval","old_objects","223","Chair_Barber.jpg","37","0","553"
"3","3","retrieval","new_objects","224","Mask_Happy.jpg","36","0","713"
"3","3","retrieval","new_objects","225","Easel.jpg","36","0","523"
"3","3","retrieval","old_objects","226","Table_Magazine.jpg","37","0","661"
"3","3","retrieval","new_objects","227","Truck_VintageBlue.jpg","37","1","425"
"3","3","retrieval","new_objects","228","Weathervane.jpg","37","1","503"
"3","3","retrieval","new_objects","229","Peeler.jpg","37","1","593"
"3","3","retrieval","old_objects","230","Bed_QueenSize.jpg","37","0","593"
"3","3","retrieval","old_objects","231","SlideViewer.jpg","37","0","664"
"3","3","retrieval","old_objects","232","Toy_RobotTransformer.jpg","37","0","492"
"3","3","retrieval","new_objects","233","Shoes_Snow.jpg","37","1","503"
"3","3","retrieval","old_objects","234","Walker_Blue.jpg","37","0","490"
"3","3","retrieval","new_objects","235","Keys_Bunch.jpg","37","1","565"
"3","3","retrieval","new_objects","236","Bottle_Beer.jpg","37","1","461"
"3","3","retrieval","old_objects","237","Lollipop_Grape.jpg","37","0","633"
"3","3","retrieval","old_objects","238","Jar_Capers.jpg","37","0","527"
"3","3","retrieval","new_objects","239","Thermostat.jpg","37","1","528"
"3","3","retrieval","new_objects","240","ShoeLace_Round.jpg","37","1","586"
"3","3","retrieval","old_objects","241","DrawingCompass.jpg","37","0","625"
"3","3","retrieval","old_objects","242","Squid_Orange.jpg","37","0","535"
"3","3","retrieval","new_objects","243","Qtip_Single.jpg","37","1","561"
"3","3","retrieval","new_objects","245","Fruit_Carambola.jpg","37","1","620"
"3","3","retrieval","old_objects","246","Purse.jpg","37","0","434"
"3","3","retrieval","old_objects","247","Pen_Ballpoint.jpg","36","1","591"
"3","3","retrieval","old_objects","248","Card_Deck.jpg","36","1","686"
"3","3","retrieval","new_objects","249","Basket_Firewood.jpg","37","1","818"
"3","3","retrieval","new_objects","250","Toy_PandaPlushie.jpg","37","1","624"
"3","3","retrieval","old_objects","251","Bamboo.jpg","37","0","622"
"3","3","retrieval","new_objects","252","Stick_Bridge.jpg","37","1","659"
"3","3","retrieval","new_objects","253","VacuumHead.jpg","37","1","472"
"3","3","retrieval","old_objects","254","Phone_Flip.jpg","36","1","532"
"3","3","retrieval","old_objects","255","LightBulb_Blue.jpg","36","1","621"
"3","3","retrieval","old_objects","256","CodeDoorLock.jpg","36","1","435"
"3","3","retrieval","old_objects","257","Flower_Basket.jpg","36","1","456"
"3","3","retrieval","old_objects","258","Fruit_Orange.jpg","36","1","469"
"3","3","retrieval","old_objects","259","CementFinisher.jpg","36","1","689"
"3","3","retrieval","new_objects","260","Cheese_Platter.jpg","36","0","628"
"3","3","retrieval","old_objects","261","Jar_Empty.jpg","37","0","626"
"3","3","retrieval","new_objects","262","MechanicalSpring.jpg","37","1","600"
"3","3","retrieval","old_objects","263","House_CeramicGingerbread.jpg","37","0","591"
"3","3","retrieval","new_objects","264","Popcorn.jpg","37","1","630"
"3","3","retrieval","old_objects","265","Microwave.jpg","37","0","507"
"3","3","retrieval","new_objects","266","Light_Siren.jpg","37","1","494"
"3","3","retrieval","old_objects","267","CameoPortrait.jpg","37","0","441"
"3","3","retrieval","old_objects","268","Ball_Baseball.jpg","37","0","438"
"3","3","retrieval","old_objects","269","Pickaxe.jpg","37","0","500"
"3","3","retrieval","new_objects","270","Compact_Mirror.jpg","37","1","526"
"3","3","retrieval","new_objects","271","BikiniTop.jpg","37","1","504"
"3","3","retrieval","new_objects","272","Diode.jpg","37","1","563"
"3","3","retrieval","new_objects","273","Fryingpan.jpg","37","1","611"
"3","3","retrieval","new_objects","274","Bird_Parrot.jpg","36","0","585"
"3","3","retrieval","old_objects","275","Statue_Horse.jpg","36","1","593"
"3","3","retrieval","new_objects","276","Clamp_Screw.jpg","37","1","567"
"3","3","retrieval","old_objects","277","Broccoli.jpg","37","0","680"
"3","3","retrieval","new_objects","278","Kazoo.jpg","37","1","587"
"3","3","retrieval","new_objects","279","Kneepad.jpg","37","1","467"
"3","3","retrieval","new_objects","280","Napkin_Holder.jpg","37","1","461"
"3","3","retrieval","old_objects","281","Stick_IceHockey.jpg","37","0","410"
"3","3","retrieval","new_objects","282","Pacifier.jpg","37","1","505"
"3","3","retrieval","new_objects","283","Honeydew_yellow.jpg","37","1","595"
"3","3","retrieval","old_objects","284","EyeChart.jpg","37","0","562"
"3","3","retrieval","old_objects","285","Stingray.jpg","37","0","539"
"3","3","retrieval","new_objects","286","Bottle_BubbleBlower.jpg","37","1","628"
"3","3","retrieval","old_objects","287","Bathtub.jpg","37","0","1203"
"3","3","retrieval","new_objects","288","Shrimp.jpg","37","1","562"
"3","3","retrieval","old_objects","289","Bird_Duck.jpg","37","0","505"
"3","3","retrieval","new_objects","290","SaladCaesar.jpg","37","1","564"
"3","3","retrieval","new_objects","291","LifeJacket_Orangejpg.jpg","37","1","588"
"3","3","retrieval","new_objects","292","Case_Leather.jpg","37","1","524"
"3","3","retrieval","old_objects","293","NailClipper.jpg","36","1","726"
"3","3","retrieval","old_objects","294","CoffeeGrinder.jpg","37","0","664"
"3","3","retrieval","new_objects","295","Sock_Ankle.jpg","37","1","493"
"3","3","retrieval","new_objects","296","Spoons_MeasuringAttached.jpg","37","1","502"
"3","3","retrieval","new_objects","297","Rock_Mimetite.jpg","37","1","681"
"3","3","retrieval","new_objects","298","Tag_Price.jpg","37","1","460"
"3","3","retrieval","new_objects","299","Carousel.jpg","37","1","440"
"3","3","retrieval","old_objects","300","Boat_Sail.jpg","36","1","886"
"3","3","retrieval","new_objects","301","Notepad.jpg","37","1","497"
"3","3","retrieval","old_objects","302","Amp.jpg","37","0","675"
"3","3","retrieval","old_objects","303","Toy_Firetruck.jpg","37","0","567"
"3","3","retrieval","new_objects","304","Shampoo.jpg","37","1","559"
"3","3","retrieval","new_objects","306","Stone_AncientWriting.jpg","37","1","758"
"3","3","retrieval","old_objects","307","Mailbox_Community.jpg","37","0","663"
"3","3","retrieval","new_objects","308","Tortilla.jpg","37","1","706"
"3","3","retrieval","old_objects","309","Can_MilkAntique.jpg","37","0","500"
"3","3","retrieval","old_objects","310","Nuts_Walnut.jpg","37","0","943"
"3","3","retrieval","new_objects","311","Pear_Yellow.jpg","37","1","881"
"3","3","retrieval","old_objects","312","AngleGrinder.jpg","37","0","523"
"3","3","retrieval","old_objects","313","Inukshuk.jpg","37","0","661"
"3","3","retrieval","new_objects","314","Coin.jpg","36","0","739"
"3","3","retrieval","new_objects","315","SpaceRover.jpg","36","0","690"
"3","3","retrieval","new_objects","316","Ring_Plain.jpg","37","1","630"
"3","3","retrieval","old_objects","317","Radish.jpg","37","0","523"
"3","3","retrieval","old_objects","318","Pliers_SlipJoint.jpg","37","0","437"
"3","3","retrieval","old_objects","319","MonaLisa.jpg","37","0","466"
"3","3","retrieval","old_objects","320","Bird_Eagle.jpg","36","1","614"
"3","3","retrieval","old_objects","321","Stick_Stirring.jpg","36","1","588"
"3","3","retrieval","new_objects","322","Thermometer_Room.jpg","37","1","627"
"3","3","retrieval","old_objects","323","CanOpener.jpg","37","0","505"
"3","3","retrieval","new_objects","324","Mirror_Carside.jpg","37","1","468"
"3","3","retrieval","new_objects","325","Basket_Plastic.jpg","37","1","432"
"3","3","retrieval","new_objects","326","Makeup_Foundation.jpg","37","1","429"
"3","3","retrieval","new_objects","327","Bowl_Wooden.jpg","37","1","355"
"3","3","retrieval","new_objects","328","Hanger.jpg","37","1","467"
"3","3","retrieval","old_objects","329","Scythe.jpg","37","0","494"
"3","3","retrieval","old_objects","330","Briefcase_Leather.jpg","36","1","730"
"3","3","retrieval","new_objects","331","Bucket_Champagne.jpg","37","1","707"
"3","3","retrieval","new_objects","332","Pepperoni.jpg","37","1","982"
"3","3","retrieval","old_objects","333","Car_Vintage.jpg","37","0","333"
"3","3","retrieval","old_objects","334","Microscope.jpg","36","1","527"
"3","3","retrieval","new_objects","335","Candy_GummyBear.jpg","37","1","625"
"3","3","retrieval","old_objects","336","Boot_Rain.jpg","37","0","567"
"3","3","retrieval","old_objects","337","ChewingGum.jpg","36","1","687"
"3","3","retrieval","old_objects","338","Toy_TableSet.jpg","37","0","1161"
"3","3","retrieval","old_objects","339","Lynx.jpg","36","1","698"
"3","3","retrieval","old_objects","340","Toy_Top.jpg","37","0","684"
"3","3","retrieval","new_objects","341","Flower_Sun.jpg","37","1","431"
"3","3","retrieval","new_objects","342","Sign_Open.jpg","37","1","461"
"3","3","retrieval","new_objects","343","Almond.jpg","37","1","512"
"3","3","retrieval","new_objects","344","Bench_Black.jpg","37","1","459"
"3","3","retrieval","new_objects","345","Lamp_TableWhite.jpg","37","1","439"
"3","3","retrieval","new_objects","346","Teabag.jpg","37","1","469"
"3","3","retrieval","old_objects","347","RecordPlayer.jpg","36","1","720"
"3","3","retrieval","old_objects","348","Mirror_Handheld.jpg","36","1","562"
"3","3","retrieval","old_objects","349","Pillar.jpg","37","0","563"
"3","3","retrieval","old_objects","350","Toy_RabbitPlushie.jpg","37","0","491"
"3","3","retrieval","new_objects","351","Necklace_Pearl.jpg","37","1","470"
"3","3","retrieval","new_objects","352","Qtip_Multiple.jpg","37","1","530"
"3","3","retrieval","new_objects","353","Hubcap.jpg","37","1","651"
"3","3","retrieval","new_objects","354","Clippers_Glass.jpg","37","1","648"
"3","3","retrieval","old_objects","355","Squid_Pink.jpg","36","1","684"
"3","3","demographics_block","gender","1","Squid_Pink.jpg","male","1","10328"
"3","3","demographics_block","age","1","Squid_Pink.jpg","47","1","10328"
"3","3","demographics_block","education","1","Squid_Pink.jpg","16","1","10328"
"3","3","demographics_block","left_right_handed","2","Squid_Pink.jpg","Right","1","5599"
"3","3","demographics_block","raceoption1","2","Squid_Pink.jpg","0","1","5599"
"3","3","demographics_block","raceoption2","2","Squid_Pink.jpg","","1","5599"
"3","3","demographics_block","raceoption3","2","Squid_Pink.jpg","","1","5599"
"3","3","demographics_block","raceoption4","2","Squid_Pink.jpg","","1","5599"
"3","3","demographics_block","raceoption5","2","Squid_Pink.jpg","","1","5599"
"3","3","demographics_block","raceoption6","2","Squid_Pink.jpg","","1","5599"
"3","3","demographics_block","raceoption7","2","Squid_Pink.jpg","","1","5599"
"3","3","demographics_block","raceoption8","2","Squid_Pink.jpg","","1","5599"
"3","3","demographics_block","raceoption9","2","Squid_Pink.jpg","","1","5599"
"3","3","demographics_block","raceother","2","Squid_Pink.jpg","","1","5599"
"3","3","demographics_block","raceother","2","Squid_Pink.jpg","","1","5599"
"3","3","demographics_block","english_language","2","Squid_Pink.jpg","Yes","1","5599"
"3","3","demographics_block","english_languageother","2","Squid_Pink.jpg","","1","5599"
"3","3","demographics_block","eyesight","3","Squid_Pink.jpg","Yes","1","4015"
"3","3","demographics_block","colorblind","3","Squid_Pink.jpg","No","1","4015"
"3","3","worker_id_block","worker_id_textbox","1","Squid_Pink.jpg","A3V1ZYXBJYCIIE","1","5566"
"5","5","encoding","encoding","1","Can_MilkAntique.jpg","37","0","1014"
"5","5","encoding","encoding","2","Ball_8.jpg","37","0","819"
"5","5","encoding","encoding","3","Jar_Capers.jpg","37","0","862"
"5","5","encoding","encoding","4","Table_Magazine.jpg","37","0","774"
"5","5","encoding","encoding","5","ClothesDryingRack.jpg","37","0","638"
"5","5","encoding","encoding","6","Pasta_Fettuccine.jpg","37","0","1038"
"5","5","encoding","encoding","7","ShotGlassTray.jpg","37","0","973"
"5","5","encoding","encoding","8","Stick_Stirring.jpg","37","0","774"
"5","5","encoding","encoding","9","MortarPestle_WhiteMarble.jpg","37","0","1261"
"5","5","encoding","encoding","10","Toy_DollOffice.jpg","37","0","672"
"5","5","encoding","encoding","11","Dart.jpg","37","0","553"
"5","5","encoding","encoding","12","Boot_Rain.jpg","37","0","556"
"5","5","encoding","encoding","13","Cinnamonroll.jpg","37","0","1011"
"5","5","encoding","encoding","14","BusStop.jpg","37","0","669"
"5","5","encoding","encoding","15","Chair_Barber.jpg","37","0","573"
"5","5","encoding","encoding","16","Stingray.jpg","36","0","780"
"5","5","encoding","encoding","17","ComputerKeyboard_Backspace.jpg","37","0","868"
"5","5","encoding","encoding","18","Piano_Upright.jpg","37","0","829"
"5","5","encoding","encoding","19","Sandwich_Ham.jpg","37","0","935"
"5","5","encoding","encoding","20","CementFinisher.jpg","37","0","650"
"5","5","encoding","encoding","21","Mat_Car.jpg","37","0","601"
"5","5","encoding","encoding","22","CarJack.jpg","37","0","997"
"5","5","encoding","encoding","23","Toy_TableSet.jpg","37","0","1174"
"5","5","encoding","encoding","24","Lettuce_GreenLeaf.jpg","36","0","786"
"5","5","encoding","encoding","25","Ball_Disco.jpg","37","0","587"
"5","5","encoding","encoding","26","RadioactiveContainer.jpg","37","0","687"
"5","5","encoding","encoding","27","Tractor_Orange.jpg","37","0","813"
"5","5","encoding","encoding","28","Toy_FigurineEngineer.jpg","37","0","755"
"5","5","encoding","encoding","29","Car_Vintage.jpg","37","0","541"
"5","5","encoding","encoding","30","Stick_IceHockey.jpg","37","0","542"
"5","5","encoding","encoding","31","FloorTile.jpg","37","0","718"
"5","5","encoding","encoding","32","Mask_Gas.jpg","37","0","769"
"5","5","encoding","encoding","33","Mirror_Handheld.jpg","37","0","620"
"5","5","encoding","encoding","34","Phone_Flip.jpg","37","0","608"
"5","5","encoding","encoding","35","Shovel_Sandbox.jpg","37","0","532"
"5","5","encoding","encoding","36","Container_Tupperware.jpg","37","0","589"
"5","5","encoding","encoding","37","Handbag.jpg","37","0","518"
"5","5","encoding","encoding","38","PaperShredder.jpg","37","0","514"
"5","5","encoding","encoding","39","Acorn.jpg","36","0","769"
"5","5","encoding","encoding","40","House_CeramicGingerbread.jpg","37","0","951"
"5","5","encoding","encoding","41","ProcessorFood_Modern.jpg","37","0","1890"
"5","5","encoding","encoding","42","TigerWhite.jpg","36","0","805"
"5","5","encoding","encoding","43","Broccoli.jpg","36","0","621"
"5","5","encoding","encoding","44","Crown.jpg","37","0","600"
"5","5","encoding","encoding","45","Bird_Duck.jpg","36","0","737"
"5","5","encoding","encoding","46","Bells_Christmas.jpg","37","0","654"
"5","5","encoding","encoding","47","Microscope.jpg","37","0","574"
"5","5","encoding","encoding","48","SpaceShuttle.jpg","37","0","751"
"5","5","encoding","encoding","49","WindowBlinds.jpg","37","0","644"
"5","5","encoding","encoding","50","Yarmulke.jpg","37","0","712"
"5","5","encoding","encoding","51","Crutches.jpg","37","0","577"
"5","5","encoding","encoding","52","Bowl_Flour.jpg","37","0","1079"
"5","5","encoding","encoding","53","Toy_Motorcycle.jpg","37","0","549"
"5","5","encoding","encoding","54","CodeDoorLock.jpg","37","0","1090"
"5","5","encoding","encoding","55","OvenElement.jpg","37","0","692"
"5","5","encoding","encoding","56","Pickaxe.jpg","37","0","594"
"5","5","encoding","encoding","57","Pliers_SlipJoint.jpg","37","0","473"
"5","5","encoding","encoding","58","Blanket.jpg","37","0","406"
"5","5","encoding","encoding","59","Wreath.jpg","37","0","1166"
"5","5","encoding","encoding","60","Exercise_Stretch.jpg","37","0","613"
"5","5","encoding","encoding","62","Bucket_WoodenDark.jpg","37","0","615"
"5","5","encoding","encoding","63","Squid_Pink.jpg","36","0","807"
"5","5","encoding","encoding","64","Lollipop_Grape.jpg","37","0","715"
"5","5","encoding","encoding","65","Jar_Empty.jpg","37","0","538"
"5","5","encoding","encoding","66","Key_Car.jpg","37","0","792"
"5","5","encoding","encoding","67","Clave.jpg","37","0","877"
"5","5","encoding","encoding","68","Carabiner_Orange.jpg","37","0","537"
"5","5","encoding","encoding","69","Box_Cutlery.jpg","37","0","564"
"5","5","encoding","encoding","70","Glasses_Reading.jpg","37","0","651"
"5","5","encoding","encoding","71","Scythe.jpg","37","0","578"
"5","5","encoding","encoding","72","Flower_Tulip.jpg","36","0","751"
"5","5","encoding","encoding","73","Squash_Butternut.jpg","36","0","607"
"5","5","encoding","encoding","74","Bathtub.jpg","37","0","998"
"5","5","encoding","encoding","75","Briefcase_Leather.jpg","37","0","652"
"5","5","encoding","encoding","76","Boat_Sail.jpg","37","0","728"
"5","5","encoding","encoding","77","Inukshuk.jpg","36","0","899"
"5","5","encoding","encoding","78","CoolingFan_Engine.jpg","37","0","642"
"5","5","encoding","encoding","79","Bottle_CosmeticSpray.jpg","37","0","667"
"5","5","encoding","encoding","80","PaperTowel_Brown.jpg","37","0","458"
"5","5","encoding","encoding","81","StockingChristmas.jpg","37","0","612"
"5","5","encoding","encoding","82","Oars.jpg","37","0","486"
"5","5","encoding","encoding","83","Squid_Orange.jpg","36","0","949"
"5","5","encoding","encoding","84","Tray_Muffin.jpg","37","0","1327"
"5","5","encoding","encoding","85","Tube_Paint.jpg","37","0","929"
"5","5","encoding","encoding","86","Statue_Horse.jpg","37","0","659"
"5","5","encoding","encoding","87","Fruit_Orange.jpg","36","0","801"
"5","5","encoding","encoding","88","Camel_Dromedary.jpg","36","0","925"
"5","5","encoding","encoding","89","BicyclePedal.jpg","37","0","641"
"5","5","encoding","encoding","90","Card_Deck.jpg","37","0","652"
"5","5","encoding","encoding","91","Spear.jpg","37","0","594"
"5","5","encoding","encoding","92","CookieCutter_Bell.jpg","37","0","531"
"5","5","encoding","encoding","93","Lynx.jpg","36","0","756"
"5","5","encoding","encoding","94","CanOpener.jpg","37","0","551"
"5","5","encoding","encoding","95","RecordPlayer.jpg","37","0","968"
"5","5","encoding","encoding","96","Photocopier.jpg","37","0","614"
"5","5","encoding","encoding","97","TailLight.jpg","37","0","619"
"5","5","encoding","encoding","98","Sign_OneWay.jpg","37","0","419"
"5","5","encoding","encoding","99","Speaker_Single.jpg","37","0","420"
"5","5","encoding","encoding","100","Box_Jewellery.jpg","37","0","487"
"5","5","encoding","encoding","101","Glass_Wine.jpg","37","0","622"
"5","5","encoding","encoding","102","Clam.jpg","36","0","869"
"5","5","encoding","encoding","103","Trophy.jpg","37","0","494"
"5","5","encoding","encoding","104","Cheesegrater_Box.jpg","37","0","616"
"5","5","encoding","encoding","105","Chopsticks.jpg","37","0","555"
"5","5","encoding","encoding","106","Walker_Blue.jpg","37","0","470"
"5","5","encoding","encoding","107","LightBulb_Blue.jpg","37","0","622"
"5","5","encoding","encoding","108","Beater_Electric.jpg","37","0","522"
"5","5","encoding","encoding","109","MonaLisa.jpg","37","0","400"
"5","5","encoding","encoding","110","Radish.jpg","36","0","769"
"5","5","encoding","encoding","111","Toy_Firetruck.jpg","37","0","485"
"5","5","encoding","encoding","112","Blackboard.jpg","37","0","770"
"5","5","encoding","encoding","113","HairCurler.jpg","37","0","617"
"5","5","encoding","encoding","114","Nuts_Walnut.jpg","36","0","859"
"5","5","encoding","encoding","115","Bird_Budgie.jpg","36","0","682"
"5","5","encoding","encoding","116","Figurine_Ballerina.jpg","37","0","717"
"5","5","encoding","encoding","117","Mailbox_Community.jpg","37","0","666"
"5","5","encoding","encoding","118","Bird_Eagle.jpg","36","0","708"
"5","5","encoding","encoding","119","CoffeePot.jpg","37","0","542"
"5","5","encoding","encoding","120","PortaPotty.jpg","37","0","651"
"5","5","encoding","encoding","121","JuicerCitrus.jpg","37","0","610"
"5","5","encoding","encoding","123","PulleyWooden.jpg","37","0","821"
"5","5","encoding","encoding","124","IceScraper.jpg","37","0","460"
"5","5","encoding","encoding","125","ChewingGum.jpg","37","0","917"
"5","5","encoding","encoding","126","Bed_QueenSize.jpg","37","0","455"
"5","5","encoding","encoding","127","Candy_Chocolate.jpg","37","0","635"
"5","5","encoding","encoding","128","Pasta_Penne.jpg","37","0","697"
"5","5","encoding","encoding","129","SkiPoles.jpg","37","0","688"
"5","5","encoding","encoding","130","Amp.jpg","37","0","444"
"5","5","encoding","encoding","131","Bowl_Pasta.jpg","37","0","631"
"5","5","encoding","encoding","132","Toy_DogBall.jpg","37","0","721"
"5","5","encoding","encoding","133","SlideViewer.jpg","37","0","539"
"5","5","encoding","encoding","134","Nametag.jpg","37","0","636"
"5","5","encoding","encoding","135","Shed.jpg","37","0","541"
"5","5","encoding","encoding","136","NailClipper.jpg","37","0","534"
"5","5","encoding","encoding","137","Toy_RabbitPlushie.jpg","37","0","726"
"5","5","encoding","encoding","138","Nyala.jpg","36","0","789"
"5","5","encoding","encoding","139","Computer_CPU.jpg","37","0","578"
"5","5","encoding","encoding","140","Toy_RobotTransformer.jpg","37","0","491"
"5","5","encoding","encoding","141","Cactus.jpg","36","0","684"
"5","5","encoding","encoding","142","AngleGrinder.jpg","37","0","640"
"5","5","encoding","encoding","143","Crayon_Green.jpg","37","0","606"
"5","5","encoding","encoding","144","DrawingCompass.jpg","37","0","516"
"5","5","encoding","encoding","145","Bamboo.jpg","37","0","943"
"5","5","encoding","encoding","146","DentalProbe.jpg","37","0","577"
"5","5","encoding","encoding","147","Decoration_ChristmasRed.jpg","37","0","490"
"5","5","encoding","encoding","148","CameoPortrait.jpg","37","0","585"
"5","5","encoding","encoding","149","Pen_Ballpoint.jpg","37","0","486"
"5","5","encoding","encoding","150","Binoculars.jpg","37","0","473"
"5","5","encoding","encoding","151","Box_WoodenOpen.jpg","37","0","716"
"5","5","encoding","encoding","152","Hook_Double.jpg","37","0","490"
"5","5","encoding","encoding","153","Exercise_Machine.jpg","37","0","563"
"5","5","encoding","encoding","154","Calculator.jpg","37","0","521"
"5","5","encoding","encoding","155","SelfieStick.jpg","37","0","552"
"5","5","encoding","encoding","156","Purse.jpg","37","0","488"
"5","5","encoding","encoding","157","Flower_Basket.jpg","37","0","1061"
"5","5","encoding","encoding","158","GiftBow.jpg","37","0","755"
"5","5","encoding","encoding","159","CoffeeGrinder.jpg","37","0","491"
"5","5","encoding","encoding","160","Table_AntiqueWooden.jpg","37","0","427"
"5","5","encoding","encoding","161","Flamingo_Real.jpg","37","0","1061"
"5","5","encoding","encoding","162","Microwave.jpg","37","0","704"
"5","5","encoding","encoding","163","EyeChart.jpg","37","0","466"
"5","5","encoding","encoding","164","Toy_Top.jpg","37","0","753"
"5","5","encoding","encoding","165","PaintCan.jpg","37","0","643"
"5","5","encoding","encoding","166","Comb.jpg","37","0","450"
"5","5","encoding","encoding","167","LicensePlate.jpg","37","0","513"
"5","5","encoding","encoding","168","Flags_CheckeredRacing.jpg","37","0","556"
"5","5","encoding","encoding","169","Necklace_Black.jpg","37","0","488"
"5","5","encoding","encoding","170","JoustingSpear.jpg","37","0","568"
"5","5","encoding","encoding","171","Archery_ArrowsBows.jpg","37","0","532"
"5","5","encoding","encoding","172","Bag_PaperWithFlour.jpg","37","0","990"
"5","5","encoding","encoding","173","Pillar.jpg","37","0","562"
"5","5","encoding","encoding","174","Ball_Baseball.jpg","37","0","617"
"5","5","encoding","encoding","175","Pricegun.jpg","37","0","592"
"5","5","encoding","encoding","176","Lock_Combination.jpg","37","0","706"
"5","5","encoding","encoding","177","Sand.jpg","36","0","1168"
"5","5","retrieval","new_objects","1","Pipette.jpg","37","1","873"
"5","5","retrieval","old_objects","2","Briefcase_Leather.jpg","36","1","1105"
"5","5","retrieval","new_objects","3","Coin.jpg","37","1","780"
"5","5","retrieval","old_objects","4","Dart.jpg","36","1","725"
"5","5","retrieval","new_objects","5","Cougar.jpg","37","1","742"
"5","5","retrieval","new_objects","6","CookieCutter_Tree.jpg","37","1","860"
"5","5","retrieval","old_objects","7","Sign_OneWay.jpg","37","0","702"
"5","5","retrieval","new_objects","8","LightBulb_Christmas.jpg","37","1","730"
"5","5","retrieval","old_objects","9","Toy_Firetruck.jpg","36","1","949"
"5","5","retrieval","old_objects","10","Jar_Empty.jpg","36","1","790"
"5","5","retrieval","new_objects","11","Garbage_GreenBin.jpg","37","1","733"
"5","5","retrieval","new_objects","12","Toy_WoodenPlainSingle.jpg","37","1","738"
"5","5","retrieval","old_objects","13","Nuts_Walnut.jpg","36","1","735"
"5","5","retrieval","old_objects","14","RecordPlayer.jpg","36","1","834"
"5","5","retrieval","old_objects","15","Archery_ArrowsBows.jpg","36","1","784"
"5","5","retrieval","new_objects","16","Ring_Plain.jpg","37","1","785"
"5","5","retrieval","new_objects","17","Telescope.jpg","37","1","847"
"5","5","retrieval","old_objects","18","PaperTowel_Brown.jpg","36","1","960"
"5","5","retrieval","old_objects","19","Spear.jpg","36","1","906"
"5","5","retrieval","new_objects","20","Accordion.jpg","37","1","669"
"5","5","retrieval","old_objects","21","JoustingSpear.jpg","36","1","669"
"5","5","retrieval","new_objects","22","Clip_Chip.jpg","37","1","635"
"5","5","retrieval","old_objects","23","Stick_IceHockey.jpg","36","1","704"
"5","5","retrieval","new_objects","24","Lighter_Black.jpg","37","1","682"
"5","5","retrieval","old_objects","25","Bucket_WoodenDark.jpg","36","1","836"
"5","5","retrieval","new_objects","26","Bird_Peacock.jpg","37","1","816"
"5","5","retrieval","old_objects","27","Pickaxe.jpg","37","0","851"
"5","5","retrieval","new_objects","28","BikiniTop.jpg","37","1","903"
"5","5","retrieval","old_objects","29","Clam.jpg","36","1","795"
"5","5","retrieval","old_objects","30","IceScraper.jpg","37","0","1095"
"5","5","retrieval","old_objects","31","Box_Cutlery.jpg","36","1","1112"
"5","5","retrieval","old_objects","32","Toy_DogBall.jpg","36","1","613"
"5","5","retrieval","old_objects","33","Speaker_Single.jpg","37","0","1190"
"5","5","retrieval","old_objects","34","Flags_CheckeredRacing.jpg","36","1","676"
"5","5","retrieval","new_objects","35","Table_Pool.jpg","37","1","726"
"5","5","retrieval","old_objects","36","Bag_PaperWithFlour.jpg","36","1","751"
"5","5","retrieval","old_objects","37","Glasses_Reading.jpg","36","1","707"
"5","5","retrieval","old_objects","38","Toy_FigurineEngineer.jpg","36","1","646"
"5","5","retrieval","old_objects","39","Squash_Butternut.jpg","36","1","674"
"5","5","retrieval","new_objects","40","Paddle_Ball.jpg","36","0","776"
"5","5","retrieval","old_objects","41","Car_Vintage.jpg","37","0","716"
"5","5","retrieval","old_objects","42","Bells_Christmas.jpg","36","1","714"
"5","5","retrieval","new_objects","43","Microphone.jpg","37","1","895"
"5","5","retrieval","new_objects","44","Bowl_Wooden.jpg","37","1","847"
"5","5","retrieval","new_objects","45","Pacifier.jpg","37","1","780"
"5","5","retrieval","old_objects","46","Ball_8.jpg","36","1","1270"
"5","5","retrieval","old_objects","47","Squid_Orange.jpg","36","1","900"
"5","5","retrieval","old_objects","48","Toy_DollOffice.jpg","36","1","873"
"5","5","retrieval","new_objects","49","Thermometer_Room.jpg","37","1","675"
"5","5","retrieval","new_objects","50","WashRack.jpg","37","1","614"
"5","5","retrieval","old_objects","51","Ball_Disco.jpg","36","1","760"
"5","5","retrieval","old_objects","52","Fruit_Orange.jpg","36","1","719"
"5","5","retrieval","new_objects","53","Swing_Porch.jpg","37","1","724"
"5","5","retrieval","new_objects","54","SandBagThrowGame.jpg","37","1","936"
"5","5","retrieval","new_objects","55","Peeler.jpg","37","1","748"
"5","5","retrieval","new_objects","56","WorldMap.jpg","37","1","668"
"5","5","retrieval","old_objects","57","Photocopier.jpg","37","0","750"
"5","5","retrieval","old_objects","58","ProcessorFood_Modern.jpg","36","1","1051"
"5","5","retrieval","old_objects","59","MortarPestle_WhiteMarble.jpg","36","1","708"
"5","5","retrieval","old_objects","60","Pillar.jpg","37","0","829"
"5","5","retrieval","old_objects","62","Statue_Horse.jpg","37","0","1355"
"5","5","retrieval","old_objects","63","Broccoli.jpg","36","1","609"
"5","5","retrieval","new_objects","64","SaladCaesar.jpg","37","1","702"
"5","5","retrieval","new_objects","65","Stick_Bridge.jpg","37","1","714"
"5","5","retrieval","old_objects","66","Crutches.jpg","36","1","959"
"5","5","retrieval","old_objects","67","Chair_Barber.jpg","36","1","793"
"5","5","retrieval","old_objects","68","Binoculars.jpg","37","0","792"
"5","5","retrieval","old_objects","69","Clave.jpg","36","1","687"
"5","5","retrieval","old_objects","70","DentalProbe.jpg","36","1","796"
"5","5","retrieval","new_objects","71","Light_Siren.jpg","37","1","621"
"5","5","retrieval","new_objects","72","Toy_BearBluePlushie.jpg","37","1","665"
"5","5","retrieval","old_objects","73","AngleGrinder.jpg","37","0","816"
"5","5","retrieval","old_objects","74","Stingray.jpg","36","1","763"
"5","5","retrieval","new_objects","75","Hubcap.jpg","37","1","749"
"5","5","retrieval","old_objects","76","Lock_Combination.jpg","36","1","916"
"5","5","retrieval","new_objects","77","Camera_Security.jpg","37","1","772"
"5","5","retrieval","old_objects","78","DrawingCompass.jpg","37","0","945"
"5","5","retrieval","old_objects","79","CementFinisher.jpg","36","1","667"
"5","5","retrieval","new_objects","80","Toolbox_Red.jpg","37","1","787"
"5","5","retrieval","old_objects","81","Phone_Flip.jpg","37","0","713"
"5","5","retrieval","new_objects","82","Candy_GummyBear.jpg","37","1","743"
"5","5","retrieval","old_objects","83","Piano_Upright.jpg","36","1","634"
"5","5","retrieval","old_objects","84","Tractor_Orange.jpg","37","0","897"
"5","5","retrieval","new_objects","85","Cheese_Platter.jpg","37","1","862"
"5","5","retrieval","new_objects","86","Shrimp.jpg","37","1","735"
"5","5","retrieval","new_objects","87","Sign_Open.jpg","37","1","651"
"5","5","retrieval","new_objects","88","Bowl_Fruits.jpg","37","1","684"
"5","5","retrieval","new_objects","89","Bulldozer.jpg","36","0","923"
"5","5","retrieval","new_objects","90","Toy_Zebra.jpg","37","1","625"
"5","5","retrieval","new_objects","91","Hottub.jpg","37","1","672"
"5","5","retrieval","new_objects","92","Freezer.jpg","37","1","762"
"5","5","retrieval","new_objects","93","Keys_Bunch.jpg","37","1","546"
"5","5","retrieval","old_objects","94","Pasta_Penne.jpg","36","1","685"
"5","5","retrieval","new_objects","95","Toy_DonkeyFur.jpg","37","1","710"
"5","5","retrieval","old_objects","96","Nametag.jpg","37","0","1161"
"5","5","retrieval","new_objects","97","Donut.jpg","37","1","804"
"5","5","retrieval","old_objects","98","Chopsticks.jpg","36","1","657"
"5","5","retrieval","old_objects","99","Mat_Car.jpg","36","1","966"
"5","5","retrieval","old_objects","100","Scythe.jpg","36","1","879"
"5","5","retrieval","new_objects","101","CoffeeLid.jpg","37","1","777"
"5","5","retrieval","new_objects","102","Crackers_Ritz.jpg","37","1","715"
"5","5","retrieval","old_objects","103","Bowl_Pasta.jpg","36","1","671"
"5","5","retrieval","new_objects","104","Makeup_Foundation.jpg","37","1","671"
"5","5","retrieval","old_objects","105","CarJack.jpg","37","0","912"
"5","5","retrieval","new_objects","106","Coconut.jpg","37","1","696"
