"group","subject","blockcode","trialcode","trialnum","values.stimulus","response","correct","latency"
"4","4","encoding","encoding","1","Brush_BathBack.jpg","37","0","1361"
"4","4","encoding","encoding","2","Barometer.jpg","37","0","1743"
"4","4","encoding","encoding","3","Toy_Ladybug.jpg","37","0","1533"
"4","4","encoding","encoding","4","Goat.jpg","36","0","786"
"4","4","encoding","encoding","5","CigarCutter.jpg","37","0","1199"
"4","4","encoding","encoding","6","Shoe_Highheel.jpg","37","0","648"
"4","4","encoding","encoding","7","Switch_LightWhite.jpg","37","0","756"
"4","4","encoding","encoding","8","Battery_Car.jpg","37","0","718"
"4","4","encoding","encoding","9","Seashell_AlternateTellin.jpg","36","0","733"
"4","4","encoding","encoding","10","Spatula.jpg","37","0","734"
"4","4","encoding","encoding","11","Panda.jpg","36","0","723"
"4","4","encoding","encoding","12","Clock_Radioalarm.jpg","37","0","598"
"4","4","encoding","encoding","13","Earring_Hoop.jpg","37","0","974"
"4","4","encoding","encoding","14","Scalpel.jpg","37","0","738"
"4","4","encoding","encoding","15","Puzzle_Animal.jpg","37","0","791"
"4","4","encoding","encoding","16","Crib_Standard.jpg","37","0","715"
"4","4","encoding","encoding","17","Helmet_Knight.jpg","37","0","1061"
"4","4","encoding","encoding","18","DentalFloss.jpg","37","0","1009"
"4","4","encoding","encoding","19","Box_Present.jpg","37","0","535"
"4","4","encoding","encoding","20","Stool_Wood.jpg","37","0","1133"
"4","4","encoding","encoding","21","VGAport.jpg","37","0","1124"
"4","4","encoding","encoding","22","Brush_Cleaning.jpg","37","0","988"
"4","4","encoding","encoding","23","NailFiles.jpg","37","0","809"
"4","4","encoding","encoding","24","Cup_Bathroom.jpg","37","0","807"
"4","4","encoding","encoding","25","White_Screen.jpg","0","0","2000"
"4","4","encoding","encoding","26","Asparagus.jpg","36","0","908"
"4","4","encoding","encoding","27","Dress_Party.jpg","37","0","1239"
"4","4","encoding","encoding","28","Gametable_AirHockey.jpg","37","0","650"
"4","4","encoding","encoding","29","Toy_Boat.jpg","37","0","787"
"4","4","encoding","encoding","30","Tray_Medical.jpg","37","0","696"
"4","4","encoding","encoding","31","Bagpipes.jpg","37","0","1035"
"4","4","encoding","encoding","32","WaterHeater.jpg","37","0","768"
"4","4","encoding","encoding","33","Giraffe.jpg","36","0","667"
"4","4","encoding","encoding","34","Makeup_Mascara.jpg","37","0","603"
"4","4","encoding","encoding","35","Brace_Leg.jpg","37","0","773"
"4","4","encoding","encoding","36","Pasta_Macaroni.jpg","37","0","1298"
"4","4","encoding","encoding","37","Toy_DinosaurBrontosaurus.jpg","37","0","1066"
"4","4","encoding","encoding","38","Tractor_Yellow.jpg","37","0","617"
"4","4","encoding","encoding","39","StreetSweeper.jpg","37","0","893"
"4","4","encoding","encoding","40","Caterpillar.jpg","36","0","817"
"4","4","encoding","encoding","41","Cabinet_Display.jpg","37","0","579"
"4","4","encoding","encoding","42","PaintRollTray.jpg","37","0","911"
"4","4","encoding","encoding","43","Paddle_PingPong.jpg","37","0","598"
"4","4","encoding","encoding","44","Baster.jpg","37","0","789"
"4","4","encoding","encoding","45","PassionFruit.jpg","36","0","1058"
"4","4","encoding","encoding","46","Hoverboard.jpg","37","0","575"
"4","4","encoding","encoding","47","PenStand.jpg","37","0","615"
"4","4","encoding","encoding","48","Bleachers.jpg","37","0","711"
"4","4","encoding","encoding","49","ButterDish.jpg","37","0","750"
"4","4","encoding","encoding","50","Chest_Toys.jpg","37","0","741"
"4","4","encoding","encoding","51","Boxcutter.jpg","37","0","665"
"4","4","encoding","encoding","52","SoapDish.jpg","37","0","588"
"4","4","encoding","encoding","53","Dresser.jpg","37","0","538"
"4","4","encoding","encoding","54","Dreamcatcher.jpg","37","0","877"
"4","4","encoding","encoding","55","Tie.jpg","37","0","503"
"4","4","encoding","encoding","56","Pretzel_Knot.jpg","36","0","661"
"4","4","encoding","encoding","57","Makeup_Bag.jpg","37","0","847"
"4","4","encoding","encoding","58","Colander.jpg","37","0","657"
"4","4","encoding","encoding","59","DogHouse.jpg","37","0","923"
"4","4","encoding","encoding","60","Card_TwoSpade.jpg","37","0","629"
"4","4","encoding","encoding","62","Basket_Straw.jpg","36","0","1371"
"4","4","encoding","encoding","63","Hay.jpg","36","0","1094"
"4","4","encoding","encoding","64","Screw.jpg","37","0","608"
"4","4","encoding","encoding","65","Telephone_DialAntique.jpg","37","0","499"
"4","4","encoding","encoding","66","Domino.jpg","37","0","675"
"4","4","encoding","encoding","67","GutterAndDrainPipe.jpg","37","0","1025"
"4","4","encoding","encoding","68","Sled.jpg","37","0","512"
"4","4","encoding","encoding","69","Oven.jpg","37","0","512"
"4","4","encoding","encoding","70","ComputerKeyboard_F1.jpg","37","0","901"
"4","4","encoding","encoding","71","Sign_TrafficArrow.jpg","37","0","536"
"4","4","encoding","encoding","72","Weights_Dumbells.jpg","37","0","515"
"4","4","encoding","encoding","73","Sword.jpg","37","0","536"
"4","4","encoding","encoding","74","Toy_ModelMolecule.jpg","37","0","574"
"4","4","encoding","encoding","75","Sphinx.jpg","37","0","739"
"4","4","encoding","encoding","76","Crowbar.jpg","37","0","966"
"4","4","encoding","encoding","77","Saw.jpg","37","0","528"
"4","4","encoding","encoding","78","Toolbox_Old.jpg","37","0","615"
"4","4","encoding","encoding","79","Centrifuge.jpg","37","0","715"
"4","4","encoding","encoding","80","RollerCoaster.jpg","37","0","514"
"4","4","encoding","encoding","81","Phone_Wireless.jpg","37","0","536"
"4","4","encoding","encoding","82","AlarmSystem.jpg","37","0","531"
"4","4","encoding","encoding","83","Faucet.jpg","37","0","589"
"4","4","encoding","encoding","84","PenHolder.jpg","37","0","572"
"4","4","encoding","encoding","85","ContactLens.jpg","37","0","789"
"4","4","encoding","encoding","86","Magnet_Three.jpg","37","0","1125"
"4","4","encoding","encoding","87","Hammer_Reflex.jpg","37","0","635"
"4","4","encoding","encoding","88","PoliceTape.jpg","37","0","663"
"4","4","encoding","encoding","89","PaperStack.jpg","36","0","826"
"4","4","encoding","encoding","90","FileDivider.jpg","36","0","906"
"4","4","encoding","encoding","91","HairClipper.jpg","37","0","766"
"4","4","encoding","encoding","92","ChessPiece_Knight.jpg","37","0","1100"
"4","4","encoding","encoding","93","DrinkingFountain.jpg","37","0","648"
"4","4","encoding","encoding","94","Toy_TrailerAirport.jpg","37","0","554"
"4","4","encoding","encoding","95","Cane_Metal.jpg","37","0","537"
"4","4","encoding","encoding","96","Stamp.jpg","37","0","865"
"4","4","encoding","encoding","97","Dragonfly.jpg","36","0","645"
"4","4","encoding","encoding","98","ShowerCap.jpg","36","0","792"
"4","4","encoding","encoding","99","LitterScoop.jpg","37","0","599"
"4","4","encoding","encoding","100","Boardgame_ChineseCheckers.jpg","37","0","609"
"4","4","encoding","encoding","101","Cake_Birthday.jpg","37","0","791"
"4","4","encoding","encoding","102","Stove_Propane.jpg","37","0","572"
"4","4","encoding","encoding","103","Helmet_Construction.jpg","37","0","649"
"4","4","encoding","encoding","104","Mailbox_Antique.jpg","37","0","794"
"4","4","encoding","encoding","105","Bag_Gift.jpg","37","0","1049"
"4","4","encoding","encoding","106","Box_Floral.jpg","37","0","695"
"4","4","encoding","encoding","107","Toy_Tank.jpg","37","0","651"
"4","4","encoding","encoding","108","Bucket_Rusty.jpg","37","0","1246"
"4","4","encoding","encoding","109","Castle_Sand.jpg","36","0","1123"
"4","4","encoding","encoding","110","Stick_Drum.jpg","37","0","1414"
"4","4","encoding","encoding","111","RibbonSpool.jpg","37","0","700"
"4","4","encoding","encoding","112","Box_WoodCrate.jpg","37","0","1064"
"4","4","encoding","encoding","113","DoubleBass.jpg","37","0","788"
"4","4","encoding","encoding","114","GatedEntrance.jpg","37","0","593"
"4","4","encoding","encoding","115","HorseshoeCrab.jpg","36","0","884"
"4","4","encoding","encoding","116","Book_Leather.jpg","37","0","902"
"4","4","encoding","encoding","117","Stove_Camping.jpg","37","0","574"
"4","4","encoding","encoding","118","PumpBreast.jpg","37","0","964"
"4","4","encoding","encoding","119","Kebab_Meat.jpg","36","0","604"
"4","4","encoding","encoding","120","Boat_Ferry.jpg","37","0","687"
"4","4","encoding","encoding","121","Mask_CPR.jpg","37","0","828"
"4","4","encoding","encoding","123","HairClip.jpg","37","0","771"
"4","4","encoding","encoding","124","Dress_Blue.jpg","37","0","537"
"4","4","encoding","encoding","125","BadgeSpecialAgent.jpg","37","0","617"
"4","4","encoding","encoding","126","Jacket_Jean.jpg","37","0","1156"
"4","4","encoding","encoding","127","Glass_Ball.jpg","37","0","1292"
"4","4","encoding","encoding","128","Teapot.jpg","37","0","522"
"4","4","encoding","encoding","129","Mop.jpg","37","0","799"
"4","4","encoding","encoding","130","Cable_JumpStart.jpg","37","0","787"
"4","4","encoding","encoding","131","GrillRack.jpg","37","0","595"
"4","4","encoding","encoding","132","Canteen.jpg","37","0","699"
"4","4","encoding","encoding","133","MobilityScooter.jpg","37","0","537"
"4","4","encoding","encoding","134","PillBottle_Closed.jpg","37","0","820"
"4","4","encoding","encoding","135","Brush_Shaving.jpg","37","0","692"
"4","4","encoding","encoding","136","Jug_GallonWhite.jpg","37","0","573"
"4","4","encoding","encoding","137","NailPolish.jpg","37","0","742"
"4","4","encoding","encoding","138","Flashlight.jpg","37","0","590"
"4","4","encoding","encoding","139","Mat_Bamboo.jpg","37","0","1394"
"4","4","encoding","encoding","140","Gloves_WhiteKnit.jpg","37","0","941"
"4","4","encoding","encoding","141","CigarCase.jpg","37","0","906"
"4","4","encoding","encoding","142","ShoeLace_Flat.jpg","37","0","1136"
"4","4","encoding","encoding","143","Clock_Grandfather.jpg","37","0","493"
"4","4","encoding","encoding","144","Coral.jpg","36","0","714"
"4","4","encoding","encoding","145","TurkeyDinner.jpg","36","0","1182"
"4","4","encoding","encoding","146","Ball_Basketball.jpg","37","0","1244"
"4","4","encoding","encoding","147","Deodorant.jpg","37","0","1043"
"4","4","encoding","encoding","148","Mirror_Dental.jpg","37","0","1382"
"4","4","encoding","encoding","149","Lock_Key.jpg","37","0","540"
"4","4","encoding","encoding","150","Plate_Children.jpg","37","0","640"
"4","4","encoding","encoding","151","Kebab_Vegetables.jpg","36","0","775"
"4","4","encoding","encoding","152","Doll_Rag.jpg","37","0","649"
"4","4","encoding","encoding","153","GoldNugget.jpg","36","0","784"
"4","4","encoding","encoding","154","CasketOpen.jpg","37","0","510"
"4","4","encoding","encoding","155","Cabinet_Office.jpg","37","0","717"
"4","4","encoding","encoding","156","Bird_Hen.jpg","36","0","698"
"4","4","encoding","encoding","157","Tree_ChristmasMini.jpg","37","0","1534"
"4","4","encoding","encoding","158","Shorts_Plaid.jpg","37","0","819"
"4","4","encoding","encoding","159","Toy_Wooden rings.jpg","37","0","605"
"4","4","encoding","encoding","160","SpinalCord.jpg","36","0","692"
"4","4","encoding","encoding","161","Scroll.jpg","37","0","1650"
"4","4","encoding","encoding","162","Slippers.jpg","37","0","615"
"4","4","encoding","encoding","163","WateringCan_Antique.jpg","37","0","506"
"4","4","encoding","encoding","164","Jug_Wicker.jpg","37","0","1097"
"4","4","encoding","encoding","165","Socks_Baby.jpg","37","0","533"
"4","4","encoding","encoding","166","WatermelonSlice.jpg","36","0","699"
"4","4","encoding","encoding","167","Toy_JackInTheBox.jpg","37","0","549"
"4","4","encoding","encoding","168","Paddle_Beach.jpg","37","0","539"
"4","4","encoding","encoding","169","WashingMachine.jpg","37","0","482"
"4","4","encoding","encoding","170","Flowers_DryBouquet.jpg","37","0","1854"
"4","4","encoding","encoding","171","Umbrella_Retractable.jpg","37","0","669"
"4","4","encoding","encoding","172","Gameboy.jpg","37","0","501"
"4","4","encoding","encoding","173","Clothespin_Red.jpg","37","0","529"
"4","4","encoding","encoding","174","FireHydrant.jpg","37","0","559"
"4","4","encoding","encoding","175","Tray_Wooden.jpg","37","0","1175"
"4","4","encoding","encoding","176","MilkJug.jpg","37","0","907"
"4","4","encoding","encoding","177","Candleholder_Tall.jpg","37","0","691"
"4","4","retrieval","new_objects","1","Pliers_SlipJoint.jpg","36","0","1658"
"4","4","retrieval","old_objects","2","Brush_Shaving.jpg","37","0","928"
"4","4","retrieval","new_objects","3","LicensePlate.jpg","37","1","1117"
"4","4","retrieval","new_objects","4","Purse.jpg","37","1","981"
"4","4","retrieval","new_objects","5","CoolingFan_Engine.jpg","37","1","1483"
"4","4","retrieval","old_objects","6","Cup_Bathroom.jpg","36","1","1074"
"4","4","retrieval","old_objects","7","Chest_Toys.jpg","36","1","892"
"4","4","retrieval","new_objects","8","Handbag.jpg","37","1","733"
"4","4","retrieval","new_objects","9","Bag_PaperWithFlour.jpg","37","1","1423"
"4","4","retrieval","new_objects","10","Photocopier.jpg","37","1","1098"
"4","4","retrieval","old_objects","11","Pasta_Macaroni.jpg","36","1","826"
"4","4","retrieval","old_objects","12","Goat.jpg","36","1","877"
"4","4","retrieval","new_objects","13","Crutches.jpg","37","1","852"
"4","4","retrieval","new_objects","14","Carabiner_Orange.jpg","37","1","898"
"4","4","retrieval","old_objects","15","Plate_Children.jpg","36","1","769"
"4","4","retrieval","old_objects","16","Gloves_WhiteKnit.jpg","36","1","784"
"4","4","retrieval","old_objects","17","NailPolish.jpg","36","1","742"
"4","4","retrieval","old_objects","18","Kebab_Vegetables.jpg","36","1","730"
"4","4","retrieval","new_objects","19","Binoculars.jpg","37","1","795"
"4","4","retrieval","old_objects","20","Kebab_Meat.jpg","36","1","802"
"4","4","retrieval","new_objects","21","Tractor_Orange.jpg","37","1","854"
"4","4","retrieval","new_objects","22","Broccoli.jpg","37","1","1074"
"4","4","retrieval","old_objects","23","Phone_Wireless.jpg","37","0","1187"
"4","4","retrieval","old_objects","24","Basket_Straw.jpg","37","0","1140"
"4","4","retrieval","new_objects","25","Jar_Capers.jpg","37","1","1145"
"4","4","retrieval","old_objects","26","Switch_LightWhite.jpg","36","1","789"
"4","4","retrieval","old_objects","27","LitterScoop.jpg","37","0","1041"
"4","4","retrieval","new_objects","28","Archery_ArrowsBows.jpg","37","1","912"
"4","4","retrieval","new_objects","29","Blackboard.jpg","37","1","881"
"4","4","retrieval","new_objects","30","Shovel_Sandbox.jpg","37","1","810"
"4","4","retrieval","old_objects","31","Cable_JumpStart.jpg","36","1","803"
"4","4","retrieval","new_objects","32","TigerWhite.jpg","37","1","732"
"4","4","retrieval","old_objects","33","PumpBreast.jpg","36","1","810"
"4","4","retrieval","new_objects","34","GiftBow.jpg","37","1","791"
"4","4","retrieval","old_objects","35","Doll_Rag.jpg","36","1","761"
"4","4","retrieval","new_objects","36","Bed_QueenSize.jpg","37","1","670"
"4","4","retrieval","new_objects","37","Tray_Muffin.jpg","37","1","640"
"4","4","retrieval","new_objects","38","Box_WoodenOpen.jpg","37","1","957"
"4","4","retrieval","old_objects","39","Toy_Boat.jpg","36","1","1261"
"4","4","retrieval","old_objects","40","Cabinet_Display.jpg","36","1","1073"
"4","4","retrieval","new_objects","41","Bird_Budgie.jpg","37","1","863"
"4","4","retrieval","old_objects","42","ShoeLace_Flat.jpg","36","1","787"
"4","4","retrieval","new_objects","43","Microwave.jpg","36","0","926"
"4","4","retrieval","new_objects","44","Nuts_Walnut.jpg","37","1","1104"
"4","4","retrieval","new_objects","45","Clam.jpg","37","1","1051"
"4","4","retrieval","new_objects","46","Bells_Christmas.jpg","37","1","783"
"4","4","retrieval","new_objects","47","Flower_Basket.jpg","37","1","632"
"4","4","retrieval","new_objects","48","Sand.jpg","37","1","663"
"4","4","retrieval","new_objects","49","Bamboo.jpg","37","1","693"
"4","4","retrieval","old_objects","50","Toy_Ladybug.jpg","36","1","915"
"4","4","retrieval","old_objects","51","WashingMachine.jpg","36","1","1020"
"4","4","retrieval","old_objects","52","PassionFruit.jpg","36","1","762"
"4","4","retrieval","new_objects","53","Pillar.jpg","37","1","808"
"4","4","retrieval","old_objects","54","Toolbox_Old.jpg","36","1","771"
"4","4","retrieval","new_objects","55","Pricegun.jpg","37","1","779"
"4","4","retrieval","new_objects","56","Pen_Ballpoint.jpg","37","1","949"
"4","4","retrieval","old_objects","57","GutterAndDrainPipe.jpg","36","1","818"
"4","4","retrieval","old_objects","58","MilkJug.jpg","36","1","770"
"4","4","retrieval","new_objects","59","Can_MilkAntique.jpg","37","1","909"
"4","4","retrieval","new_objects","60","Lock_Combination.jpg","37","1","819"
"4","4","retrieval","old_objects","62","GrillRack.jpg","36","1","1059"
"4","4","retrieval","new_objects","63","Blanket.jpg","37","1","592"
"4","4","retrieval","old_objects","64","Sled.jpg","36","1","761"
"4","4","retrieval","old_objects","65","Dress_Party.jpg","36","1","759"
"4","4","retrieval","new_objects","66","Bird_Duck.jpg","37","1","767"
"4","4","retrieval","old_objects","67","Book_Leather.jpg","36","1","758"
"4","4","retrieval","old_objects","68","RibbonSpool.jpg","36","1","775"
"4","4","retrieval","old_objects","69","Scalpel.jpg","37","0","1114"
"4","4","retrieval","new_objects","70","Lynx.jpg","37","1","884"
"4","4","retrieval","old_objects","71","Jacket_Jean.jpg","36","1","750"
"4","4","retrieval","old_objects","72","Candleholder_Tall.jpg","36","1","874"
"4","4","retrieval","old_objects","73","Toy_TrailerAirport.jpg","37","0","1019"
"4","4","retrieval","old_objects","74","Bag_Gift.jpg","36","1","960"
"4","4","retrieval","new_objects","75","Bowl_Flour.jpg","37","1","1031"
"4","4","retrieval","old_objects","76","PoliceTape.jpg","36","1","886"
"4","4","retrieval","new_objects","77","Table_Magazine.jpg","37","1","726"
"4","4","retrieval","new_objects","78","WindowBlinds.jpg","37","1","791"
"4","4","retrieval","new_objects","79","Camel_Dromedary.jpg","37","1","757"
"4","4","retrieval","old_objects","80","NailFiles.jpg","36","1","1257"
"4","4","retrieval","old_objects","81","Sword.jpg","36","1","848"
"4","4","retrieval","new_objects","82","Exercise_Machine.jpg","37","1","1037"
"4","4","retrieval","new_objects","83","CodeDoorLock.jpg","37","1","741"
"4","4","retrieval","new_objects","84","Jar_Empty.jpg","37","1","716"
"4","4","retrieval","old_objects","85","Toy_Tank.jpg","37","0","989"
"4","4","retrieval","old_objects","86","Brush_Cleaning.jpg","36","1","883"
"4","4","retrieval","new_objects","87","IceScraper.jpg","37","1","777"
"4","4","retrieval","new_objects","88","House_CeramicGingerbread.jpg","37","1","712"
"4","4","retrieval","old_objects","89","Jug_GallonWhite.jpg","36","1","791"
"4","4","retrieval","old_objects","90","Sign_TrafficArrow.jpg","37","0","1093"
"4","4","retrieval","new_objects","91","Amp.jpg","37","1","741"
"4","4","retrieval","new_objects","92","Computer_CPU.jpg","37","1","681"
"4","4","retrieval","old_objects","93","StreetSweeper.jpg","37","0","736"
"4","4","retrieval","new_objects","94","JuicerCitrus.jpg","37","1","887"
"4","4","retrieval","new_objects","95","Walker_Blue.jpg","36","0","722"
"4","4","retrieval","old_objects","96","Lock_Key.jpg","37","0","862"
"4","4","retrieval","new_objects","97","Dart.jpg","36","0","830"
"4","4","retrieval","new_objects","98","Glass_Wine.jpg","37","1","1012"
"4","4","retrieval","old_objects","99","PenHolder.jpg","36","1","825"
"4","4","retrieval","new_objects","100","PulleyWooden.jpg","37","1","804"
"4","4","retrieval","old_objects","101","DogHouse.jpg","36","1","813"
"4","4","retrieval","old_objects","102","Panda.jpg","36","1","718"
"4","4","retrieval","old_objects","103","Deodorant.jpg","36","1","757"
"4","4","retrieval","old_objects","104","Telephone_DialAntique.jpg","36","1","1058"
"4","4","retrieval","old_objects","105","Dress_Blue.jpg","36","1","672"
"4","4","retrieval","new_objects","106","BusStop.jpg","37","1","679"
"4","4","retrieval","old_objects","107","Mirror_Dental.jpg","37","0","1058"
"4","4","retrieval","old_objects","108","GoldNugget.jpg","36","1","828"
"4","4","retrieval","new_objects","109","Pasta_Penne.jpg","36","0","695"
"4","4","retrieval","new_objects","110","PortaPotty.jpg","37","1","987"
"4","4","retrieval","new_objects","111","MortarPestle_WhiteMarble.jpg","37","1","917"
"4","4","retrieval","old_objects","112","Scroll.jpg","36","1","848"
"4","4","retrieval","new_objects","113","Microscope.jpg","37","1","945"
"4","4","retrieval","new_objects","114","Glasses_Reading.jpg","37","1","609"
"4","4","retrieval","new_objects","115","Figurine_Ballerina.jpg","37","1","740"
"4","4","retrieval","old_objects","116","Shorts_Plaid.jpg","36","1","890"
"4","4","retrieval","new_objects","117","Statue_Horse.jpg","37","1","787"
"4","4","retrieval","new_objects","118","Boot_Rain.jpg","37","1","841"
"4","4","retrieval","new_objects","119","AngleGrinder.jpg","37","1","723"
"4","4","retrieval","old_objects","120","Puzzle_Animal.jpg","36","1","824"
"4","4","retrieval","new_objects","121","Crown.jpg","37","1","894"
"4","4","retrieval","old_objects","123","Card_TwoSpade.jpg","36","1","1013"
"4","4","retrieval","old_objects","124","Makeup_Bag.jpg","36","1","875"
"4","4","retrieval","old_objects","125","Toy_JackInTheBox.jpg","36","1","781"
"4","4","retrieval","old_objects","126","Cake_Birthday.jpg","36","1","839"
"4","4","retrieval","new_objects","127","Lollipop_Grape.jpg","37","1","858"
"4","4","retrieval","old_objects","128","Box_Present.jpg","36","1","896"
"4","4","retrieval","new_objects","129","Candy_Chocolate.jpg","37","1","864"
"4","4","retrieval","old_objects","130","Dreamcatcher.jpg","36","1","917"
"4","4","retrieval","old_objects","131","Pretzel_Knot.jpg","36","1","899"
"4","4","retrieval","old_objects","132","WaterHeater.jpg","36","1","868"
"4","4","retrieval","new_objects","133","Toy_Motorcycle.jpg","37","1","783"
"4","4","retrieval","old_objects","134","Mop.jpg","36","1","973"
"4","4","retrieval","new_objects","135","Comb.jpg","37","1","904"
"4","4","retrieval","new_objects","136","Mailbox_Community.jpg","37","1","904"
"4","4","retrieval","new_objects","137","Toy_RabbitPlushie.jpg","37","1","913"
"4","4","retrieval","old_objects","138","CasketOpen.jpg","36","1","781"
"4","4","retrieval","new_objects","139","CarJack.jpg","37","1","725"
"4","4","retrieval","new_objects","140","Flags_CheckeredRacing.jpg","37","1","732"
"4","4","retrieval","old_objects","141","Saw.jpg","36","1","949"
"4","4","retrieval","old_objects","142","Barometer.jpg","36","1","935"
"4","4","retrieval","old_objects","143","Clothespin_Red.jpg","36","1","767"
"4","4","retrieval","new_objects","144","RecordPlayer.jpg","37","1","663"
"4","4","retrieval","old_objects","145","Sphinx.jpg","36","1","760"
"4","4","retrieval","old_objects","146","Castle_Sand.jpg","36","1","1758"
"4","4","retrieval","old_objects","147","Hoverboard.jpg","36","1","1194"
"4","4","retrieval","old_objects","148","Toy_ModelMolecule.jpg","36","1","839"
"4","4","retrieval","old_objects","149","Brush_BathBack.jpg","37","0","900"
"4","4","retrieval","old_objects","150","ContactLens.jpg","36","1","891"
"4","4","retrieval","new_objects","151","Clave.jpg","37","1","669"
"4","4","retrieval","new_objects","152","Decoration_ChristmasRed.jpg","37","1","902"
"4","4","retrieval","new_objects","153","StockingChristmas.jpg","37","1","656"
"4","4","retrieval","old_objects","154","Bucket_Rusty.jpg","37","0","852"
"4","4","retrieval","old_objects","155","Toy_Wooden rings.jpg","36","1","818"
"4","4","retrieval","old_objects","156","Dresser.jpg","36","1","838"
"4","4","retrieval","old_objects","157","DrinkingFountain.jpg","37","0","830"
"4","4","retrieval","new_objects","158","Calculator.jpg","37","1","1065"
"4","4","retrieval","new_objects","159","Shed.jpg","37","1","653"
"4","4","retrieval","old_objects","160","Stool_Wood.jpg","36","1","675"
"4","4","retrieval","old_objects","161","ShowerCap.jpg","36","1","799"
"4","4","retrieval","new_objects","162","Speaker_Single.jpg","37","1","760"
"4","4","retrieval","new_objects","163","Box_Jewellery.jpg","37","1","614"
"4","4","retrieval","new_objects","164","Nyala.jpg","37","1","564"
"4","4","retrieval","new_objects","165","Flower_Tulip.jpg","37","1","572"
"4","4","retrieval","new_objects","166","Car_Vintage.jpg","37","1","657"
"4","4","retrieval","old_objects","167","Teapot.jpg","37","0","622"
"4","4","retrieval","new_objects","168","Squid_Pink.jpg","37","1","1429"
"4","4","retrieval","new_objects","169","Ball_Baseball.jpg","37","1","661"
"4","4","retrieval","old_objects","170","Baster.jpg","36","1","855"
"4","4","retrieval","old_objects","171","DentalFloss.jpg","36","1","844"
"4","4","retrieval","old_objects","172","Stamp.jpg","36","1","891"
"4","4","retrieval","new_objects","173","Ball_8.jpg","37","1","618"
"4","4","retrieval","new_objects","174","Boat_Sail.jpg","37","1","1019"
"4","4","retrieval","old_objects","175","CigarCase.jpg","36","1","876"
"4","4","retrieval","new_objects","176","ClothesDryingRack.jpg","37","1","640"
"4","4","retrieval","old_objects","177","Boardgame_ChineseCheckers.jpg","36","1","679"
"4","4","retrieval","new_objects","178","PaperTowel_Brown.jpg","37","1","950"
"4","4","retrieval","new_objects","179","Radish.jpg","37","1","1065"
"4","4","retrieval","old_objects","180","Giraffe.jpg","37","0","927"
"4","4","retrieval","new_objects","181","ComputerKeyboard_Backspace.jpg","37","1","1741"
"4","4","retrieval","new_objects","182","Chair_Barber.jpg","37","1","668"
"4","4","retrieval","new_objects","184","CementFinisher.jpg","37","1","711"
"4","4","retrieval","new_objects","185","Sign_OneWay.jpg","37","1","708"
"4","4","retrieval","old_objects","186","WatermelonSlice.jpg","36","1","774"
"4","4","retrieval","old_objects","187","Glass_Ball.jpg","36","1","896"
"4","4","retrieval","new_objects","188","Squid_Orange.jpg","37","1","838"
"4","4","retrieval","new_objects","189","Bathtub.jpg","37","1","648"
"4","4","retrieval","new_objects","190","Cinnamonroll.jpg","37","1","711"
"4","4","retrieval","old_objects","191","RollerCoaster.jpg","37","0","1191"
"4","4","retrieval","new_objects","192","MonaLisa.jpg","37","1","712"
"4","4","retrieval","new_objects","193","Container_Tupperware.jpg","37","1","1003"
"4","4","retrieval","old_objects","194","PaintRollTray.jpg","37","0","643"
"4","4","retrieval","old_objects","195","SoapDish.jpg","36","1","924"
"4","4","retrieval","new_objects","196","Wreath.jpg","37","1","919"
"4","4","retrieval","new_objects","197","SpaceShuttle.jpg","37","1","1149"
"4","4","retrieval","old_objects","198","SpinalCord.jpg","36","1","1412"
"4","4","retrieval","old_objects","199","Cabinet_Office.jpg","37","0","690"
"4","4","retrieval","old_objects","200","HairClipper.jpg","37","0","906"
"4","4","retrieval","new_objects","201","Trophy.jpg","37","1","795"
"4","4","retrieval","old_objects","202","HorseshoeCrab.jpg","36","1","850"
"4","4","retrieval","new_objects","203","CoffeePot.jpg","37","1","933"
"4","4","retrieval","old_objects","204","DoubleBass.jpg","37","0","721"
"4","4","retrieval","new_objects","205","Oars.jpg","37","1","802"
"4","4","retrieval","new_objects","206","SlideViewer.jpg","37","1","782"
"4","4","retrieval","old_objects","207","Earring_Hoop.jpg","36","1","866"
"4","4","retrieval","new_objects","208","Crayon_Green.jpg","37","1","698"
"4","4","retrieval","old_objects","209","Faucet.jpg","36","1","1156"
"4","4","retrieval","new_objects","210","Bottle_CosmeticSpray.jpg","37","1","885"
"4","4","retrieval","old_objects","211","Spatula.jpg","36","1","779"
"4","4","retrieval","new_objects","212","OvenElement.jpg","37","1","722"
"4","4","retrieval","old_objects","213","PillBottle_Closed.jpg","36","1","851"
"4","4","retrieval","old_objects","214","Flashlight.jpg","37","0","804"
"4","4","retrieval","old_objects","215","Bagpipes.jpg","36","1","838"
"4","4","retrieval","new_objects","216","Table_AntiqueWooden.jpg","37","1","1062"
"4","4","retrieval","old_objects","217","Bird_Hen.jpg","36","1","726"
"4","4","retrieval","old_objects","218","ComputerKeyboard_F1.jpg","36","1","836"
"4","4","retrieval","old_objects","219","VGAport.jpg","36","1","807"
"4","4","retrieval","old_objects","220","CigarCutter.jpg","36","1","883"
"4","4","retrieval","new_objects","221","Pasta_Fettuccine.jpg","37","1","788"
"4","4","retrieval","old_objects","222","Mailbox_Antique.jpg","36","1","947"
"4","4","retrieval","new_objects","223","SkiPoles.jpg","37","1","743"
"4","4","retrieval","old_objects","224","Tree_ChristmasMini.jpg","36","1","790"
"4","4","retrieval","old_objects","225","White_Screen.jpg","0","0","2000"
"4","4","retrieval","old_objects","226","BadgeSpecialAgent.jpg","37","0","1421"
"4","4","retrieval","old_objects","227","Caterpillar.jpg","36","1","638"
"4","4","retrieval","new_objects","228","Phone_Flip.jpg","36","0","993"
"4","4","retrieval","new_objects","229","Toy_DollOffice.jpg","37","1","878"
"4","4","retrieval","old_objects","230","Gameboy.jpg","36","1","888"
"4","4","retrieval","new_objects","231","SelfieStick.jpg","37","1","959"
"4","4","retrieval","new_objects","232","Acorn.jpg","36","0","680"
"4","4","retrieval","new_objects","233","Pickaxe.jpg","37","1","667"
"4","4","retrieval","old_objects","234","MobilityScooter.jpg","36","1","885"
"4","4","retrieval","new_objects","235","Ball_Disco.jpg","37","1","816"
"4","4","retrieval","new_objects","236","Toy_DogBall.jpg","37","1","552"
"4","4","retrieval","new_objects","237","Box_Cutlery.jpg","37","1","626"
"4","4","retrieval","old_objects","238","PenStand.jpg","37","0","650"
"4","4","retrieval","new_objects","239","Squash_Butternut.jpg","37","1","888"
"4","4","retrieval","new_objects","240","Toy_RobotTransformer.jpg","37","1","736"
"4","4","retrieval","new_objects","241","Toy_Top.jpg","37","1","615"
"4","4","retrieval","new_objects","242","DrawingCompass.jpg","37","1","861"
"4","4","retrieval","new_objects","243","Yarmulke.jpg","37","1","672"
"4","4","retrieval","new_objects","245","FloorTile.jpg","37","1","895"
"4","4","retrieval","old_objects","246","Clock_Grandfather.jpg","36","1","701"
"4","4","retrieval","new_objects","247","Toy_Firetruck.jpg","37","1","708"
"4","4","retrieval","new_objects","248","Cactus.jpg","37","1","965"
"4","4","retrieval","old_objects","249","ButterDish.jpg","36","1","890"
"4","4","retrieval","old_objects","250","Paddle_Beach.jpg","36","1","856"
"4","4","retrieval","new_objects","251","Briefcase_Leather.jpg","37","1","677"
"4","4","retrieval","old_objects","252","Coral.jpg","36","1","767"
"4","4","retrieval","new_objects","253","Hook_Double.jpg","37","1","763"
"4","4","retrieval","new_objects","254","Lettuce_GreenLeaf.jpg","37","1","656"
"4","4","retrieval","new_objects","255","Scythe.jpg","37","1","860"
"4","4","retrieval","new_objects","256","Toy_FigurineEngineer.jpg","37","1","646"
"4","4","retrieval","old_objects","257","Shoe_Highheel.jpg","37","0","652"
"4","4","retrieval","old_objects","258","Gametable_AirHockey.jpg","37","0","702"
"4","4","retrieval","old_objects","259","Makeup_Mascara.jpg","36","1","727"
"4","4","retrieval","new_objects","260","JoustingSpear.jpg","37","1","805"
"4","4","retrieval","old_objects","261","Crowbar.jpg","37","0","847"
"4","4","retrieval","new_objects","262","CookieCutter_Bell.jpg","37","1","822"
"4","4","retrieval","old_objects","263","Toy_DinosaurBrontosaurus.jpg","36","1","700"
"4","4","retrieval","new_objects","264","Nametag.jpg","37","1","869"
"4","4","retrieval","old_objects","265","Paddle_PingPong.jpg","36","1","1051"
"4","4","retrieval","old_objects","266","Helmet_Knight.jpg","36","1","1111"
"4","4","retrieval","old_objects","267","Magnet_Three.jpg","36","1","619"
"4","4","retrieval","new_objects","268","Key_Car.jpg","37","1","624"
"4","4","retrieval","old_objects","269","Slippers.jpg","36","1","840"
"4","4","retrieval","old_objects","270","FileDivider.jpg","36","1","751"
"4","4","retrieval","old_objects","271","Crib_Standard.jpg","36","1","747"
"4","4","retrieval","new_objects","272","EyeChart.jpg","37","1","738"
"4","4","retrieval","old_objects","273","Box_WoodCrate.jpg","36","1","755"
"4","4","retrieval","new_objects","274","Cheesegrater_Box.jpg","37","1","838"
"4","4","retrieval","old_objects","275","Mask_CPR.jpg","36","1","1041"
"4","4","retrieval","old_objects","276","Canteen.jpg","36","1","899"
"4","4","retrieval","old_objects","277","Ball_Basketball.jpg","36","1","846"
"4","4","retrieval","old_objects","278","Clock_Radioalarm.jpg","36","1","1019"
"4","4","retrieval","old_objects","279","Seashell_AlternateTellin.jpg","36","1","595"
"4","4","retrieval","old_objects","280","Tray_Medical.jpg","36","1","944"
"4","4","retrieval","new_objects","281","Necklace_Black.jpg","37","1","611"
"4","4","retrieval","old_objects","282","HairClip.jpg","36","1","887"
"4","4","retrieval","old_objects","283","WateringCan_Antique.jpg","36","1","772"
"4","4","retrieval","old_objects","284","Helmet_Construction.jpg","37","0","701"
"4","4","retrieval","new_objects","285","ChewingGum.jpg","37","1","760"
"4","4","retrieval","new_objects","286","PaintCan.jpg","37","1","689"
"4","4","retrieval","old_objects","287","Dragonfly.jpg","37","0","716"
"4","4","retrieval","new_objects","288","HairCurler.jpg","37","1","752"
"4","4","retrieval","new_objects","289","DentalProbe.jpg","37","1","821"
"4","4","retrieval","new_objects","290","CameoPortrait.jpg","37","1","628"
"4","4","retrieval","old_objects","291","Umbrella_Retractable.jpg","37","0","678"
"4","4","retrieval","new_objects","292","CanOpener.jpg","37","1","732"
"4","4","retrieval","old_objects","293","Bleachers.jpg","36","1","817"
"4","4","retrieval","new_objects","294","Stick_Stirring.jpg","37","1","762"
"4","4","retrieval","new_objects","295","ShotGlassTray.jpg","37","1","741"
"4","4","retrieval","old_objects","296","ChessPiece_Knight.jpg","36","1","770"
"4","4","retrieval","old_objects","297","Domino.jpg","36","1","953"
"4","4","retrieval","old_objects","298","Box_Floral.jpg","36","1","702"
"4","4","retrieval","new_objects","299","BicyclePedal.jpg","37","1","648"
"4","4","retrieval","old_objects","300","Stove_Camping.jpg","37","0","926"
"4","4","retrieval","old_objects","301","Battery_Car.jpg","37","0","1008"
"4","4","retrieval","old_objects","302","Flowers_DryBouquet.jpg","36","1","779"
"4","4","retrieval","old_objects","303","Tray_Wooden.jpg","36","1","737"
"4","4","retrieval","old_objects","304","FireHydrant.jpg","36","1","952"
"4","4","retrieval","new_objects","306","Toy_TableSet.jpg","37","1","882"
"4","4","retrieval","old_objects","307","TurkeyDinner.jpg","36","1","958"
"4","4","retrieval","new_objects","308","Bucket_WoodenDark.jpg","37","1","968"
"4","4","retrieval","new_objects","309","Sandwich_Ham.jpg","37","1","627"
"4","4","retrieval","new_objects","310","CoffeeGrinder.jpg","37","1","634"
"4","4","retrieval","new_objects","311","Card_Deck.jpg","37","1","571"
"4","4","retrieval","new_objects","312","PaperShredder.jpg","37","1","533"
"4","4","retrieval","old_objects","313","Asparagus.jpg","36","1","710"
"4","4","retrieval","new_objects","314","Bowl_Pasta.jpg","37","1","934"
"4","4","retrieval","new_objects","315","Flamingo_Real.jpg","37","1","989"
"4","4","retrieval","old_objects","316","Hammer_Reflex.jpg","37","0","961"
"4","4","retrieval","new_objects","317","Beater_Electric.jpg","37","1","841"
"4","4","retrieval","new_objects","318","Bird_Eagle.jpg","37","1","929"
"4","4","retrieval","old_objects","319","Oven.jpg","36","1","639"
"4","4","retrieval","new_objects","320","Fruit_Orange.jpg","37","1","704"
"4","4","retrieval","new_objects","321","Mat_Car.jpg","37","1","618"
"4","4","retrieval","old_objects","322","Cane_Metal.jpg","36","1","1129"
"4","4","retrieval","old_objects","323","PaperStack.jpg","36","1","761"
"4","4","retrieval","old_objects","324","Boat_Ferry.jpg","36","1","792"
"4","4","retrieval","old_objects","325","Stove_Propane.jpg","37","0","723"
"4","4","retrieval","new_objects","326","Piano_Upright.jpg","37","1","837"
"4","4","retrieval","new_objects","327","LightBulb_Blue.jpg","37","1","810"
"4","4","retrieval","new_objects","328","Mask_Gas.jpg","37","1","754"
"4","4","retrieval","new_objects","329","Chopsticks.jpg","36","0","781"
"4","4","retrieval","new_objects","330","Mirror_Handheld.jpg","37","1","808"
"4","4","retrieval","old_objects","331","Jug_Wicker.jpg","36","1","1060"
"4","4","retrieval","old_objects","332","Boxcutter.jpg","36","1","910"
"4","4","retrieval","new_objects","333","Tube_Paint.jpg","37","1","661"
"4","4","retrieval","old_objects","334","AlarmSystem.jpg","37","0","997"
"4","4","retrieval","old_objects","335","Socks_Baby.jpg","36","1","723"
"4","4","retrieval","old_objects","336","Centrifuge.jpg","37","0","1043"
"4","4","retrieval","new_objects","337","NailClipper.jpg","37","1","960"
"4","4","retrieval","new_objects","338","Stingray.jpg","37","1","1096"
"4","4","retrieval","new_objects","339","RadioactiveContainer.jpg","37","1","582"
"4","4","retrieval","new_objects","340","Exercise_Stretch.jpg","37","1","785"
"4","4","retrieval","new_objects","341","Spear.jpg","37","1","805"
"4","4","retrieval","new_objects","342","Stick_IceHockey.jpg","37","1","789"
"4","4","retrieval","old_objects","343","Mat_Bamboo.jpg","36","1","668"
"4","4","retrieval","old_objects","344","Stick_Drum.jpg","36","1","1032"
"4","4","retrieval","new_objects","345","TailLight.jpg","37","1","865"
"4","4","retrieval","old_objects","346","Hay.jpg","36","1","642"
"4","4","retrieval","old_objects","347","Weights_Dumbells.jpg","36","1","750"
"4","4","retrieval","old_objects","348","Brace_Leg.jpg","36","1","830"
"4","4","retrieval","new_objects","349","ProcessorFood_Modern.jpg","37","1","839"
"4","4","retrieval","old_objects","350","Colander.jpg","37","0","742"
"4","4","retrieval","old_objects","351","Tie.jpg","36","1","686"
"4","4","retrieval","new_objects","352","Inukshuk.jpg","37","1","873"
"4","4","retrieval","old_objects","353","Screw.jpg","36","1","954"
"4","4","retrieval","old_objects","354","Tractor_Yellow.jpg","36","1","1058"
"4","4","retrieval","old_objects","355","GatedEntrance.jpg","36","1","657"
"4","4","demographics_block","gender","1","GatedEntrance.jpg","female","1","13336"
"4","4","demographics_block","age","1","GatedEntrance.jpg","59","1","13336"
"4","4","demographics_block","education","1","GatedEntrance.jpg","16","1","13336"
"4","4","demographics_block","left_right_handed","2","GatedEntrance.jpg","Right","1","7367"
"4","4","demographics_block","raceoption1","2","GatedEntrance.jpg","0","1","7367"
"4","4","demographics_block","raceoption2","2","GatedEntrance.jpg","","1","7367"
"4","4","demographics_block","raceoption3","2","GatedEntrance.jpg","","1","7367"
"4","4","demographics_block","raceoption4","2","GatedEntrance.jpg","","1","7367"
"4","4","demographics_block","raceoption5","2","GatedEntrance.jpg","","1","7367"
"4","4","demographics_block","raceoption6","2","GatedEntrance.jpg","","1","7367"
"4","4","demographics_block","raceoption7","2","GatedEntrance.jpg","","1","7367"
"4","4","demographics_block","raceoption8","2","GatedEntrance.jpg","","1","7367"
"4","4","demographics_block","raceoption9","2","GatedEntrance.jpg","","1","7367"
"4","4","demographics_block","raceother","2","GatedEntrance.jpg","","1","7367"
"4","4","demographics_block","raceother","2","GatedEntrance.jpg","","1","7367"
"4","4","demographics_block","english_language","2","GatedEntrance.jpg","Yes","1","7367"
"4","4","demographics_block","english_languageother","2","GatedEntrance.jpg","","1","7367"
"4","4","demographics_block","eyesight","3","GatedEntrance.jpg","Yes","1","4995"
"4","4","demographics_block","colorblind","3","GatedEntrance.jpg","No","1","4995"
"4","4","worker_id_block","worker_id_textbox","1","GatedEntrance.jpg","A2KROBPV0YPE4A","1","5253"
"5","5","encoding","encoding","1","Switch_LightWhite.jpg","37","0","1179"
"5","5","encoding","encoding","2","PenHolder.jpg","37","0","1336"
"5","5","encoding","encoding","3","Cake_Birthday.jpg","37","0","1252"
"5","5","encoding","encoding","4","Paddle_Beach.jpg","37","0","849"
"5","5","encoding","encoding","5","Bucket_Rusty.jpg","37","0","1310"
"5","5","encoding","encoding","6","Dress_Party.jpg","37","0","898"
"5","5","encoding","encoding","7","Brace_Leg.jpg","37","0","1247"
"5","5","encoding","encoding","8","NailPolish.jpg","37","0","1099"
"5","5","encoding","encoding","9","Helmet_Construction.jpg","37","0","841"
"5","5","encoding","encoding","10","Hammer_Reflex.jpg","37","0","861"
"5","5","encoding","encoding","11","MobilityScooter.jpg","37","0","849"
"5","5","encoding","encoding","12","Clock_Radioalarm.jpg","37","0","822"
"5","5","encoding","encoding","13","White_Screen.jpg","0","0","2000"
"5","5","encoding","encoding","14","Lock_Key.jpg","37","0","951"
"5","5","encoding","encoding","15","Deodorant.jpg","37","0","1164"
"5","5","encoding","encoding","16","Telephone_DialAntique.jpg","37","0","785"
"5","5","encoding","encoding","17","Plate_Children.jpg","37","0","813"
"5","5","encoding","encoding","18","Puzzle_Animal.jpg","37","0","1242"
"5","5","encoding","encoding","19","Boat_Ferry.jpg","37","0","567"
"5","5","encoding","encoding","20","PoliceTape.jpg","37","0","755"
"5","5","encoding","encoding","21","RibbonSpool.jpg","37","0","608"
"5","5","encoding","encoding","22","Weights_Dumbells.jpg","37","0","669"
"5","5","encoding","encoding","23","Toolbox_Old.jpg","37","0","993"
"5","5","encoding","encoding","24","Goat.jpg","36","0","1559"
"5","5","encoding","encoding","25","WatermelonSlice.jpg","36","0","1123"
"5","5","encoding","encoding","26","SoapDish.jpg","37","0","911"
"5","5","encoding","encoding","27","DentalFloss.jpg","37","0","988"
"5","5","encoding","encoding","28","RollerCoaster.jpg","37","0","769"
"5","5","encoding","encoding","29","Gametable_AirHockey.jpg","37","0","765"
"5","5","encoding","encoding","30","Toy_ModelMolecule.jpg","37","0","1234"
"5","5","encoding","encoding","31","Cable_JumpStart.jpg","37","0","895"
"5","5","encoding","encoding","32","HairClipper.jpg","37","0","811"
"5","5","encoding","encoding","33","PassionFruit.jpg","36","0","1464"
"5","5","encoding","encoding","34","Mat_Bamboo.jpg","37","0","829"
"5","5","encoding","encoding","35","PaintRollTray.jpg","37","0","1049"
"5","5","encoding","encoding","36","Tree_ChristmasMini.jpg","37","0","910"
"5","5","encoding","encoding","37","NailFiles.jpg","37","0","1203"
"5","5","encoding","encoding","38","Domino.jpg","37","0","1287"
"5","5","encoding","encoding","39","Tractor_Yellow.jpg","37","0","676"
"5","5","encoding","encoding","40","ChessPiece_Knight.jpg","37","0","793"
"5","5","encoding","encoding","41","Saw.jpg","37","0","1157"
"5","5","encoding","encoding","42","Bag_Gift.jpg","37","0","1530"
"5","5","encoding","encoding","43","Magnet_Three.jpg","37","0","831"
"5","5","encoding","encoding","44","Tray_Medical.jpg","37","0","851"
"5","5","encoding","encoding","45","Mailbox_Antique.jpg","37","0","1568"
"5","5","encoding","encoding","46","DrinkingFountain.jpg","37","0","733"
"5","5","encoding","encoding","47","BadgeSpecialAgent.jpg","37","0","833"
"5","5","encoding","encoding","48","Book_Leather.jpg","37","0","1014"
"5","5","encoding","encoding","49","LitterScoop.jpg","37","0","691"
"5","5","encoding","encoding","50","Scalpel.jpg","37","0","943"
"5","5","encoding","encoding","51","ShoeLace_Flat.jpg","37","0","972"
"5","5","encoding","encoding","52","Dresser.jpg","37","0","681"
"5","5","encoding","encoding","53","Shorts_Plaid.jpg","37","0","453"
"5","5","encoding","encoding","54","Stamp.jpg","37","0","1090"
"5","5","encoding","encoding","55","Candleholder_Tall.jpg","37","0","975"
"5","5","encoding","encoding","56","Gloves_WhiteKnit.jpg","37","0","875"
"5","5","encoding","encoding","57","Tray_Wooden.jpg","37","0","872"
"5","5","encoding","encoding","58","Box_Present.jpg","37","0","845"
"5","5","encoding","encoding","59","Boxcutter.jpg","37","0","809"
"5","5","encoding","encoding","60","Basket_Straw.jpg","37","0","758"
"5","5","encoding","encoding","62","Umbrella_Retractable.jpg","37","0","783"
"5","5","encoding","encoding","63","Doll_Rag.jpg","37","0","652"
"5","5","encoding","encoding","64","Stove_Camping.jpg","37","0","681"
"5","5","encoding","encoding","65","Cabinet_Office.jpg","37","0","750"
"5","5","encoding","encoding","66","Barometer.jpg","37","0","706"
"5","5","encoding","encoding","67","AlarmSystem.jpg","37","0","799"
"5","5","encoding","encoding","68","Baster.jpg","37","0","828"
"5","5","encoding","encoding","69","CasketOpen.jpg","37","0","840"
"5","5","encoding","encoding","70","Oven.jpg","37","0","845"
"5","5","encoding","encoding","71","Bleachers.jpg","37","0","817"
"5","5","encoding","encoding","72","Dragonfly.jpg","36","0","1262"
"5","5","encoding","encoding","73","Stove_Propane.jpg","37","0","1195"
"5","5","encoding","encoding","74","Teapot.jpg","37","0","1063"
"5","5","encoding","encoding","75","DoubleBass.jpg","37","0","1028"
"5","5","encoding","encoding","76","Caterpillar.jpg","36","0","953"
"5","5","encoding","encoding","77","PillBottle_Closed.jpg","37","0","942"
"5","5","encoding","encoding","78","Bagpipes.jpg","37","0","730"
"5","5","encoding","encoding","79","Clock_Grandfather.jpg","37","0","759"
"5","5","encoding","encoding","80","Box_Floral.jpg","37","0","795"
"5","5","encoding","encoding","81","Kebab_Vegetables.jpg","36","0","1480"
"5","5","encoding","encoding","82","ButterDish.jpg","37","0","1349"
"5","5","encoding","encoding","83","Makeup_Bag.jpg","37","0","1354"
"5","5","encoding","encoding","84","Tie.jpg","37","0","1182"
"5","5","encoding","encoding","85","Colander.jpg","37","0","1515"
"5","5","encoding","encoding","86","Toy_Boat.jpg","37","0","855"
"5","5","encoding","encoding","87","Pasta_Macaroni.jpg","37","0","1916"
"5","5","encoding","encoding","88","Brush_Shaving.jpg","37","0","1001"
"5","5","encoding","encoding","89","Jug_GallonWhite.jpg","37","0","893"
"5","5","encoding","encoding","90","Toy_JackInTheBox.jpg","37","0","738"
"5","5","encoding","encoding","91","Cabinet_Display.jpg","37","0","743"
"5","5","encoding","encoding","92","Sled.jpg","37","0","604"
"5","5","encoding","encoding","93","Toy_Ladybug.jpg","37","0","856"
"5","5","encoding","encoding","94","Kebab_Meat.jpg","36","0","1861"
"5","5","encoding","encoding","95","Glass_Ball.jpg","37","0","1049"
"5","5","encoding","encoding","96","Shoe_Highheel.jpg","37","0","702"
"5","5","encoding","encoding","97","Battery_Car.jpg","37","0","635"
"5","5","encoding","encoding","98","Seashell_AlternateTellin.jpg","37","0","624"
"5","5","encoding","encoding","99","TurkeyDinner.jpg","36","0","1756"
"5","5","encoding","encoding","100","Phone_Wireless.jpg","37","0","1073"
"5","5","encoding","encoding","101","Flowers_DryBouquet.jpg","37","0","1174"
"5","5","encoding","encoding","102","Makeup_Mascara.jpg","37","0","938"
"5","5","encoding","encoding","103","Helmet_Knight.jpg","37","0","1471"
"5","5","encoding","encoding","104","Box_WoodCrate.jpg","37","0","1227"
"5","5","encoding","encoding","105","Mask_CPR.jpg","37","0","952"
"5","5","encoding","encoding","106","Dreamcatcher.jpg","37","0","1437"
"5","5","encoding","encoding","107","Earring_Hoop.jpg","37","0","993"
"5","5","encoding","encoding","108","Stick_Drum.jpg","37","0","958"
"5","5","encoding","encoding","109","PenStand.jpg","37","0","907"
"5","5","encoding","encoding","110","FileDivider.jpg","37","0","919"
"5","5","encoding","encoding","111","Paddle_PingPong.jpg","37","0","860"
"5","5","encoding","encoding","112","ShowerCap.jpg","37","0","809"
"5","5","encoding","encoding","113","Castle_Sand.jpg","37","0","861"
"5","5","encoding","encoding","114","Socks_Baby.jpg","37","0","1194"
"5","5","encoding","encoding","115","FireHydrant.jpg","37","0","1191"
"5","5","encoding","encoding","116","Pretzel_Knot.jpg","36","0","1635"
"5","5","encoding","encoding","117","Toy_Wooden rings.jpg","37","0","952"
"5","5","encoding","encoding","118","Hoverboard.jpg","37","0","821"
"5","5","encoding","encoding","119","GoldNugget.jpg","37","0","777"
"5","5","encoding","encoding","120","Crib_Standard.jpg","37","0","766"
"5","5","encoding","encoding","121","ComputerKeyboard_F1.jpg","37","0","923"
"5","5","encoding","encoding","123","ContactLens.jpg","37","0","1126"
"5","5","encoding","encoding","124","Jug_Wicker.jpg","37","0","906"
"5","5","encoding","encoding","125","WashingMachine.jpg","37","0","591"
"5","5","encoding","encoding","126","GrillRack.jpg","37","0","483"
"5","5","encoding","encoding","127","Stool_Wood.jpg","37","0","448"
"5","5","encoding","encoding","128","Canteen.jpg","37","0","637"
"5","5","encoding","encoding","129","Mop.jpg","37","0","689"
"5","5","encoding","encoding","130","StreetSweeper.jpg","37","0","638"
"5","5","encoding","encoding","131","Centrifuge.jpg","37","0","1067"
"5","5","encoding","encoding","132","Boardgame_ChineseCheckers.jpg","37","0","784"
"5","5","encoding","encoding","133","Sign_TrafficArrow.jpg","37","0","1204"
"5","5","encoding","encoding","134","GutterAndDrainPipe.jpg","37","0","657"
"5","5","encoding","encoding","135","Jacket_Jean.jpg","37","0","997"
"5","5","encoding","encoding","136","Sword.jpg","37","0","1002"
"5","5","encoding","encoding","137","Giraffe.jpg","36","0","751"
"5","5","encoding","encoding","138","Spatula.jpg","37","0","891"
"5","5","encoding","encoding","139","CigarCutter.jpg","37","0","632"
"5","5","encoding","encoding","140","GatedEntrance.jpg","37","0","1605"
"5","5","encoding","encoding","141","Dress_Blue.jpg","37","0","681"
"5","5","encoding","encoding","142","Coral.jpg","37","0","918"
"5","5","encoding","encoding","143","Brush_BathBack.jpg","37","0","1427"
"5","5","encoding","encoding","144","Screw.jpg","37","0","831"
"5","5","encoding","encoding","145","Crowbar.jpg","37","0","948"
"5","5","encoding","encoding","146","Brush_Cleaning.jpg","37","0","745"
"5","5","encoding","encoding","147","Gameboy.jpg","37","0","1045"
"5","5","encoding","encoding","148","Bird_Hen.jpg","36","0","994"
"5","5","encoding","encoding","149","Cup_Bathroom.jpg","37","0","679"
"5","5","encoding","encoding","150","Faucet.jpg","37","0","731"
"5","5","encoding","encoding","151","Toy_DinosaurBrontosaurus.jpg","37","0","1136"
"5","5","encoding","encoding","152","VGAport.jpg","37","0","669"
"5","5","encoding","encoding","153","Flashlight.jpg","37","0","609"
"5","5","encoding","encoding","154","Clothespin_Red.jpg","37","0","582"
"5","5","encoding","encoding","155","WaterHeater.jpg","37","0","803"
"5","5","encoding","encoding","156","Asparagus.jpg","36","0","991"
"5","5","encoding","encoding","157","Cane_Metal.jpg","37","0","964"
"5","5","encoding","encoding","158","MilkJug.jpg","37","0","1073"
"5","5","encoding","encoding","159","Hay.jpg","36","0","1022"
"5","5","encoding","encoding","160","Toy_Tank.jpg","37","0","906"
"5","5","encoding","encoding","161","Slippers.jpg","37","0","655"
"5","5","encoding","encoding","162","HorseshoeCrab.jpg","37","0","979"
"5","5","encoding","encoding","163","Sphinx.jpg","37","0","1400"
"5","5","encoding","encoding","164","Card_TwoSpade.jpg","37","0","853"
"5","5","encoding","encoding","165","DogHouse.jpg","37","0","1121"
"5","5","encoding","encoding","166","Chest_Toys.jpg","37","0","942"
"5","5","encoding","encoding","167","Panda.jpg","36","0","987"
"5","5","encoding","encoding","168","HairClip.jpg","37","0","824"
"5","5","encoding","encoding","169","Ball_Basketball.jpg","37","0","1340"
"5","5","encoding","encoding","170","Toy_TrailerAirport.jpg","37","0","897"
"5","5","encoding","encoding","171","PaperStack.jpg","37","0","1038"
"5","5","encoding","encoding","172","Scroll.jpg","37","0","810"
"5","5","encoding","encoding","173","CigarCase.jpg","37","0","951"
"5","5","encoding","encoding","174","SpinalCord.jpg","36","0","1499"
"5","5","encoding","encoding","175","PumpBreast.jpg","37","0","1160"
"5","5","encoding","encoding","176","Mirror_Dental.jpg","37","0","1269"
"5","5","encoding","encoding","177","WateringCan_Antique.jpg","37","0","986"
"5","5","retrieval","new_objects","1","Carabiner_Orange.jpg","37","1","1865"
"5","5","retrieval","old_objects","2","CasketOpen.jpg","37","0","1419"
"5","5","retrieval","old_objects","3","ButterDish.jpg","37","0","743"
"5","5","retrieval","new_objects","4","BusStop.jpg","37","1","703"
"5","5","retrieval","new_objects","5","Hook_Double.jpg","37","1","792"
"5","5","retrieval","old_objects","6","Battery_Car.jpg","37","0","1070"
"5","5","retrieval","old_objects","7","PaperStack.jpg","36","1","712"
"5","5","retrieval","old_objects","8","Jacket_Jean.jpg","36","1","809"
"5","5","retrieval","old_objects","9","Weights_Dumbells.jpg","36","1","662"
"5","5","retrieval","new_objects","10","Camel_Dromedary.jpg","37","1","849"
"5","5","retrieval","old_objects","11","Toy_Boat.jpg","36","1","949"
"5","5","retrieval","new_objects","12","Bird_Eagle.jpg","37","1","739"
"5","5","retrieval","new_objects","13","Chopsticks.jpg","37","1","1067"
"5","5","retrieval","old_objects","14","StreetSweeper.jpg","37","0","1869"
"5","5","retrieval","old_objects","15","Cane_Metal.jpg","36","1","870"
"5","5","retrieval","old_objects","16","Earring_Hoop.jpg","36","1","753"
"5","5","retrieval","old_objects","17","PassionFruit.jpg","36","1","712"
"5","5","retrieval","new_objects","18","CoffeeGrinder.jpg","37","1","737"
"5","5","retrieval","old_objects","19","Makeup_Bag.jpg","37","0","1065"
"5","5","retrieval","old_objects","20","Hay.jpg","36","1","715"
"5","5","retrieval","new_objects","21","Nyala.jpg","37","1","1100"
"5","5","retrieval","new_objects","22","Toy_Firetruck.jpg","37","1","749"
"5","5","retrieval","old_objects","23","ContactLens.jpg","37","0","901"
"5","5","retrieval","old_objects","24","Bagpipes.jpg","36","1","781"
"5","5","retrieval","new_objects","25","Toy_FigurineEngineer.jpg","37","1","779"
"5","5","retrieval","old_objects","26","Clothespin_Red.jpg","36","1","858"
"5","5","retrieval","new_objects","27","ClothesDryingRack.jpg","37","1","629"
"5","5","retrieval","new_objects","28","LightBulb_Blue.jpg","37","1","737"
"5","5","retrieval","old_objects","29","White_Screen.jpg","0","0","2000"
"5","5","retrieval","new_objects","30","SkiPoles.jpg","37","1","1093"
"5","5","retrieval","old_objects","31","Tray_Medical.jpg","37","0","1614"
"5","5","retrieval","new_objects","32","PulleyWooden.jpg","37","1","875"
"5","5","retrieval","new_objects","33","Archery_ArrowsBows.jpg","37","1","885"
"5","5","retrieval","new_objects","34","Mat_Car.jpg","37","1","1471"
"5","5","retrieval","old_objects","35","Switch_LightWhite.jpg","36","1","1017"
"5","5","retrieval","new_objects","36","AngleGrinder.jpg","37","1","637"
"5","5","retrieval","new_objects","37","DentalProbe.jpg","37","1","745"
"5","5","retrieval","old_objects","38","WashingMachine.jpg","37","0","1096"
"5","5","retrieval","old_objects","39","Faucet.jpg","37","0","994"
"5","5","retrieval","old_objects","40","Sign_TrafficArrow.jpg","36","1","927"
"5","5","retrieval","new_objects","41","Decoration_ChristmasRed.jpg","37","1","951"
"5","5","retrieval","new_objects","42","Mask_Gas.jpg","37","1","646"
"5","5","retrieval","new_objects","43","Flags_CheckeredRacing.jpg","37","1","778"
"5","5","retrieval","new_objects","44","Container_Tupperware.jpg","37","1","689"
"5","5","retrieval","old_objects","45","Basket_Straw.jpg","36","1","731"
"5","5","retrieval","old_objects","46","Spatula.jpg","36","1","1083"
"5","5","retrieval","new_objects","47","WindowBlinds.jpg","37","1","948"
"5","5","retrieval","new_objects","48","Lynx.jpg","37","1","891"
"5","5","retrieval","new_objects","49","Statue_Horse.jpg","37","1","757"
"5","5","retrieval","old_objects","50","Scalpel.jpg","37","0","1300"
"5","5","retrieval","new_objects","51","EyeChart.jpg","37","1","773"
"5","5","retrieval","old_objects","52","Giraffe.jpg","36","1","875"
"5","5","retrieval","new_objects","53","Clam.jpg","37","1","853"
"5","5","retrieval","new_objects","54","Car_Vintage.jpg","37","1","1217"
"5","5","retrieval","new_objects","55","Nuts_Walnut.jpg","37","1","692"
"5","5","retrieval","new_objects","56","Toy_DogBall.jpg","37","1","678"
"5","5","retrieval","old_objects","57","Teapot.jpg","37","0","849"
"5","5","retrieval","old_objects","58","Goat.jpg","37","0","1428"
"5","5","retrieval","new_objects","59","Blanket.jpg","37","1","1408"
"5","5","retrieval","new_objects","60","BicyclePedal.jpg","37","1","1101"
"5","5","retrieval","old_objects","62","Phone_Wireless.jpg","37","0","873"
"5","5","retrieval","old_objects","63","Cabinet_Display.jpg","37","0","700"
"5","5","retrieval","new_objects","64","Bird_Duck.jpg","37","1","757"
"5","5","retrieval","old_objects","65","FileDivider.jpg","36","1","772"
"5","5","retrieval","old_objects","66","Lock_Key.jpg","36","1","938"
"5","5","retrieval","new_objects","67","Calculator.jpg","37","1","866"
"5","5","retrieval","old_objects","68","Coral.jpg","36","1","1100"
"5","5","retrieval","old_objects","69","Centrifuge.jpg","36","1","749"
"5","5","retrieval","new_objects","70","Beater_Electric.jpg","37","1","652"
"5","5","retrieval","new_objects","71","Bottle_CosmeticSpray.jpg","37","1","639"
"5","5","retrieval","old_objects","72","Toolbox_Old.jpg","37","0","851"
"5","5","retrieval","old_objects","73","SpinalCord.jpg","36","1","894"
"5","5","retrieval","new_objects","74","Blackboard.jpg","37","1","920"
"5","5","retrieval","new_objects","75","Tray_Muffin.jpg","37","1","744"
"5","5","retrieval","old_objects","76","Kebab_Vegetables.jpg","36","1","880"
"5","5","retrieval","new_objects","77","Inukshuk.jpg","37","1","1218"
"5","5","retrieval","new_objects","78","Table_Magazine.jpg","37","1","678"
"5","5","retrieval","old_objects","79","NailPolish.jpg","36","1","776"
"5","5","retrieval","old_objects","80","Gloves_WhiteKnit.jpg","36","1","719"
"5","5","retrieval","new_objects","81","Oars.jpg","37","1","1176"
"5","5","retrieval","old_objects","82","Kebab_Meat.jpg","36","1","957"
"5","5","retrieval","new_objects","83","Bathtub.jpg","37","1","909"
"5","5","retrieval","new_objects","84","Handbag.jpg","36","0","1181"
"5","5","retrieval","new_objects","85","SlideViewer.jpg","37","1","971"
"5","5","retrieval","new_objects","86","Boot_Rain.jpg","37","1","609"
"5","5","retrieval","old_objects","87","Canteen.jpg","37","0","894"
"5","5","retrieval","old_objects","88","Oven.jpg","37","0","984"
"5","5","retrieval","old_objects","89","Stove_Propane.jpg","36","1","1613"
"5","5","retrieval","old_objects","90","VGAport.jpg","36","1","794"
"5","5","retrieval","old_objects","91","Sword.jpg","37","0","815"
"5","5","retrieval","new_objects","92","House_CeramicGingerbread.jpg","37","1","708"
"5","5","retrieval","old_objects","93","Bird_Hen.jpg","36","1","957"
"5","5","retrieval","new_objects","94","Pliers_SlipJoint.jpg","37","1","1332"
"5","5","retrieval","new_objects","95","Sand.jpg","37","1","739"
"5","5","retrieval","new_objects","96","ShotGlassTray.jpg","37","1","643"
"5","5","retrieval","new_objects","97","Speaker_Single.jpg","37","1","591"
"5","5","retrieval","old_objects","98","WateringCan_Antique.jpg","37","0","805"
"5","5","retrieval","old_objects","99","Baster.jpg","37","0","1154"
"5","5","retrieval","old_objects","100","Stove_Camping.jpg","37","0","784"
"5","5","retrieval","new_objects","101","Spear.jpg","37","1","654"
"5","5","retrieval","old_objects","102","Sphinx.jpg","36","1","770"
"5","5","retrieval","old_objects","103","Box_WoodCrate.jpg","36","1","832"
"5","5","retrieval","old_objects","104","Stamp.jpg","36","1","692"
"5","5","retrieval","new_objects","105","Nametag.jpg","37","1","806"
"5","5","retrieval","new_objects","106","ChewingGum.jpg","37","1","987"
"5","5","retrieval","new_objects","107","CarJack.jpg","37","1","800"
"5","5","retrieval","old_objects","108","Toy_Ladybug.jpg","36","1","790"
"5","5","retrieval","old_objects","109","Gametable_AirHockey.jpg","36","1","707"
"5","5","retrieval","old_objects","110","CigarCase.jpg","36","1","644"
"5","5","retrieval","old_objects","111","Helmet_Knight.jpg","36","1","616"
"5","5","retrieval","old_objects","112","DoubleBass.jpg","37","0","949"
"5","5","retrieval","new_objects","113","Toy_RabbitPlushie.jpg","37","1","860"
"5","5","retrieval","new_objects","114","Pillar.jpg","37","1","727"
"5","5","retrieval","old_objects","115","Glass_Ball.jpg","37","0","719"
"5","5","retrieval","new_objects","116","Amp.jpg","37","1","767"
"5","5","retrieval","new_objects","117","GiftBow.jpg","37","1","814"
"5","5","retrieval","old_objects","118","Scroll.jpg","36","1","787"
"5","5","retrieval","old_objects","119","Seashell_AlternateTellin.jpg","36","1","993"
"5","5","retrieval","new_objects","120","HairCurler.jpg","37","1","806"
"5","5","retrieval","new_objects","121","Mirror_Handheld.jpg","36","0","1835"
"5","5","retrieval","old_objects","123","Dress_Party.jpg","37","0","1077"
"5","5","retrieval","old_objects","124","GoldNugget.jpg","36","1","767"
"5","5","retrieval","new_objects","125","OvenElement.jpg","37","1","1590"
"5","5","retrieval","new_objects","126","CoffeePot.jpg","37","1","939"
"5","5","retrieval","new_objects","127","Bird_Budgie.jpg","37","1","930"
"5","5","retrieval","new_objects","128","Box_WoodenOpen.jpg","37","1","803"
"5","5","retrieval","new_objects","129","Mailbox_Community.jpg","37","1","824"
"5","5","retrieval","new_objects","130","Ball_8.jpg","37","1","1028"
"5","5","retrieval","new_objects","131","Fruit_Orange.jpg","37","1","848"
"5","5","retrieval","new_objects","132","CanOpener.jpg","37","1","763"
"5","5","retrieval","new_objects","133","Pasta_Fettuccine.jpg","37","1","802"
"5","5","retrieval","old_objects","134","Asparagus.jpg","36","1","1151"
"5","5","retrieval","new_objects","135","Squash_Butternut.jpg","37","1","854"
"5","5","retrieval","new_objects","136","Pricegun.jpg","37","1","865"
"5","5","retrieval","old_objects","137","Toy_Wooden rings.jpg","36","1","860"
"5","5","retrieval","new_objects","138","NailClipper.jpg","37","1","1015"
"5","5","retrieval","old_objects","139","Toy_ModelMolecule.jpg","36","1","972"
"5","5","retrieval","new_objects","140","ProcessorFood_Modern.jpg","37","1","842"
"5","5","retrieval","old_objects","141","ChessPiece_Knight.jpg","36","1","918"
"5","5","retrieval","old_objects","142","Screw.jpg","37","0","910"
"5","5","retrieval","new_objects","143","Flamingo_Real.jpg","37","1","887"
"5","5","retrieval","old_objects","144","Brace_Leg.jpg","36","1","913"
"5","5","retrieval","new_objects","145","CameoPortrait.jpg","37","1","938"
"5","5","retrieval","old_objects","146","Jug_Wicker.jpg","37","0","1105"
"5","5","retrieval","old_objects","147","Paddle_PingPong.jpg","36","1","970"
"5","5","retrieval","new_objects","148","Glass_Wine.jpg","37","1","944"
"5","5","retrieval","new_objects","149","Clave.jpg","37","1","1000"
"5","5","retrieval","old_objects","150","Tray_Wooden.jpg","37","0","917"
"5","5","retrieval","new_objects","151","Card_Deck.jpg","37","1","901"
"5","5","retrieval","old_objects","152","DogHouse.jpg","36","1","958"
"5","5","retrieval","new_objects","153","Box_Jewellery.jpg","37","1","893"
"5","5","retrieval","new_objects","154","Glasses_Reading.jpg","37","1","958"
"5","5","retrieval","new_objects","155","Bamboo.jpg","37","1","1533"
"5","5","retrieval","new_objects","156","LicensePlate.jpg","37","1","1012"
"5","5","retrieval","new_objects","157","Pen_Ballpoint.jpg","37","1","801"
"5","5","retrieval","new_objects","158","Toy_Motorcycle.jpg","37","1","750"
"5","5","retrieval","old_objects","159","Mat_Bamboo.jpg","37","0","997"
"5","5","retrieval","old_objects","160","Sled.jpg","37","0","715"
"5","5","retrieval","old_objects","161","Saw.jpg","36","1","1116"
"5","5","retrieval","old_objects","162","BadgeSpecialAgent.jpg","36","1","1404"
"5","5","retrieval","old_objects","163","Ball_Basketball.jpg","36","1","985"
"5","5","retrieval","old_objects","164","Barometer.jpg","36","1","1230"
"5","5","retrieval","old_objects","165","Brush_BathBack.jpg","36","1","1034"
"5","5","retrieval","old_objects","166","Clock_Grandfather.jpg","36","1","1030"
"5","5","retrieval","new_objects","167","Bucket_WoodenDark.jpg","37","1","962"
"5","5","retrieval","old_objects","168","Mirror_Dental.jpg","37","0","953"
"5","5","retrieval","new_objects","169","Radish.jpg","37","1","824"
"5","5","retrieval","old_objects","170","Cake_Birthday.jpg","36","1","956"
"5","5","retrieval","old_objects","171","Deodorant.jpg","36","1","947"
"5","5","retrieval","new_objects","172","Chair_Barber.jpg","37","1","1082"
"5","5","retrieval","old_objects","173","Tractor_Yellow.jpg","36","1","1124"
"5","5","retrieval","old_objects","174","LitterScoop.jpg","36","1","900"
"5","5","retrieval","new_objects","175","MonaLisa.jpg","37","1","1221"
"5","5","retrieval","old_objects","176","Helmet_Construction.jpg","36","1","993"
"5","5","retrieval","new_objects","177","SelfieStick.jpg","37","1","1007"
"5","5","retrieval","old_objects","178","Cabinet_Office.jpg","36","1","956"
"5","5","retrieval","old_objects","179","Cable_JumpStart.jpg","37","0","1155"
"5","5","retrieval","new_objects","180","Sandwich_Ham.jpg","37","1","993"
"5","5","retrieval","new_objects","181","Can_MilkAntique.jpg","36","0","991"
"5","5","retrieval","old_objects","182","Mask_CPR.jpg","37","0","996"
"5","5","retrieval","old_objects","184","Magnet_Three.jpg","36","1","934"
"5","5","retrieval","new_objects","185","Piano_Upright.jpg","37","1","950"
"5","5","retrieval","old_objects","186","DrinkingFountain.jpg","36","1","1013"
"5","5","retrieval","new_objects","187","Exercise_Stretch.jpg","37","1","1090"
"5","5","retrieval","new_objects","188","Microscope.jpg","37","1","907"
"5","5","retrieval","old_objects","189","Candleholder_Tall.jpg","37","0","828"
"5","5","retrieval","old_objects","190","Castle_Sand.jpg","36","1","937"
"5","5","retrieval","old_objects","191","Dresser.jpg","37","0","1216"
"5","5","retrieval","new_objects","192","SpaceShuttle.jpg","37","1","1036"
"5","5","retrieval","old_objects","193","Colander.jpg","36","1","1144"
"5","5","retrieval","old_objects","194","RollerCoaster.jpg","36","1","1151"
"5","5","retrieval","new_objects","195","Cinnamonroll.jpg","37","1","1046"
"5","5","retrieval","new_objects","196","Cheesegrater_Box.jpg","37","1","921"
"5","5","retrieval","new_objects","197","Crutches.jpg","37","1","954"
"5","5","retrieval","old_objects","198","GatedEntrance.jpg","36","1","1016"
"5","5","retrieval","new_objects","199","TailLight.jpg","37","1","1077"
"5","5","retrieval","old_objects","200","Jug_GallonWhite.jpg","37","0","1063"
"5","5","retrieval","old_objects","201","ShoeLace_Flat.jpg","36","1","1001"
"5","5","retrieval","old_objects","202","Hoverboard.jpg","36","1","998"
"5","5","retrieval","new_objects","203","RecordPlayer.jpg","37","1","931"
"5","5","retrieval","old_objects","204","Hammer_Reflex.jpg","36","1","1380"
"5","5","retrieval","new_objects","205","ComputerKeyboard_Backspace.jpg","37","1","1546"
"5","5","retrieval","old_objects","206","PoliceTape.jpg","36","1","1064"
"5","5","retrieval","old_objects","207","Book_Leather.jpg","37","0","1291"
"5","5","retrieval","new_objects","208","Lock_Combination.jpg","37","1","829"
"5","5","retrieval","new_objects","209","Squid_Pink.jpg","37","1","825"
"5","5","retrieval","new_objects","210","Figurine_Ballerina.jpg","37","1","1070"
"5","5","retrieval","new_objects","211","Purse.jpg","37","1","847"
"5","5","retrieval","new_objects","212","Toy_Top.jpg","37","1","971"
"5","5","retrieval","new_objects","213","PaperShredder.jpg","37","1","689"
"5","5","retrieval","old_objects","214","ShowerCap.jpg","37","0","971"
"5","5","retrieval","new_objects","215","Yarmulke.jpg","37","1","961"
"5","5","retrieval","new_objects","216","PaperTowel_Brown.jpg","37","1","880"
"5","5","retrieval","new_objects","217","Tube_Paint.jpg","37","1","1026"
"5","5","retrieval","new_objects","218","Toy_DollOffice.jpg","37","1","982"
"5","5","retrieval","old_objects","219","Panda.jpg","37","0","1100"
"5","5","retrieval","new_objects","220","Lettuce_GreenLeaf.jpg","37","1","1021"
"5","5","retrieval","new_objects","221","PortaPotty.jpg","37","1","857"
"5","5","retrieval","new_objects","222","Bells_Christmas.jpg","37","1","796"
"5","5","retrieval","old_objects","223","Clock_Radioalarm.jpg","37","0","786"
"5","5","retrieval","new_objects","224","Lollipop_Grape.jpg","37","1","768"
"5","5","retrieval","new_objects","225","PaintCan.jpg","37","1","686"
"5","5","retrieval","old_objects","226","Brush_Shaving.jpg","37","0","1104"
"5","5","retrieval","new_objects","227","Shovel_Sandbox.jpg","37","1","1193"
"5","5","retrieval","new_objects","228","Dart.jpg","37","1","734"
"5","5","retrieval","new_objects","229","Ball_Baseball.jpg","37","1","630"
"5","5","retrieval","new_objects","230","FloorTile.jpg","37","1","618"
"5","5","retrieval","old_objects","231","Shoe_Highheel.jpg","37","0","694"
"5","5","retrieval","old_objects","232","FireHydrant.jpg","36","1","752"
"5","5","retrieval","new_objects","233","Jar_Capers.jpg","37","1","647"
"5","5","retrieval","old_objects","234","Bleachers.jpg","36","1","859"
"5","5","retrieval","new_objects","235","Jar_Empty.jpg","37","1","806"
"5","5","retrieval","new_objects","236","Squid_Orange.jpg","37","1","659"
"5","5","retrieval","old_objects","237","Shorts_Plaid.jpg","37","0","1998"
"5","5","retrieval","old_objects","238","Boardgame_ChineseCheckers.jpg","36","1","867"
"5","5","retrieval","new_objects","239","Shed.jpg","37","1","1246"
"5","5","retrieval","old_objects","240","Bucket_Rusty.jpg","37","0","1673"
"5","5","retrieval","old_objects","241","Dreamcatcher.jpg","37","0","1306"
"5","5","retrieval","old_objects","242","Stick_Drum.jpg","37","0","1419"
"5","5","retrieval","new_objects","243","Box_Cutlery.jpg","37","1","1023"
"5","5","retrieval","old_objects","245","NailFiles.jpg","37","0","991"
"5","5","retrieval","new_objects","246","Candy_Chocolate.jpg","37","1","1157"
"5","5","retrieval","old_objects","247","Flashlight.jpg","37","0","636"
"5","5","retrieval","old_objects","248","HairClip.jpg","37","0","1007"
"5","5","retrieval","old_objects","249","Umbrella_Retractable.jpg","0","0","2000"
"5","5","retrieval","new_objects","250","Stingray.jpg","37","1","808"
"5","5","retrieval","old_objects","251","Brush_Cleaning.jpg","37","0","773"
"5","5","retrieval","new_objects","252","Photocopier.jpg","37","1","676"
"5","5","retrieval","new_objects","253","DrawingCompass.jpg","37","1","662"
"5","5","retrieval","old_objects","254","TurkeyDinner.jpg","36","1","778"
"5","5","retrieval","new_objects","255","Bowl_Pasta.jpg","37","1","1256"
"5","5","retrieval","old_objects","256","Tree_ChristmasMini.jpg","36","1","651"
"5","5","retrieval","new_objects","257","CookieCutter_Bell.jpg","37","1","1142"
"5","5","retrieval","new_objects","258","Necklace_Black.jpg","36","0","1509"
"5","5","retrieval","new_objects","259","CodeDoorLock.jpg","37","1","1526"
"5","5","retrieval","old_objects","260","Crib_Standard.jpg","37","0","861"
"5","5","retrieval","new_objects","261","Bag_PaperWithFlour.jpg","37","1","872"
"5","5","retrieval","old_objects","262","Toy_TrailerAirport.jpg","37","0","1875"
"5","5","retrieval","new_objects","263","Ball_Disco.jpg","37","1","796"
"5","5","retrieval","old_objects","264","PaintRollTray.jpg","37","0","1514"
"5","5","retrieval","new_objects","265","IceScraper.jpg","37","1","802"
"5","5","retrieval","old_objects","266","Pasta_Macaroni.jpg","37","0","855"
"5","5","retrieval","old_objects","267","Boat_Ferry.jpg","37","0","802"
"5","5","retrieval","old_objects","268","PenHolder.jpg","37","0","1471"
"5","5","retrieval","new_objects","269","Scythe.jpg","37","1","833"
"5","5","retrieval","old_objects","270","AlarmSystem.jpg","36","1","1013"
"5","5","retrieval","old_objects","271","Plate_Children.jpg","36","1","1410"
"5","5","retrieval","old_objects","272","MobilityScooter.jpg","37","0","1230"
"5","5","retrieval","old_objects","273","HairClipper.jpg","37","0","794"
"5","5","retrieval","old_objects","274","Makeup_Mascara.jpg","37","0","1144"
"5","5","retrieval","new_objects","275","Microwave.jpg","37","1","695"
"5","5","retrieval","new_objects","276","StockingChristmas.jpg","37","1","977"
"5","5","retrieval","old_objects","277","Tie.jpg","37","0","631"
"5","5","retrieval","old_objects","278","Boxcutter.jpg","36","1","892"
"5","5","retrieval","old_objects","279","Doll_Rag.jpg","37","0","1670"
"5","5","retrieval","old_objects","280","Telephone_DialAntique.jpg","36","1","783"
"5","5","retrieval","old_objects","281","SoapDish.jpg","37","0","821"
"5","5","retrieval","new_objects","282","Wreath.jpg","37","1","713"
"5","5","retrieval","old_objects","283","Crowbar.jpg","36","1","1634"
"5","5","retrieval","new_objects","284","Toy_TableSet.jpg","37","1","933"
"5","5","retrieval","old_objects","285","GutterAndDrainPipe.jpg","37","0","629"
"5","5","retrieval","old_objects","286","WatermelonSlice.jpg","36","1","857"
"5","5","retrieval","new_objects","287","JuicerCitrus.jpg","37","1","620"
"5","5","retrieval","new_objects","288","Bed_QueenSize.jpg","37","1","753"
"5","5","retrieval","old_objects","289","Cup_Bathroom.jpg","37","0","968"
"5","5","retrieval","old_objects","290","Puzzle_Animal.jpg","36","1","958"
"5","5","retrieval","old_objects","291","Dragonfly.jpg","36","1","829"
"5","5","retrieval","old_objects","292","Flowers_DryBouquet.jpg","36","1","762"
"5","5","retrieval","old_objects","293","Toy_DinosaurBrontosaurus.jpg","36","1","777"
"5","5","retrieval","old_objects","294","Stool_Wood.jpg","37","0","983"
"5","5","retrieval","old_objects","295","HorseshoeCrab.jpg","36","1","885"
"5","5","retrieval","new_objects","296","Computer_CPU.jpg","37","1","774"
"5","5","retrieval","old_objects","297","Toy_Tank.jpg","37","0","925"
"5","5","retrieval","old_objects","298","PenStand.jpg","36","1","1165"
"5","5","retrieval","old_objects","299","Dress_Blue.jpg","36","1","668"
"5","5","retrieval","old_objects","300","PillBottle_Closed.jpg","36","1","1150"
"5","5","retrieval","old_objects","301","Slippers.jpg","37","0","741"
"5","5","retrieval","new_objects","302","MortarPestle_WhiteMarble.jpg","37","1","1021"
"5","5","retrieval","new_objects","303","CementFinisher.jpg","37","1","1921"
"5","5","retrieval","old_objects","304","Socks_Baby.jpg","36","1","784"
"5","5","retrieval","old_objects","306","Bag_Gift.jpg","36","1","1295"
"5","5","retrieval","old_objects","307","Mailbox_Antique.jpg","37","0","816"
"5","5","retrieval","new_objects","308","Flower_Basket.jpg","37","1","772"
"5","5","retrieval","old_objects","309","Paddle_Beach.jpg","37","0","1067"
"5","5","retrieval","old_objects","310","Domino.jpg","36","1","733"
"5","5","retrieval","new_objects","311","Acorn.jpg","37","1","749"
"5","5","retrieval","old_objects","312","Mop.jpg","37","0","684"
"5","5","retrieval","new_objects","313","Table_AntiqueWooden.jpg","37","1","598"
"5","5","retrieval","new_objects","314","Flower_Tulip.jpg","37","1","563"
"5","5","retrieval","new_objects","315","Walker_Blue.jpg","37","1","594"
"5","5","retrieval","new_objects","316","RadioactiveContainer.jpg","37","1","608"
"5","5","retrieval","new_objects","317","Crayon_Green.jpg","37","1","821"
"5","5","retrieval","new_objects","318","Briefcase_Leather.jpg","37","1","858"
"5","5","retrieval","new_objects","319","Broccoli.jpg","37","1","669"
"5","5","retrieval","new_objects","320","Exercise_Machine.jpg","37","1","631"
"5","5","retrieval","old_objects","321","RibbonSpool.jpg","36","1","932"
"5","5","retrieval","old_objects","322","DentalFloss.jpg","36","1","1052"
"5","5","retrieval","new_objects","323","Key_Car.jpg","37","1","1663"
"5","5","retrieval","new_objects","324","Stick_IceHockey.jpg","37","1","745"
"5","5","retrieval","new_objects","325","Pickaxe.jpg","37","1","721"
"5","5","retrieval","old_objects","326","CigarCutter.jpg","36","1","761"
"5","5","retrieval","new_objects","327","Tractor_Orange.jpg","37","1","672"
"5","5","retrieval","old_objects","328","WaterHeater.jpg","37","0","619"
"5","5","retrieval","old_objects","329","Chest_Toys.jpg","36","1","799"
"5","5","retrieval","old_objects","330","MilkJug.jpg","36","1","796"
"5","5","retrieval","old_objects","331","Pretzel_Knot.jpg","36","1","610"
"5","5","retrieval","new_objects","332","Crown.jpg","37","1","815"
"5","5","retrieval","new_objects","333","Stick_Stirring.jpg","37","1","876"
"5","5","retrieval","old_objects","334","Box_Floral.jpg","37","0","814"
"5","5","retrieval","new_objects","335","CoolingFan_Engine.jpg","37","1","666"
"5","5","retrieval","new_objects","336","JoustingSpear.jpg","37","1","661"
"5","5","retrieval","old_objects","337","Toy_JackInTheBox.jpg","37","0","1368"
"5","5","retrieval","new_objects","338","Toy_RobotTransformer.jpg","37","1","822"
"5","5","retrieval","new_objects","339","Binoculars.jpg","37","1","826"
"5","5","retrieval","new_objects","340","Pasta_Penne.jpg","37","1","1319"
"5","5","retrieval","new_objects","341","TigerWhite.jpg","37","1","1039"
"5","5","retrieval","old_objects","342","Card_TwoSpade.jpg","36","1","738"
"5","5","retrieval","old_objects","343","Caterpillar.jpg","36","1","634"
"5","5","retrieval","new_objects","344","Bowl_Flour.jpg","36","0","1326"
"5","5","retrieval","new_objects","345","Boat_Sail.jpg","37","1","1422"
"5","5","retrieval","old_objects","346","PumpBreast.jpg","36","1","1138"
"5","5","retrieval","new_objects","347","Trophy.jpg","37","1","1569"
"5","5","retrieval","old_objects","348","ComputerKeyboard_F1.jpg","36","1","1103"
"5","5","retrieval","new_objects","349","Cactus.jpg","36","0","1688"
"5","5","retrieval","old_objects","350","GrillRack.jpg","37","0","1777"
"5","5","retrieval","old_objects","351","Box_Present.jpg","37","0","1294"
"5","5","retrieval","new_objects","352","Comb.jpg","37","1","759"
"5","5","retrieval","old_objects","353","Gameboy.jpg","36","1","1542"
"5","5","retrieval","new_objects","354","Phone_Flip.jpg","37","1","973"
"5","5","retrieval","new_objects","355","Sign_OneWay.jpg","37","1","1284"
"5","5","demographics_block","gender","1","Sign_OneWay.jpg","Male","1","9499"
"5","5","demographics_block","age","1","Sign_OneWay.jpg","33","1","9499"
"5","5","demographics_block","education","1","Sign_OneWay.jpg","14","1","9499"
"5","5","demographics_block","left_right_handed","2","Sign_OneWay.jpg","Left","1","5502"
"5","5","demographics_block","raceoption1","2","Sign_OneWay.jpg","","1","5502"
"5","5","demographics_block","raceoption2","2","Sign_OneWay.jpg","","1","5502"
"5","5","demographics_block","raceoption3","2","Sign_OneWay.jpg","2","1","5502"
"5","5","demographics_block","raceoption4","2","Sign_OneWay.jpg","","1","5502"
"5","5","demographics_block","raceoption5","2","Sign_OneWay.jpg","","1","5502"
"5","5","demographics_block","raceoption6","2","Sign_OneWay.jpg","","1","5502"
"5","5","demographics_block","raceoption7","2","Sign_OneWay.jpg","","1","5502"
"5","5","demographics_block","raceoption8","2","Sign_OneWay.jpg","","1","5502"
"5","5","demographics_block","raceoption9","2","Sign_OneWay.jpg","","1","5502"
"5","5","demographics_block","raceother","2","Sign_OneWay.jpg","","1","5502"
"5","5","demographics_block","raceother","2","Sign_OneWay.jpg","","1","5502"
"5","5","demographics_block","english_language","2","Sign_OneWay.jpg","Yes","1","5502"
"5","5","demographics_block","english_languageother","2","Sign_OneWay.jpg","","1","5502"
"5","5","demographics_block","eyesight","3","Sign_OneWay.jpg","Yes","1","4764"
"5","5","demographics_block","colorblind","3","Sign_OneWay.jpg","No","1","4764"
"5","5","worker_id_block","worker_id_textbox","1","Sign_OneWay.jpg","A2FLOH4DM8A4ZS","1","15639"
"6","6","encoding","encoding","1","Caterpillar.jpg","36","0","901"
"6","6","encoding","encoding","2","ButterDish.jpg","36","0","883"
"6","6","encoding","encoding","3","HorseshoeCrab.jpg","36","0","1307"
"6","6","encoding","encoding","4","Tree_ChristmasMini.jpg","37","0","1327"
"6","6","encoding","encoding","5","Pasta_Macaroni.jpg","37","0","1218"
"6","6","encoding","encoding","6","Weights_Dumbells.jpg","37","0","1319"
"6","6","encoding","encoding","7","WaterHeater.jpg","37","0","1143"
"6","6","encoding","encoding","8","Mirror_Dental.jpg","37","0","844"
"6","6","encoding","encoding","9","Mat_Bamboo.jpg","37","0","1153"
"6","6","encoding","encoding","10","Kebab_Meat.jpg","37","0","1356"
"6","6","encoding","encoding","11","Barometer.jpg","37","0","949"
"6","6","encoding","encoding","12","Spatula.jpg","37","0","783"
"6","6","encoding","encoding","13","Paddle_Beach.jpg","37","0","998"
"6","6","encoding","encoding","14","Hoverboard.jpg","37","0","922"
"6","6","encoding","encoding","15","PaintRollTray.jpg","37","0","981"
"6","6","encoding","encoding","16","Cabinet_Display.jpg","37","0","753"
"6","6","encoding","encoding","17","Toy_Ladybug.jpg","37","0","1055"
"6","6","encoding","encoding","18","Makeup_Bag.jpg","37","0","765"
"6","6","encoding","encoding","19","Box_Floral.jpg","37","0","815"
"6","6","encoding","encoding","20","Toy_Boat.jpg","37","0","674"
"6","6","encoding","encoding","21","Crib_Standard.jpg","37","0","689"
"6","6","encoding","encoding","22","Bucket_Rusty.jpg","37","0","1030"
"6","6","encoding","encoding","23","PenHolder.jpg","37","0","849"
"6","6","encoding","encoding","24","Jacket_Jean.jpg","37","0","1145"
"6","6","encoding","encoding","25","Candleholder_Tall.jpg","37","0","1055"
"6","6","encoding","encoding","26","Tray_Medical.jpg","37","0","860"
"6","6","encoding","encoding","27","RollerCoaster.jpg","37","0","780"
"6","6","encoding","encoding","28","Tray_Wooden.jpg","37","0","612"
"6","6","encoding","encoding","29","Boat_Ferry.jpg","37","0","891"
"6","6","encoding","encoding","30","SpinalCord.jpg","37","0","944"
"6","6","encoding","encoding","31","Flowers_DryBouquet.jpg","37","0","1044"
"6","6","encoding","encoding","32","Sled.jpg","37","0","1003"
"6","6","encoding","encoding","33","Box_Present.jpg","37","0","1442"
"6","6","encoding","encoding","34","Clock_Grandfather.jpg","37","0","948"
"6","6","encoding","encoding","35","Jug_Wicker.jpg","37","0","1498"
"6","6","encoding","encoding","36","Scalpel.jpg","37","0","1403"
"6","6","encoding","encoding","37","PillBottle_Closed.jpg","37","0","984"
"6","6","encoding","encoding","38","MobilityScooter.jpg","37","0","536"
"6","6","encoding","encoding","39","Mask_CPR.jpg","37","0","672"
"6","6","encoding","encoding","40","Stove_Propane.jpg","37","0","572"
"6","6","encoding","encoding","41","VGAport.jpg","37","0","510"
"6","6","encoding","encoding","42","Card_TwoSpade.jpg","37","0","687"
"6","6","encoding","encoding","43","Clothespin_Red.jpg","37","0","586"
"6","6","encoding","encoding","44","Clock_Radioalarm.jpg","37","0","547"
"6","6","encoding","encoding","45","LitterScoop.jpg","37","0","403"
"6","6","encoding","encoding","46","Deodorant.jpg","37","0","519"
"6","6","encoding","encoding","47","StreetSweeper.jpg","37","0","633"
"6","6","encoding","encoding","48","Toolbox_Old.jpg","37","0","423"
"6","6","encoding","encoding","49","BadgeSpecialAgent.jpg","37","0","396"
"6","6","encoding","encoding","50","Basket_Straw.jpg","37","0","371"
"6","6","encoding","encoding","51","Oven.jpg","37","0","429"
"6","6","encoding","encoding","52","Mailbox_Antique.jpg","37","0","499"
"6","6","encoding","encoding","53","Paddle_PingPong.jpg","37","0","445"
"6","6","encoding","encoding","54","AlarmSystem.jpg","37","0","542"
"6","6","encoding","encoding","55","Dress_Blue.jpg","37","0","577"
"6","6","encoding","encoding","56","Bird_Hen.jpg","36","0","641"
"6","6","encoding","encoding","57","Gametable_AirHockey.jpg","37","0","549"
"6","6","encoding","encoding","58","HairClip.jpg","37","0","589"
"6","6","encoding","encoding","59","Teapot.jpg","37","0","612"
"6","6","encoding","encoding","60","Magnet_Three.jpg","37","0","577"
"6","6","encoding","encoding","62","CasketOpen.jpg","37","0","815"
"6","6","encoding","encoding","63","Stove_Camping.jpg","37","0","730"
"6","6","encoding","encoding","64","HairClipper.jpg","37","0","616"
"6","6","encoding","encoding","65","FireHydrant.jpg","37","0","440"
"6","6","encoding","encoding","66","Dreamcatcher.jpg","37","0","434"
"6","6","encoding","encoding","67","Makeup_Mascara.jpg","37","0","445"
"6","6","encoding","encoding","68","Giraffe.jpg","36","0","642"
"6","6","encoding","encoding","69","Tractor_Yellow.jpg","37","0","755"
"6","6","encoding","encoding","70","Dress_Party.jpg","37","0","503"
"6","6","encoding","encoding","71","Faucet.jpg","37","0","414"
"6","6","encoding","encoding","72","ShoeLace_Flat.jpg","37","0","899"
"6","6","encoding","encoding","73","Helmet_Knight.jpg","37","0","673"
"6","6","encoding","encoding","74","DogHouse.jpg","37","0","507"
"6","6","encoding","encoding","75","WashingMachine.jpg","37","0","466"
"6","6","encoding","encoding","76","Saw.jpg","37","0","449"
"6","6","encoding","encoding","77","PoliceTape.jpg","37","0","478"
"6","6","encoding","encoding","78","Switch_LightWhite.jpg","37","0","487"
"6","6","encoding","encoding","79","Umbrella_Retractable.jpg","37","0","441"
"6","6","encoding","encoding","80","Jug_GallonWhite.jpg","37","0","917"
"6","6","encoding","encoding","81","Colander.jpg","37","0","543"
"6","6","encoding","encoding","82","Hay.jpg","37","0","808"
"6","6","encoding","encoding","83","Chest_Toys.jpg","37","0","697"
"6","6","encoding","encoding","84","Book_Leather.jpg","37","0","573"
"6","6","encoding","encoding","85","Castle_Sand.jpg","37","0","735"
"6","6","encoding","encoding","86","Box_WoodCrate.jpg","37","0","622"
"6","6","encoding","encoding","87","Pretzel_Knot.jpg","37","0","373"
"6","6","encoding","encoding","88","Cabinet_Office.jpg","37","0","525"
"6","6","encoding","encoding","89","Plate_Children.jpg","37","0","461"
"6","6","encoding","encoding","90","Hammer_Reflex.jpg","37","0","492"
"6","6","encoding","encoding","91","Brace_Leg.jpg","37","0","437"
"6","6","encoding","encoding","92","Puzzle_Animal.jpg","37","0","452"
"6","6","encoding","encoding","93","DoubleBass.jpg","37","0","532"
"6","6","encoding","encoding","94","PassionFruit.jpg","36","0","1206"
"6","6","encoding","encoding","95","FileDivider.jpg","37","0","648"
"6","6","encoding","encoding","96","Sign_TrafficArrow.jpg","36","0","820"
"6","6","encoding","encoding","97","Bleachers.jpg","37","0","728"
"6","6","encoding","encoding","98","Goat.jpg","36","0","713"
"6","6","encoding","encoding","99","Battery_Car.jpg","37","0","375"
"6","6","encoding","encoding","100","Lock_Key.jpg","37","0","506"
"6","6","encoding","encoding","101","Cable_JumpStart.jpg","37","0","853"
"6","6","encoding","encoding","102","Centrifuge.jpg","37","0","1026"
"6","6","encoding","encoding","103","Cup_Bathroom.jpg","37","0","717"
"6","6","encoding","encoding","104","Scroll.jpg","37","0","663"
"6","6","encoding","encoding","105","GoldNugget.jpg","37","0","702"
"6","6","encoding","encoding","106","Stamp.jpg","37","0","782"
"6","6","encoding","encoding","107","Brush_Cleaning.jpg","37","0","561"
"6","6","encoding","encoding","108","Phone_Wireless.jpg","37","0","537"
"6","6","encoding","encoding","109","NailFiles.jpg","37","0","455"
"6","6","encoding","encoding","110","ShowerCap.jpg","37","0","692"
"6","6","encoding","encoding","111","WateringCan_Antique.jpg","37","0","519"
"6","6","encoding","encoding","112","Toy_ModelMolecule.jpg","37","0","581"
"6","6","encoding","encoding","113","NailPolish.jpg","37","0","494"
"6","6","encoding","encoding","114","Toy_Tank.jpg","37","0","638"
"6","6","encoding","encoding","115","Toy_Wooden rings.jpg","37","0","625"
"6","6","encoding","encoding","116","Tie.jpg","37","0","486"
"6","6","encoding","encoding","117","SoapDish.jpg","37","0","598"
"6","6","encoding","encoding","118","Dragonfly.jpg","36","0","632"
"6","6","encoding","encoding","119","Dresser.jpg","37","0","581"
"6","6","encoding","encoding","120","Brush_Shaving.jpg","37","0","933"
"6","6","encoding","encoding","121","Cane_Metal.jpg","37","0","542"
"6","6","encoding","encoding","123","Stool_Wood.jpg","37","0","1136"
"6","6","encoding","encoding","124","Cake_Birthday.jpg","37","0","883"
"6","6","encoding","encoding","125","Panda.jpg","36","0","641"
"6","6","encoding","encoding","126","CigarCutter.jpg","37","0","807"
"6","6","encoding","encoding","127","PenStand.jpg","37","0","1064"
"6","6","encoding","encoding","128","ContactLens.jpg","37","0","411"
"6","6","encoding","encoding","129","Boxcutter.jpg","37","0","555"
"6","6","encoding","encoding","130","Helmet_Construction.jpg","37","0","704"
"6","6","encoding","encoding","131","ComputerKeyboard_F1.jpg","37","0","566"
"6","6","encoding","encoding","132","Crowbar.jpg","37","0","509"
"6","6","encoding","encoding","133","Earring_Hoop.jpg","37","0","412"
"6","6","encoding","encoding","134","Coral.jpg","36","0","1061"
"6","6","encoding","encoding","135","Baster.jpg","37","0","849"
"6","6","encoding","encoding","136","PumpBreast.jpg","37","0","797"
"6","6","encoding","encoding","137","Toy_JackInTheBox.jpg","37","0","845"
"6","6","encoding","encoding","138","White_Screen.jpg","0","0","2001"
"6","6","encoding","encoding","139","TurkeyDinner.jpg","37","0","606"
"6","6","encoding","encoding","140","Screw.jpg","37","0","619"
"6","6","encoding","encoding","141","CigarCase.jpg","37","0","861"
"6","6","encoding","encoding","142","PaperStack.jpg","36","0","844"
"6","6","encoding","encoding","143","Asparagus.jpg","36","0","649"
"6","6","encoding","encoding","144","Flashlight.jpg","37","0","640"
"6","6","encoding","encoding","145","Toy_DinosaurBrontosaurus.jpg","37","0","893"
"6","6","encoding","encoding","146","Gameboy.jpg","37","0","665"
"6","6","encoding","encoding","147","MilkJug.jpg","37","0","591"
"6","6","encoding","encoding","148","Mop.jpg","37","0","576"
"6","6","encoding","encoding","149","RibbonSpool.jpg","37","0","472"
"6","6","encoding","encoding","150","Toy_TrailerAirport.jpg","37","0","537"
"6","6","encoding","encoding","151","Sphinx.jpg","36","0","956"
"6","6","encoding","encoding","152","Shoe_Highheel.jpg","37","0","625"
"6","6","encoding","encoding","153","DentalFloss.jpg","37","0","653"
"6","6","encoding","encoding","154","Bag_Gift.jpg","37","0","612"
"6","6","encoding","encoding","155","Bagpipes.jpg","37","0","634"
"6","6","encoding","encoding","156","Slippers.jpg","37","0","633"
"6","6","encoding","encoding","157","Doll_Rag.jpg","37","0","718"
"6","6","encoding","encoding","158","Boardgame_ChineseCheckers.jpg","37","0","753"
"6","6","encoding","encoding","159","Gloves_WhiteKnit.jpg","37","0","695"
"6","6","encoding","encoding","160","Seashell_AlternateTellin.jpg","36","0","945"
"6","6","encoding","encoding","161","Canteen.jpg","37","0","686"
"6","6","encoding","encoding","162","Socks_Baby.jpg","37","0","682"
"6","6","encoding","encoding","163","Ball_Basketball.jpg","37","0","824"
"6","6","encoding","encoding","164","Kebab_Vegetables.jpg","37","0","696"
"6","6","encoding","encoding","165","GatedEntrance.jpg","37","0","570"
"6","6","encoding","encoding","166","Domino.jpg","36","0","862"
"6","6","encoding","encoding","167","Glass_Ball.jpg","37","0","728"
"6","6","encoding","encoding","168","DrinkingFountain.jpg","37","0","633"
"6","6","encoding","encoding","169","GutterAndDrainPipe.jpg","37","0","519"
"6","6","encoding","encoding","170","WatermelonSlice.jpg","36","0","732"
"6","6","encoding","encoding","171","ChessPiece_Knight.jpg","37","0","701"
"6","6","encoding","encoding","172","Brush_BathBack.jpg","37","0","691"
"6","6","encoding","encoding","173","Sword.jpg","37","0","745"
"6","6","encoding","encoding","174","Shorts_Plaid.jpg","37","0","564"
"6","6","encoding","encoding","175","GrillRack.jpg","37","0","507"
"6","6","encoding","encoding","176","Stick_Drum.jpg","37","0","535"
"6","6","encoding","encoding","177","Telephone_DialAntique.jpg","37","0","627"
"6","6","retrieval","old_objects","1","Bucket_Rusty.jpg","37","0","1329"
"6","6","retrieval","new_objects","2","Box_Cutlery.jpg","36","0","777"
"6","6","retrieval","new_objects","3","FloorTile.jpg","36","0","881"
"6","6","retrieval","new_objects","4","Figurine_Ballerina.jpg","37","1","827"
"6","6","retrieval","new_objects","5","Lock_Combination.jpg","37","1","570"
"6","6","retrieval","new_objects","6","Bowl_Flour.jpg","37","1","599"
"6","6","retrieval","new_objects","7","Crutches.jpg","36","0","698"
"6","6","retrieval","old_objects","8","Cable_JumpStart.jpg","37","0","525"
"6","6","retrieval","old_objects","9","Brace_Leg.jpg","36","1","598"
"6","6","retrieval","old_objects","10","Sled.jpg","36","1","801"
"6","6","retrieval","old_objects","11","Lock_Key.jpg","36","1","632"
"6","6","retrieval","old_objects","12","GrillRack.jpg","36","1","639"
"6","6","retrieval","new_objects","13","Purse.jpg","37","1","599"
"6","6","retrieval","old_objects","14","Card_TwoSpade.jpg","36","1","781"
"6","6","retrieval","new_objects","15","Ball_8.jpg","36","0","707"
"6","6","retrieval","new_objects","16","EyeChart.jpg","37","1","852"
"6","6","retrieval","new_objects","17","Boat_Sail.jpg","37","1","567"
"6","6","retrieval","old_objects","18","GatedEntrance.jpg","36","1","632"
"6","6","retrieval","old_objects","19","HairClip.jpg","37","0","606"
"6","6","retrieval","old_objects","20","Toy_JackInTheBox.jpg","37","0","822"
"6","6","retrieval","old_objects","21","LitterScoop.jpg","37","0","685"
"6","6","retrieval","old_objects","22","Goat.jpg","36","1","791"
"6","6","retrieval","old_objects","23","Paddle_Beach.jpg","37","0","636"
"6","6","retrieval","old_objects","24","Cane_Metal.jpg","37","0","827"
"6","6","retrieval","old_objects","25","Clock_Grandfather.jpg","36","1","624"
"6","6","retrieval","old_objects","26","Tray_Medical.jpg","36","1","573"
"6","6","retrieval","new_objects","27","Sand.jpg","37","1","545"
"6","6","retrieval","old_objects","28","Box_Floral.jpg","36","1","725"
"6","6","retrieval","old_objects","29","NailPolish.jpg","36","1","706"
"6","6","retrieval","old_objects","30","GoldNugget.jpg","36","1","683"
"6","6","retrieval","new_objects","31","BicyclePedal.jpg","37","1","683"
"6","6","retrieval","old_objects","32","Boat_Ferry.jpg","36","1","636"
"6","6","retrieval","old_objects","33","Dress_Party.jpg","36","1","582"
"6","6","retrieval","new_objects","34","PaperTowel_Brown.jpg","36","0","627"
"6","6","retrieval","new_objects","35","Blackboard.jpg","37","1","674"
"6","6","retrieval","old_objects","36","Hay.jpg","36","1","606"
"6","6","retrieval","old_objects","37","PaintRollTray.jpg","36","1","657"
"6","6","retrieval","old_objects","38","Saw.jpg","36","1","705"
"6","6","retrieval","old_objects","39","DogHouse.jpg","36","1","649"
"6","6","retrieval","old_objects","40","Mop.jpg","36","1","627"
"6","6","retrieval","old_objects","41","Brush_Shaving.jpg","36","1","788"
"6","6","retrieval","old_objects","42","Teapot.jpg","36","1","559"
"6","6","retrieval","new_objects","43","SlideViewer.jpg","37","1","557"
"6","6","retrieval","old_objects","44","Jug_GallonWhite.jpg","37","0","706"
"6","6","retrieval","old_objects","45","Gametable_AirHockey.jpg","37","0","645"
"6","6","retrieval","old_objects","46","WatermelonSlice.jpg","36","1","662"
"6","6","retrieval","old_objects","47","Ball_Basketball.jpg","36","1","483"
"6","6","retrieval","new_objects","48","Statue_Horse.jpg","37","1","589"
"6","6","retrieval","old_objects","49","Asparagus.jpg","36","1","539"
"6","6","retrieval","new_objects","50","Mask_Gas.jpg","37","1","748"
"6","6","retrieval","new_objects","51","Chair_Barber.jpg","37","1","631"
"6","6","retrieval","new_objects","52","Cactus.jpg","37","1","598"
"6","6","retrieval","new_objects","53","RecordPlayer.jpg","37","1","651"
"6","6","retrieval","new_objects","54","Bird_Eagle.jpg","37","1","558"
"6","6","retrieval","old_objects","55","Caterpillar.jpg","36","1","803"
"6","6","retrieval","old_objects","56","MilkJug.jpg","36","1","717"
"6","6","retrieval","new_objects","57","Lettuce_GreenLeaf.jpg","37","1","859"
"6","6","retrieval","new_objects","58","MortarPestle_WhiteMarble.jpg","37","1","959"
"6","6","retrieval","new_objects","59","CanOpener.jpg","37","1","738"
"6","6","retrieval","new_objects","60","Table_Magazine.jpg","37","1","722"
"6","6","retrieval","old_objects","62","Slippers.jpg","36","1","854"
"6","6","retrieval","old_objects","63","Bird_Hen.jpg","36","1","727"
"6","6","retrieval","new_objects","64","Cheesegrater_Box.jpg","37","1","617"
"6","6","retrieval","old_objects","65","Toy_DinosaurBrontosaurus.jpg","36","1","664"
"6","6","retrieval","old_objects","66","Gloves_WhiteKnit.jpg","36","1","572"
"6","6","retrieval","new_objects","67","Pen_Ballpoint.jpg","37","1","503"
"6","6","retrieval","old_objects","68","Clock_Radioalarm.jpg","37","0","762"
"6","6","retrieval","old_objects","69","Bag_Gift.jpg","37","0","643"
"6","6","retrieval","old_objects","70","Jacket_Jean.jpg","36","1","541"
"6","6","retrieval","new_objects","71","TigerWhite.jpg","37","1","548"
"6","6","retrieval","new_objects","72","CoffeePot.jpg","37","1","577"
"6","6","retrieval","old_objects","73","Colander.jpg","37","0","534"
"6","6","retrieval","old_objects","74","Battery_Car.jpg","37","0","546"
"6","6","retrieval","new_objects","75","CameoPortrait.jpg","37","1","531"
"6","6","retrieval","new_objects","76","Toy_Top.jpg","37","1","738"
"6","6","retrieval","old_objects","77","PenHolder.jpg","36","1","596"
"6","6","retrieval","new_objects","78","Sign_OneWay.jpg","37","1","609"
"6","6","retrieval","new_objects","79","Bucket_WoodenDark.jpg","37","1","597"
"6","6","retrieval","new_objects","80","Oars.jpg","37","1","690"
"6","6","retrieval","new_objects","81","Boot_Rain.jpg","37","1","645"
"6","6","retrieval","new_objects","82","Lollipop_Grape.jpg","37","1","764"
"6","6","retrieval","new_objects","83","GiftBow.jpg","37","1","664"
"6","6","retrieval","new_objects","84","Computer_CPU.jpg","37","1","635"
"6","6","retrieval","new_objects","85","CementFinisher.jpg","37","1","658"
"6","6","retrieval","old_objects","86","NailFiles.jpg","37","0","603"
"6","6","retrieval","old_objects","87","Dresser.jpg","37","0","947"
"6","6","retrieval","new_objects","88","Bathtub.jpg","37","1","844"
"6","6","retrieval","new_objects","89","Toy_DollOffice.jpg","37","1","696"
"6","6","retrieval","new_objects","90","Fruit_Orange.jpg","37","1","684"
"6","6","retrieval","old_objects","91","HorseshoeCrab.jpg","37","0","1062"
"6","6","retrieval","old_objects","92","Pasta_Macaroni.jpg","36","1","663"
"6","6","retrieval","new_objects","93","Handbag.jpg","37","1","673"
"6","6","retrieval","new_objects","94","Decoration_ChristmasRed.jpg","37","1","689"
"6","6","retrieval","old_objects","95","Basket_Straw.jpg","36","1","609"
"6","6","retrieval","old_objects","96","Gameboy.jpg","36","1","618"
"6","6","retrieval","old_objects","97","ContactLens.jpg","36","1","714"
"6","6","retrieval","old_objects","98","Stove_Propane.jpg","36","1","945"
"6","6","retrieval","old_objects","99","Dreamcatcher.jpg","36","1","669"
"6","6","retrieval","new_objects","100","Calculator.jpg","36","0","820"
"6","6","retrieval","old_objects","101","Giraffe.jpg","36","1","723"
"6","6","retrieval","old_objects","102","Telephone_DialAntique.jpg","36","1","902"
"6","6","retrieval","new_objects","103","Acorn.jpg","37","1","772"
"6","6","retrieval","old_objects","104","Mat_Bamboo.jpg","36","1","787"
"6","6","retrieval","new_objects","105","Bottle_CosmeticSpray.jpg","37","1","745"
"6","6","retrieval","new_objects","106","Key_Car.jpg","37","1","628"
