"group","subject","blockcode","trialcode","trialnum","values.stimulus","response","correct","latency"
"10","10","encoding","encoding","1","Notepad_WithPen.jpg","0","0","2000"
"10","10","encoding","encoding","2","Microphone.jpg","37","0","1357"
"10","10","encoding","encoding","3","Joystick.jpg","37","0","1237"
"10","10","encoding","encoding","4","Hanger.jpg","37","0","1623"
"10","10","encoding","encoding","5","Shrimp.jpg","36","0","1178"
"10","10","encoding","encoding","6","GingerbreadMan.jpg","37","0","1847"
"10","10","encoding","encoding","7","Toy_DonkeyFur.jpg","37","0","888"
"10","10","encoding","encoding","8","Shark_GreatWhite.jpg","36","0","971"
"10","10","encoding","encoding","9","Camera_Security.jpg","37","0","806"
"10","10","encoding","encoding","10","Candy_GummyBear.jpg","37","0","1401"
"10","10","encoding","encoding","11","Bench_Black.jpg","37","0","615"
"10","10","encoding","encoding","12","SandBagThrowGame.jpg","37","0","1002"
"10","10","encoding","encoding","13","Strainer_Tea.jpg","37","0","1144"
"10","10","encoding","encoding","14","Cannoli.jpg","37","0","1947"
"10","10","encoding","encoding","15","Toy_Zebra.jpg","36","0","1100"
"10","10","encoding","encoding","16","Toy_BearBluePlushie.jpg","37","0","854"
"10","10","encoding","encoding","17","Carousel.jpg","37","0","1018"
"10","10","encoding","encoding","18","Cake_Cheese.jpg","37","0","1426"
"10","10","encoding","encoding","19","Napkin_Holder.jpg","37","0","803"
"10","10","encoding","encoding","20","Truck_VintageBlue.jpg","37","0","656"
"10","10","encoding","encoding","21","Tribunal_Wooden.jpg","37","0","624"
"10","10","encoding","encoding","22","Kneepad.jpg","37","0","890"
"10","10","encoding","encoding","23","Boots_Hiking.jpg","37","0","757"
"10","10","encoding","encoding","24","VacuumHead.jpg","37","0","608"
"10","10","encoding","encoding","25","Bottle_Wine.jpg","37","0","603"
"10","10","encoding","encoding","26","Truck_Tanker.jpg","37","0","484"
"10","10","encoding","encoding","27","Bottle_Beer.jpg","37","0","630"
"10","10","encoding","encoding","28","Leaf_Green.jpg","36","0","817"
"10","10","encoding","encoding","29","DayPlanner.jpg","37","0","548"
"10","10","encoding","encoding","30","Shoes_Snow.jpg","37","0","1157"
"10","10","encoding","encoding","31","ShoeLace_Round.jpg","37","0","1063"
"10","10","encoding","encoding","32","Swing_Porch.jpg","37","0","713"
"10","10","encoding","encoding","33","Alfalfa.jpg","36","0","583"
"10","10","encoding","encoding","34","Rock_Mimetite.jpg","36","0","1354"
"10","10","encoding","encoding","35","Lighter_Black.jpg","37","0","532"
"10","10","encoding","encoding","36","Hubcap.jpg","37","0","1286"
"10","10","encoding","encoding","37","WashRack.jpg","37","0","553"
"10","10","encoding","encoding","38","Flower_Sun.jpg","36","0","907"
"10","10","encoding","encoding","39","DogFood.jpg","37","0","1198"
"10","10","encoding","encoding","40","Lamp_TableWhite.jpg","37","0","1517"
"10","10","encoding","encoding","41","Hat_Colonial.jpg","37","0","708"
"10","10","encoding","encoding","42","Candy_Cotton.jpg","37","0","951"
"10","10","encoding","encoding","43","Paddle_Bread.jpg","37","0","586"
"10","10","encoding","encoding","44","Paddle_Ball.jpg","37","0","669"
"10","10","encoding","encoding","45","FoodMill.jpg","37","0","648"
"10","10","encoding","encoding","46","Bird_Peacock.jpg","36","0","691"
"10","10","encoding","encoding","47","Pepperoni.jpg","36","0","1077"
"10","10","encoding","encoding","48","AirTank.jpg","37","0","801"
"10","10","encoding","encoding","49","Pacifier.jpg","37","0","796"
"10","10","encoding","encoding","50","Cross.jpg","37","0","695"
"10","10","encoding","encoding","51","Catheter.jpg","37","0","1010"
"10","10","encoding","encoding","52","Stick_Bridge.jpg","37","0","852"
"10","10","encoding","encoding","53","Switch_LightBlack.jpg","37","0","663"
"10","10","encoding","encoding","54","Decoration_ChristmasWhite.jpg","37","0","618"
"10","10","encoding","encoding","55","Mask_Happy.jpg","37","0","669"
"10","10","encoding","encoding","56","Bird_Parrot.jpg","36","0","728"
"10","10","encoding","encoding","57","SafetyPin.jpg","37","0","555"
"10","10","encoding","encoding","58","Aquarium.jpg","37","0","1174"
"10","10","encoding","encoding","59","Kazoo.jpg","37","0","841"
"10","10","encoding","encoding","60","Telescope.jpg","37","0","571"
"10","10","encoding","encoding","62","Hawk.jpg","36","0","712"
"10","10","encoding","encoding","63","Bowl_Wooden.jpg","37","0","1811"
"10","10","encoding","encoding","64","Printer.jpg","37","0","662"
"10","10","encoding","encoding","65","SpaceRover.jpg","37","0","585"
"10","10","encoding","encoding","66","Truck_Dump.jpg","37","0","612"
"10","10","encoding","encoding","67","CoffeeLid.jpg","37","0","663"
"10","10","encoding","encoding","68","Clippers_Glass.jpg","37","0","738"
"10","10","encoding","encoding","69","PowderProtein.jpg","37","0","1172"
"10","10","encoding","encoding","70","Car_Buggy.jpg","37","0","527"
"10","10","encoding","encoding","71","Chicken_FriedDrum.jpg","37","0","865"
"10","10","encoding","encoding","72","Sign_Open.jpg","37","0","725"
"10","10","encoding","encoding","73","Clamp_Screw.jpg","37","0","568"
"10","10","encoding","encoding","74","MousepadAndMouse.jpg","37","0","683"
"10","10","encoding","encoding","75","Spoons_Musical.jpg","37","0","518"
"10","10","encoding","encoding","76","Case_Leather.jpg","37","0","537"
"10","10","encoding","encoding","77","Toy_PandaPlushie.jpg","37","0","612"
"10","10","encoding","encoding","78","Thermometer_Room.jpg","37","0","519"
"10","10","encoding","encoding","79","Egg_Wooden.jpg","37","0","890"
"10","10","encoding","encoding","80","Shampoo.jpg","37","0","701"
"10","10","encoding","encoding","81","Qtip_Single.jpg","37","0","640"
"10","10","encoding","encoding","82","Ring_Plain.jpg","37","0","779"
"10","10","encoding","encoding","83","Sock_Ankle.jpg","37","0","798"
"10","10","encoding","encoding","84","Easel.jpg","37","0","619"
"10","10","encoding","encoding","85","Peeler.jpg","37","0","716"
"10","10","encoding","encoding","86","Teabag.jpg","37","0","847"
"10","10","encoding","encoding","87","BikiniTop.jpg","37","0","706"
"10","10","encoding","encoding","88","Clock_Radio.jpg","37","0","604"
"10","10","encoding","encoding","89","Peppermill.jpg","37","0","735"
"10","10","encoding","encoding","90","BoogieBoard.jpg","37","0","834"
"10","10","encoding","encoding","91","MechanicalSpring.jpg","37","0","605"
"10","10","encoding","encoding","92","Fish_Rockbass.jpg","36","0","640"
"10","10","encoding","encoding","93","DarthVader.jpg","37","0","739"
"10","10","encoding","encoding","94","Makeup_Foundation.jpg","37","0","573"
"10","10","encoding","encoding","95","Dog_ChowChow.jpg","36","0","1017"
"10","10","encoding","encoding","96","Crackers_Ritz.jpg","37","0","850"
"10","10","encoding","encoding","97","Donut.jpg","37","0","682"
"10","10","encoding","encoding","98","LightBulb_Christmas.jpg","37","0","608"
"10","10","encoding","encoding","99","Bowl_Fruits.jpg","36","0","1059"
"10","10","encoding","encoding","100","Coconut.jpg","36","0","878"
"10","10","encoding","encoding","101","Toy_Taxi.jpg","37","0","817"
"10","10","encoding","encoding","102","Spoons_MeasuringAttached.jpg","37","0","715"
"10","10","encoding","encoding","103","Hangar.jpg","37","0","799"
"10","10","encoding","encoding","104","Tag_Price.jpg","37","0","642"
"10","10","encoding","encoding","105","Basket_Plastic.jpg","37","0","797"
"10","10","encoding","encoding","106","Chair_BeanBag.jpg","37","0","711"
"10","10","encoding","encoding","107","Flower_Rose.jpg","36","0","795"
"10","10","encoding","encoding","108","IceCream_Popsicle.jpg","37","0","966"
"10","10","encoding","encoding","109","Garlic_Whole.jpg","36","0","785"
"10","10","encoding","encoding","110","Camel_Bactrian.jpg","36","0","740"
"10","10","encoding","encoding","111","Thermostat.jpg","37","0","595"
"10","10","encoding","encoding","112","Bulldozer.jpg","37","0","586"
"10","10","encoding","encoding","113","Necklace_Pearl.jpg","37","0","618"
"10","10","encoding","encoding","114","Hottub.jpg","37","0","840"
"10","10","encoding","encoding","115","Bag_Garbage.jpg","37","0","875"
"10","10","encoding","encoding","116","Spotlight.jpg","37","0","727"
"10","10","encoding","encoding","117","Bucket_Champagne.jpg","37","0","544"
"10","10","encoding","encoding","118","Compact_Mirror.jpg","37","0","707"
"10","10","encoding","encoding","119","Keys_Bunch.jpg","37","0","870"
"10","10","encoding","encoding","120","Freezer.jpg","37","0","601"
"10","10","encoding","encoding","121","Fruit_Carambola.jpg","36","0","697"
"10","10","encoding","encoding","123","WorldMap.jpg","37","0","907"
"10","10","encoding","encoding","124","Garbage_GreenBin.jpg","37","0","523"
"10","10","encoding","encoding","125","LifeJacket_Orangejpg.jpg","37","0","553"
"10","10","encoding","encoding","126","Instrument_Nyckelharpa.jpg","37","0","628"
"10","10","encoding","encoding","127","Pillow_Plaid.jpg","37","0","654"
"10","10","encoding","encoding","128","NeedlesAcupuncture.jpg","37","0","565"
"10","10","encoding","encoding","129","Bandage_Adhesive.jpg","37","0","636"
"10","10","encoding","encoding","130","Diode.jpg","37","0","588"
"10","10","encoding","encoding","131","SiloGrain.jpg","37","0","658"
"10","10","encoding","encoding","132","Leg.jpg","36","0","1125"
"10","10","encoding","encoding","133","Tortilla.jpg","37","0","1296"
"10","10","encoding","encoding","134","Mask_Buddhist.jpg","37","0","915"
"10","10","encoding","encoding","135","Basket_Firewood.jpg","36","0","1293"
"10","10","encoding","encoding","136","Castle_Model.jpg","37","0","1232"
"10","10","encoding","encoding","137","LifeJacket_BlueYellow.jpg","37","0","811"
"10","10","encoding","encoding","138","Almond.jpg","36","0","837"
"10","10","encoding","encoding","139","Accordion.jpg","37","0","697"
"10","10","encoding","encoding","140","Cougar.jpg","36","0","683"
"10","10","encoding","encoding","141","Light_Siren.jpg","37","0","558"
"10","10","encoding","encoding","142","SaladCaesar.jpg","36","0","753"
"10","10","encoding","encoding","143","Toy_WoodenPlainSingle.jpg","36","0","1077"
"10","10","encoding","encoding","144","Fryingpan.jpg","37","0","655"
"10","10","encoding","encoding","145","Notepad.jpg","37","0","594"
"10","10","encoding","encoding","146","Cup_Latte.jpg","37","0","870"
"10","10","encoding","encoding","147","Case_CD.jpg","37","0","633"
"10","10","encoding","encoding","148","Stone_AncientWriting.jpg","0","0","2000"
"10","10","encoding","encoding","149","DoorBell.jpg","37","0","990"
"10","10","encoding","encoding","150","Bottle_BubbleBlower.jpg","37","0","633"
"10","10","encoding","encoding","151","Table_Pool.jpg","37","0","532"
"10","10","encoding","encoding","152","Butterfly.jpg","36","0","631"
"10","10","encoding","encoding","153","Weathervane.jpg","37","0","634"
"10","10","encoding","encoding","154","Popcorn.jpg","36","0","653"
"10","10","encoding","encoding","155","Mirror_Carside.jpg","37","0","719"
"10","10","encoding","encoding","156","Honeydew_yellow.jpg","36","0","811"
"10","10","encoding","encoding","157","Clip_Chip.jpg","37","0","518"
"10","10","encoding","encoding","158","Pipette.jpg","37","0","472"
"10","10","encoding","encoding","159","FileFolder.jpg","37","0","595"
"10","10","encoding","encoding","160","HairScrunchie.jpg","37","0","845"
"10","10","encoding","encoding","161","CookieCutter_Tree.jpg","37","0","600"
"10","10","encoding","encoding","162","Coin.jpg","37","0","906"
"10","10","encoding","encoding","163","Toolbox_Red.jpg","37","0","549"
"10","10","encoding","encoding","164","Brush_Winter.jpg","37","0","680"
"10","10","encoding","encoding","165","HardDrive.jpg","37","0","594"
"10","10","encoding","encoding","166","Pot_Cooking.jpg","37","0","669"
"10","10","encoding","encoding","167","Tombstone.jpg","37","0","1001"
"10","10","encoding","encoding","168","Cheese_Platter.jpg","37","0","1659"
"10","10","encoding","encoding","169","Jar_Canopic.jpg","37","0","972"
"10","10","encoding","encoding","170","Origami_Bird.jpg","37","0","1129"
"10","10","encoding","encoding","171","Pepper_Green.jpg","36","0","628"
"10","10","encoding","encoding","172","Qtip_Multiple.jpg","37","0","607"
"10","10","encoding","encoding","173","Table_Picnic.jpg","37","0","785"
"10","10","encoding","encoding","174","SolderingIron.jpg","37","0","732"
"10","10","encoding","encoding","175","CompassCardinal.jpg","37","0","518"
"10","10","encoding","encoding","176","Costume_Wizard.jpg","37","0","586"
"10","10","encoding","encoding","177","Pear_Yellow.jpg","36","0","716"
"10","10","retrieval","new_objects","1","Telephone_Booth.jpg","36","0","1162"
"10","10","retrieval","old_objects","2","Decoration_ChristmasWhite.jpg","36","1","911"
"10","10","retrieval","old_objects","3","Dog_ChowChow.jpg","37","0","922"
"10","10","retrieval","old_objects","4","MechanicalSpring.jpg","36","1","1069"
"10","10","retrieval","new_objects","5","Hat_Explorer.jpg","37","1","869"
"10","10","retrieval","new_objects","6","Crib_Basket.jpg","37","1","820"
"10","10","retrieval","old_objects","7","Aquarium.jpg","36","1","785"
"10","10","retrieval","new_objects","8","Tofu.jpg","37","1","778"
"10","10","retrieval","old_objects","9","Origami_Bird.jpg","37","0","775"
"10","10","retrieval","new_objects","10","Tripod.jpg","36","0","922"
"10","10","retrieval","old_objects","11","Hawk.jpg","37","0","804"
"10","10","retrieval","new_objects","12","Megaphone.jpg","37","1","844"
"10","10","retrieval","new_objects","13","Toy_Dog.jpg","37","1","660"
"10","10","retrieval","old_objects","14","Spoons_MeasuringAttached.jpg","36","1","542"
"10","10","retrieval","old_objects","15","SafetyPin.jpg","37","0","709"
"10","10","retrieval","old_objects","16","Easel.jpg","36","1","549"
"10","10","retrieval","new_objects","17","LampPost_OneBulb.jpg","37","1","577"
"10","10","retrieval","new_objects","18","Box_Wine.jpg","37","1","668"
"10","10","retrieval","old_objects","19","Basket_Plastic.jpg","36","1","614"
"10","10","retrieval","new_objects","20","DogTreat.jpg","36","0","792"
"10","10","retrieval","old_objects","21","BoogieBoard.jpg","36","1","724"
"10","10","retrieval","old_objects","22","Bottle_Beer.jpg","36","1","619"
"10","10","retrieval","old_objects","23","Stone_AncientWriting.jpg","36","1","583"
"10","10","retrieval","old_objects","24","Coin.jpg","36","1","700"
"10","10","retrieval","new_objects","25","Toy_Bat.jpg","37","1","747"
"10","10","retrieval","old_objects","26","Toy_WoodenPlainSingle.jpg","37","0","585"
"10","10","retrieval","old_objects","27","Cougar.jpg","36","1","902"
"10","10","retrieval","old_objects","28","Chair_BeanBag.jpg","36","1","573"
"10","10","retrieval","old_objects","29","Toy_Zebra.jpg","36","1","819"
"10","10","retrieval","new_objects","30","Guitar_Acoustic.jpg","37","1","724"
"10","10","retrieval","new_objects","31","Ship_Battle.jpg","37","1","802"
"10","10","retrieval","old_objects","32","Fryingpan.jpg","36","1","646"
"10","10","retrieval","old_objects","33","Tag_Price.jpg","36","1","608"
"10","10","retrieval","new_objects","34","Toy_Christmastree.jpg","37","1","682"
"10","10","retrieval","old_objects","35","Popcorn.jpg","36","1","579"
"10","10","retrieval","new_objects","36","WindshieldWasherFluid.jpg","37","1","754"
"10","10","retrieval","new_objects","37","Cart_Groceries.jpg","37","1","554"
"10","10","retrieval","old_objects","38","SolderingIron.jpg","36","1","560"
"10","10","retrieval","new_objects","39","Artichoke.jpg","37","1","620"
"10","10","retrieval","new_objects","40","Gun_Revolver.jpg","37","1","590"
"10","10","retrieval","old_objects","41","Basket_Firewood.jpg","36","1","499"
"10","10","retrieval","old_objects","42","Microphone.jpg","37","0","563"
"10","10","retrieval","new_objects","43","PumiceStone.jpg","36","0","479"
"10","10","retrieval","new_objects","44","Bottle_Champagne.jpg","37","1","655"
"10","10","retrieval","new_objects","45","DogSled.jpg","37","1","767"
"10","10","retrieval","new_objects","46","Stovetop.jpg","37","1","772"
"10","10","retrieval","new_objects","47","DustPan.jpg","37","1","743"
"10","10","retrieval","new_objects","48","ScaleWeighing.jpg","37","1","595"
"10","10","retrieval","old_objects","49","Peppermill.jpg","36","1","616"
"10","10","retrieval","new_objects","50","Ring_Diamond.jpg","37","1","607"
"10","10","retrieval","old_objects","51","Brush_Winter.jpg","36","1","782"
"10","10","retrieval","old_objects","52","Table_Pool.jpg","36","1","578"
"10","10","retrieval","old_objects","53","Weathervane.jpg","36","1","696"
"10","10","retrieval","new_objects","54","Skirt_Stripes.jpg","37","1","590"
"10","10","retrieval","old_objects","55","Cheese_Platter.jpg","36","1","774"
"10","10","retrieval","new_objects","56","DrainPlug.jpg","37","1","751"
"10","10","retrieval","new_objects","57","Horn_French.jpg","37","1","828"
"10","10","retrieval","old_objects","58","Spoons_Musical.jpg","36","1","591"
"10","10","retrieval","new_objects","59","VinylRecord.jpg","37","1","546"
"10","10","retrieval","new_objects","60","TowelRack_Brown.jpg","37","1","761"
"10","10","retrieval","new_objects","62","HumanSkeleton.jpg","37","1","760"
"10","10","retrieval","old_objects","63","Toy_DonkeyFur.jpg","36","1","737"
"10","10","retrieval","old_objects","64","Makeup_Foundation.jpg","36","1","680"
"10","10","retrieval","new_objects","65","MixingGlass.jpg","37","1","816"
"10","10","retrieval","old_objects","66","Tombstone.jpg","36","1","740"
"10","10","retrieval","old_objects","67","BikiniTop.jpg","36","1","610"
"10","10","retrieval","old_objects","68","Boots_Hiking.jpg","36","1","638"
"10","10","retrieval","old_objects","69","Hottub.jpg","37","0","800"
"10","10","retrieval","old_objects","70","Case_CD.jpg","36","1","596"
"10","10","retrieval","new_objects","71","Cloud.jpg","37","1","808"
"10","10","retrieval","old_objects","72","SandBagThrowGame.jpg","36","1","875"
"10","10","retrieval","old_objects","73","Coconut.jpg","36","1","635"
"10","10","retrieval","new_objects","74","Hat_Beanie.jpg","36","0","725"
"10","10","retrieval","new_objects","75","Shark_Hammerhead.jpg","37","1","766"
"10","10","retrieval","old_objects","76","Pot_Cooking.jpg","36","1","641"
"10","10","retrieval","old_objects","77","Clippers_Glass.jpg","36","1","719"
"10","10","retrieval","new_objects","78","Airplane_Small.jpg","37","1","737"
"10","10","retrieval","old_objects","79","Kazoo.jpg","36","1","548"
"10","10","retrieval","old_objects","80","Mask_Happy.jpg","36","1","678"
"10","10","retrieval","new_objects","81","Mask_African.jpg","37","1","630"
"10","10","retrieval","old_objects","82","Flower_Sun.jpg","36","1","577"
"10","10","retrieval","new_objects","83","ShearsGarden.jpg","36","0","677"
"10","10","retrieval","old_objects","84","Leg.jpg","36","1","603"
"10","10","retrieval","old_objects","85","Catheter.jpg","36","1","713"
"10","10","retrieval","new_objects","86","Toy_HockeyStick.jpg","37","1","568"
"10","10","retrieval","new_objects","87","Cast.jpg","37","1","716"
"10","10","retrieval","old_objects","88","Clamp_Screw.jpg","36","1","668"
"10","10","retrieval","old_objects","89","MousepadAndMouse.jpg","36","1","732"
"10","10","retrieval","old_objects","90","Truck_Dump.jpg","36","1","564"
"10","10","retrieval","new_objects","91","Stroboscope.jpg","36","0","711"
"10","10","retrieval","old_objects","92","Strainer_Tea.jpg","36","1","567"
"10","10","retrieval","new_objects","93","MagazineRoll.jpg","37","1","571"
"10","10","retrieval","new_objects","94","Desk_School.jpg","37","1","512"
"10","10","retrieval","new_objects","95","Telephone_Dial.jpg","36","0","530"
"10","10","retrieval","old_objects","96","CompassCardinal.jpg","36","1","637"
"10","10","retrieval","old_objects","97","Accordion.jpg","36","1","584"
"10","10","retrieval","old_objects","98","Candy_GummyBear.jpg","36","1","597"
"10","10","retrieval","new_objects","99","PlayerFootball.jpg","37","1","632"
"10","10","retrieval","new_objects","100","House_Wooden.jpg","37","1","786"
"10","10","retrieval","old_objects","101","Flower_Rose.jpg","37","0","879"
"10","10","retrieval","old_objects","102","Clock_Radio.jpg","36","1","703"
"10","10","retrieval","new_objects","103","Drum_Tall.jpg","37","1","673"
"10","10","retrieval","new_objects","104","Parcel.jpg","36","0","612"
"10","10","retrieval","old_objects","105","Hanger.jpg","37","0","928"
"10","10","retrieval","new_objects","106","Candy_Caramel.jpg","37","1","702"
"10","10","retrieval","old_objects","107","LifeJacket_Orangejpg.jpg","36","1","710"
"10","10","retrieval","new_objects","108","Toy_Slide.jpg","37","1","997"
"10","10","retrieval","new_objects","109","PagodaModel.jpg","37","1","848"
"10","10","retrieval","new_objects","110","Chime.jpg","37","1","711"
"10","10","retrieval","old_objects","111","DayPlanner.jpg","36","1","560"
"10","10","retrieval","new_objects","112","SundaeBanana.jpg","37","1","668"
"10","10","retrieval","new_objects","113","Mitt_Blue.jpg","37","1","844"
"10","10","retrieval","old_objects","114","Sock_Ankle.jpg","36","1","753"
"10","10","retrieval","old_objects","115","Bag_Garbage.jpg","36","1","620"
"10","10","retrieval","old_objects","116","Clip_Chip.jpg","36","1","559"
"10","10","retrieval","old_objects","117","Castle_Model.jpg","36","1","703"
"10","10","retrieval","old_objects","118","Donut.jpg","36","1","556"
"10","10","retrieval","old_objects","119","WorldMap.jpg","36","1","690"
"10","10","retrieval","new_objects","120","SeatBuckle.jpg","37","1","649"
"10","10","retrieval","new_objects","121","Arch.jpg","37","1","682"
"10","10","retrieval","new_objects","123","Lei.jpg","37","1","743"
"10","10","retrieval","new_objects","124","Fuse.jpg","37","1","676"
"10","10","retrieval","old_objects","125","Bird_Parrot.jpg","36","1","557"
"10","10","retrieval","new_objects","126","Bagel.jpg","36","0","530"
"10","10","retrieval","new_objects","127","Seeder.jpg","37","1","623"
"10","10","retrieval","old_objects","128","Lamp_TableWhite.jpg","37","0","702"
"10","10","retrieval","new_objects","129","Starfish.jpg","37","1","617"
"10","10","retrieval","new_objects","130","Ferret.jpg","37","1","664"
"10","10","retrieval","new_objects","131","TartStrawberry.jpg","37","1","714"
"10","10","retrieval","old_objects","132","Chicken_FriedDrum.jpg","36","1","658"
"10","10","retrieval","old_objects","133","Shampoo.jpg","36","1","603"
"10","10","retrieval","new_objects","134","Scrabble.jpg","37","1","676"
"10","10","retrieval","new_objects","135","Corkboard.jpg","37","1","630"
"10","10","retrieval","old_objects","136","CoffeeLid.jpg","37","0","667"
"10","10","retrieval","new_objects","137","Truck_Pickup.jpg","37","1","817"
"10","10","retrieval","new_objects","138","Toilet.jpg","37","1","750"
"10","10","retrieval","old_objects","139","FoodMill.jpg","36","1","692"
"10","10","retrieval","new_objects","140","Knife_Camping.jpg","37","1","803"
"10","10","retrieval","old_objects","141","Leaf_Green.jpg","36","1","742"
"10","10","retrieval","new_objects","142","SpongeScrubbing.jpg","37","1","611"
"10","10","retrieval","new_objects","143","Car_Totalled.jpg","37","1","789"
"10","10","retrieval","new_objects","144","Pear_Green.jpg","36","0","585"
"10","10","retrieval","new_objects","145","WagonPilgrim.jpg","37","1","596"
"10","10","retrieval","new_objects","146","PaintBrushAndPallette.jpg","37","1","599"
"10","10","retrieval","old_objects","147","Thermometer_Room.jpg","37","0","554"
"10","10","retrieval","old_objects","148","Swing_Porch.jpg","36","1","777"
"10","10","retrieval","new_objects","149","Missile.jpg","37","1","765"
"10","10","retrieval","new_objects","150","Playground.jpg","37","1","592"
"10","10","retrieval","new_objects","151","Hat_Sheriff.jpg","37","1","691"
"10","10","retrieval","old_objects","152","Pepperoni.jpg","36","1","651"
"10","10","retrieval","old_objects","153","GingerbreadMan.jpg","36","1","731"
"10","10","retrieval","new_objects","154","Cookie.jpg","36","0","1139"
"10","10","retrieval","new_objects","155","SkullDeer.jpg","37","1","831"
"10","10","retrieval","new_objects","156","Heater_ElectricUpright.jpg","37","1","609"
"10","10","retrieval","old_objects","157","AirTank.jpg","36","1","698"
"10","10","retrieval","old_objects","158","Ring_Plain.jpg","36","1","637"
"10","10","retrieval","old_objects","159","Cup_Latte.jpg","36","1","592"
"10","10","retrieval","new_objects","160","Chair_Deck.jpg","36","0","739"
"10","10","retrieval","old_objects","161","Costume_Wizard.jpg","36","1","609"
"10","10","retrieval","new_objects","162","Cable_AudioSplitter.jpg","37","1","667"
"10","10","retrieval","new_objects","163","HandRake.jpg","37","1","684"
"10","10","retrieval","new_objects","164","PhoneJack.jpg","37","1","1027"
"10","10","retrieval","old_objects","165","Spotlight.jpg","36","1","613"
"10","10","retrieval","old_objects","166","Hat_Colonial.jpg","36","1","624"
"10","10","retrieval","old_objects","167","PowderProtein.jpg","36","1","731"
"10","10","retrieval","new_objects","168","Nightstand.jpg","37","1","721"
"10","10","retrieval","old_objects","169","Mask_Buddhist.jpg","36","1","736"
"10","10","retrieval","old_objects","170","Almond.jpg","36","1","551"
"10","10","retrieval","old_objects","171","Table_Picnic.jpg","36","1","606"
"10","10","retrieval","new_objects","172","Compressor.jpg","36","0","737"
"10","10","retrieval","old_objects","173","Notepad_WithPen.jpg","36","1","608"
"10","10","retrieval","old_objects","174","ShoeLace_Round.jpg","36","1","606"
"10","10","retrieval","old_objects","175","Egg_Wooden.jpg","36","1","551"
"10","10","retrieval","old_objects","176","Pipette.jpg","36","1","605"
"10","10","retrieval","old_objects","177","Crackers_Ritz.jpg","36","1","577"
"10","10","retrieval","new_objects","178","Fan_Straw.jpg","37","1","853"
"10","10","retrieval","old_objects","179","LifeJacket_BlueYellow.jpg","36","1","751"
"10","10","retrieval","old_objects","180","Napkin_Holder.jpg","36","1","621"
"10","10","retrieval","new_objects","181","Wallet_ClosedBlack.jpg","37","1","735"
"10","10","retrieval","old_objects","182","Cake_Cheese.jpg","36","1","662"
"10","10","retrieval","new_objects","184","Armchair.jpg","37","1","786"
"10","10","retrieval","new_objects","185","Scoop_IceCream.jpg","36","0","670"
"10","10","retrieval","new_objects","186","DryRack_Clothes.jpg","36","0","709"
"10","10","retrieval","old_objects","187","Toy_PandaPlushie.jpg","36","1","540"
"10","10","retrieval","new_objects","188","PillBottle_Spilled.jpg","37","1","802"
"10","10","retrieval","old_objects","189","Camel_Bactrian.jpg","36","1","509"
"10","10","retrieval","new_objects","190","RugRoled.jpg","37","1","675"
"10","10","retrieval","old_objects","191","Telescope.jpg","36","1","549"
"10","10","retrieval","new_objects","192","Blueprints.jpg","37","1","653"
"10","10","retrieval","new_objects","193","Pot_CastIron.jpg","36","0","681"
"10","10","retrieval","old_objects","194","DoorBell.jpg","36","1","582"
"10","10","retrieval","new_objects","195","Toy_DinosaurTRex.jpg","37","1","710"
"10","10","retrieval","old_objects","196","Pepper_Green.jpg","36","1","622"
"10","10","retrieval","new_objects","197","Corkscrew.jpg","36","0","512"
"10","10","retrieval","old_objects","198","Paddle_Bread.jpg","36","1","503"
"10","10","retrieval","new_objects","199","SaxophoneSoprano.jpg","36","0","823"
"10","10","retrieval","old_objects","200","Diode.jpg","36","1","649"
"10","10","retrieval","old_objects","201","Toolbox_Red.jpg","37","0","674"
"10","10","retrieval","new_objects","202","Stick_Honey.jpg","36","0","748"
"10","10","retrieval","old_objects","203","Tribunal_Wooden.jpg","36","1","577"
"10","10","retrieval","old_objects","204","Truck_Tanker.jpg","36","1","702"
"10","10","retrieval","new_objects","205","Statue_Jesus.jpg","37","1","844"
"10","10","retrieval","new_objects","206","Gum_Pack.jpg","37","1","781"
"10","10","retrieval","old_objects","207","Cross.jpg","37","0","647"
"10","10","retrieval","old_objects","208","Pacifier.jpg","36","1","884"
"10","10","retrieval","new_objects","209","Fridge.jpg","37","1","787"
"10","10","retrieval","old_objects","210","Bottle_Wine.jpg","36","1","600"
"10","10","retrieval","old_objects","211","Shrimp.jpg","36","1","643"
"10","10","retrieval","old_objects","212","NeedlesAcupuncture.jpg","36","1","614"
"10","10","retrieval","new_objects","213","Switch_Power.jpg","37","1","752"
"10","10","retrieval","new_objects","214","TeethModel.jpg","37","1","837"
"10","10","retrieval","old_objects","215","Car_Buggy.jpg","36","1","793"
"10","10","retrieval","old_objects","216","Hubcap.jpg","36","1","638"
"10","10","retrieval","old_objects","217","Stick_Bridge.jpg","36","1","709"
"10","10","retrieval","new_objects","218","Neckrest.jpg","37","1","652"
"10","10","retrieval","new_objects","219","RibbonPin.jpg","37","1","781"
"10","10","retrieval","old_objects","220","Garlic_Whole.jpg","36","1","601"
"10","10","retrieval","old_objects","221","Notepad.jpg","36","1","661"
"10","10","retrieval","old_objects","222","Keys_Bunch.jpg","36","1","639"
"10","10","retrieval","old_objects","223","Garbage_GreenBin.jpg","37","0","698"
"10","10","retrieval","old_objects","224","Camera_Security.jpg","36","1","746"
"10","10","retrieval","new_objects","225","SlushieMachine.jpg","37","1","774"
"10","10","retrieval","old_objects","226","Shoes_Snow.jpg","36","1","707"
"10","10","retrieval","old_objects","227","Toy_BearBluePlushie.jpg","37","0","803"
"10","10","retrieval","new_objects","228","CapGraduation.jpg","37","1","909"
"10","10","retrieval","new_objects","229","PhoneCase.jpg","37","1","843"
"10","10","retrieval","new_objects","230","Candy_Cane.jpg","37","1","732"
"10","10","retrieval","new_objects","231","WalkieTalkie_Yellow.jpg","37","1","778"
"10","10","retrieval","old_objects","232","Alfalfa.jpg","36","1","614"
"10","10","retrieval","new_objects","233","WaterWell.jpg","37","1","681"
"10","10","retrieval","new_objects","234","Toy_BeadMaze.jpg","36","0","808"
"10","10","retrieval","new_objects","235","Bowl_Chopsticks.jpg","37","1","747"
"10","10","retrieval","new_objects","236","WalkieTalkie_Red.jpg","37","1","748"
"10","10","retrieval","new_objects","237","Bag_Toiletry.jpg","37","1","699"
"10","10","retrieval","old_objects","238","Carousel.jpg","36","1","1387"
"10","10","retrieval","new_objects","239","fries.jpg","37","1","798"
"10","10","retrieval","new_objects","240","Scarecrow.jpg","37","1","784"
"10","10","retrieval","new_objects","241","Icepick.jpg","37","1","820"
"10","10","retrieval","new_objects","242","TissueBox.jpg","37","1","774"
"10","10","retrieval","old_objects","243","DogFood.jpg","36","1","635"
"10","10","retrieval","old_objects","245","Light_Siren.jpg","36","1","806"
"10","10","retrieval","old_objects","246","Freezer.jpg","36","1","730"
"10","10","retrieval","old_objects","247","HairScrunchie.jpg","36","1","680"
"10","10","retrieval","old_objects","248","FileFolder.jpg","36","1","625"
"10","10","retrieval","old_objects","249","Tortilla.jpg","36","1","628"
"10","10","retrieval","old_objects","250","Fruit_Carambola.jpg","36","1","647"
"10","10","retrieval","old_objects","251","Peeler.jpg","36","1","698"
"10","10","retrieval","old_objects","252","Case_Leather.jpg","36","1","673"
"10","10","retrieval","new_objects","253","Syringe_Needle.jpg","36","0","612"
"10","10","retrieval","old_objects","254","Butterfly.jpg","36","1","648"
"10","10","retrieval","new_objects","255","Tambourine.jpg","37","1","682"
"10","10","retrieval","new_objects","256","Gazebo.jpg","37","1","932"
"10","10","retrieval","new_objects","257","CandyDispenser.jpg","37","1","857"
"10","10","retrieval","old_objects","258","Honeydew_yellow.jpg","36","1","610"
"10","10","retrieval","new_objects","259","FloppyDisk.jpg","37","1","772"
"10","10","retrieval","new_objects","260","Fish_Swordfish.jpg","36","0","649"
"10","10","retrieval","new_objects","261","Shovel_Garden.jpg","37","1","786"
"10","10","retrieval","old_objects","262","Qtip_Multiple.jpg","36","1","615"
"10","10","retrieval","new_objects","263","Stapler_Regular.jpg","37","1","801"
"10","10","retrieval","old_objects","264","IceCream_Popsicle.jpg","37","0","637"
"10","10","retrieval","old_objects","265","Pillow_Plaid.jpg","37","0","744"
"10","10","retrieval","old_objects","266","Necklace_Pearl.jpg","36","1","579"
"10","10","retrieval","old_objects","267","Joystick.jpg","36","1","696"
"10","10","retrieval","new_objects","268","Hourglass.jpg","37","1","848"
"10","10","retrieval","new_objects","269","Pepper_Chili.jpg","37","1","785"
"10","10","retrieval","old_objects","270","Cannoli.jpg","36","1","717"
"10","10","retrieval","new_objects","271","Pliers_ViceGrip.jpg","37","1","876"
"10","10","retrieval","new_objects","272","Crab.jpg","37","1","884"
"10","10","retrieval","new_objects","273","Hammock.jpg","36","0","843"
"10","10","retrieval","new_objects","274","BakingDish.jpg","37","1","779"
"10","10","retrieval","old_objects","275","Rock_Mimetite.jpg","36","1","887"
"10","10","retrieval","new_objects","276","Cart_Wooden.jpg","37","1","759"
"10","10","retrieval","old_objects","277","Kneepad.jpg","36","1","700"
"10","10","retrieval","new_objects","278","Pouch_Red.jpg","36","0","715"
"10","10","retrieval","old_objects","279","Instrument_Nyckelharpa.jpg","36","1","745"
"10","10","retrieval","old_objects","280","CookieCutter_Tree.jpg","36","1","649"
"10","10","retrieval","old_objects","281","Bird_Peacock.jpg","36","1","667"
"10","10","retrieval","old_objects","282","Lighter_Black.jpg","36","1","629"
"10","10","retrieval","new_objects","283","Steam_Cleaner.jpg","37","1","702"
"10","10","retrieval","old_objects","284","Compact_Mirror.jpg","36","1","670"
"10","10","retrieval","new_objects","285","Glass_Cup.jpg","37","1","695"
"10","10","retrieval","new_objects","286","Glasses_Sun.jpg","37","1","789"
"10","10","retrieval","old_objects","287","Truck_VintageBlue.jpg","37","0","810"
"10","10","retrieval","new_objects","288","CrepeMaker.jpg","37","1","860"
"10","10","retrieval","old_objects","289","HardDrive.jpg","36","1","733"
"10","10","retrieval","old_objects","290","Bowl_Wooden.jpg","36","1","620"
"10","10","retrieval","old_objects","291","Bottle_BubbleBlower.jpg","36","1","784"
"10","10","retrieval","new_objects","292","Pig.jpg","37","1","627"
"10","10","retrieval","old_objects","293","Thermostat.jpg","36","1","687"
"10","10","retrieval","new_objects","294","Bone.jpg","37","1","741"
"10","10","retrieval","new_objects","295","Vase_Decorative.jpg","37","1","650"
"10","10","retrieval","new_objects","296","Jar_Cotton.jpg","37","1","891"
"10","10","retrieval","new_objects","297","Folder_Plastic.jpg","37","1","793"
"10","10","retrieval","old_objects","298","Printer.jpg","37","0","734"
"10","10","retrieval","old_objects","299","Hangar.jpg","36","1","763"
"10","10","retrieval","new_objects","300","Fencing_HelmetSwords.jpg","37","1","680"
"10","10","retrieval","new_objects","301","Case_DVD.jpg","37","1","880"
"10","10","retrieval","new_objects","302","Platter_Vegetables.jpg","37","1","787"
"10","10","retrieval","old_objects","303","Jar_Canopic.jpg","36","1","739"
"10","10","retrieval","new_objects","304","Earrings_Dangling.jpg","37","1","705"
"10","10","retrieval","new_objects","306","Radio_Antique.jpg","37","1","651"
"10","10","retrieval","new_objects","307","Jug_ClayAncient.jpg","37","1","913"
"10","10","retrieval","new_objects","308","Spoon_Wooden.jpg","37","1","885"
"10","10","retrieval","new_objects","309","Cauliflower.jpg","36","0","1077"
"10","10","retrieval","old_objects","310","Candy_Cotton.jpg","36","1","687"
"10","10","retrieval","new_objects","311","Walkman.jpg","37","1","853"
"10","10","retrieval","old_objects","312","SpaceRover.jpg","36","1","723"
"10","10","retrieval","new_objects","313","CarSeat.jpg","37","1","893"
"10","10","retrieval","new_objects","314","Pen_Calligraphy.jpg","37","1","956"
"10","10","retrieval","old_objects","315","Qtip_Single.jpg","36","1","609"
"10","10","retrieval","old_objects","316","Paddle_Ball.jpg","36","1","598"
"10","10","retrieval","new_objects","317","Pants_Firefighter.jpg","36","0","754"
"10","10","retrieval","old_objects","318","WashRack.jpg","36","1","615"
"10","10","retrieval","old_objects","319","LightBulb_Christmas.jpg","36","1","675"
"10","10","retrieval","new_objects","320","Pajamas.jpg","37","1","651"
"10","10","retrieval","old_objects","321","Toy_Taxi.jpg","36","1","733"
"10","10","retrieval","new_objects","322","Lion.jpg","36","0","690"
"10","10","retrieval","old_objects","323","Bucket_Champagne.jpg","36","1","859"
"10","10","retrieval","new_objects","324","Box_Notepaper.jpg","37","1","827"
"10","10","retrieval","old_objects","325","Bowl_Fruits.jpg","36","1","637"
"10","10","retrieval","old_objects","326","VacuumHead.jpg","36","1","741"
"10","10","retrieval","old_objects","327","Teabag.jpg","36","1","622"
"10","10","retrieval","new_objects","328","Turtle.jpg","37","1","720"
"10","10","retrieval","new_objects","329","HDMIConnector.jpg","37","1","814"
"10","10","retrieval","new_objects","330","PlantPotted.jpg","36","0","905"
"10","10","retrieval","old_objects","331","Bench_Black.jpg","36","1","840"
"10","10","retrieval","old_objects","332","DarthVader.jpg","36","1","626"
"10","10","retrieval","old_objects","333","Bulldozer.jpg","36","1","693"
"10","10","retrieval","old_objects","334","Mirror_Carside.jpg","37","0","717"
"10","10","retrieval","old_objects","335","SiloGrain.jpg","36","1","837"
"10","10","retrieval","new_objects","336","Spoon_Sugar.jpg","37","1","734"
"10","10","retrieval","new_objects","337","DoorBolt.jpg","37","1","869"
"10","10","retrieval","new_objects","338","Snake_Cobra.jpg","36","0","832"
"10","10","retrieval","old_objects","339","Sign_Open.jpg","36","1","1078"
"10","10","retrieval","old_objects","340","Fish_Rockbass.jpg","36","1","798"
"10","10","retrieval","new_objects","341","Lips_Wax.jpg","37","1","753"
"10","10","retrieval","new_objects","342","WaterCooler.jpg","37","1","797"
"10","10","retrieval","old_objects","343","Switch_LightBlack.jpg","36","1","949"
"10","10","retrieval","old_objects","344","Shark_GreatWhite.jpg","36","1","855"
"10","10","retrieval","new_objects","345","HotWaterBottle.jpg","36","0","783"
"10","10","retrieval","old_objects","346","Pear_Yellow.jpg","36","1","784"
"10","10","retrieval","new_objects","347","MeterElectric.jpg","37","1","662"
"10","10","retrieval","new_objects","348","DoorHandle.jpg","37","1","777"
"10","10","retrieval","new_objects","349","Toy_Lizard.jpg","36","0","762"
"10","10","retrieval","old_objects","350","Bandage_Adhesive.jpg","37","0","1015"
"10","10","retrieval","new_objects","351","Candy_Toffee.jpg","37","1","745"
"10","10","retrieval","new_objects","352","Sign_Washroom.jpg","37","1","686"
"10","10","retrieval","old_objects","353","SaladCaesar.jpg","36","1","567"
"10","10","retrieval","new_objects","354","PokerChips.jpg","37","1","716"
"10","10","retrieval","new_objects","355","Shoes_DutchClogs.jpg","37","1","714"
"10","10","demographics_block","gender","1","Shoes_DutchClogs.jpg","Female","1","9938"
"10","10","demographics_block","age","1","Shoes_DutchClogs.jpg","49","1","9938"
"10","10","demographics_block","education","1","Shoes_DutchClogs.jpg","16","1","9938"
"10","10","demographics_block","left_right_handed","2","Shoes_DutchClogs.jpg","Right","1","9392"
"10","10","demographics_block","raceoption1","2","Shoes_DutchClogs.jpg","0","1","9392"
"10","10","demographics_block","raceoption2","2","Shoes_DutchClogs.jpg","","1","9392"
"10","10","demographics_block","raceoption3","2","Shoes_DutchClogs.jpg","","1","9392"
"10","10","demographics_block","raceoption4","2","Shoes_DutchClogs.jpg","","1","9392"
"10","10","demographics_block","raceoption5","2","Shoes_DutchClogs.jpg","","1","9392"
"10","10","demographics_block","raceoption6","2","Shoes_DutchClogs.jpg","","1","9392"
"10","10","demographics_block","raceoption7","2","Shoes_DutchClogs.jpg","","1","9392"
"10","10","demographics_block","raceoption8","2","Shoes_DutchClogs.jpg","","1","9392"
"10","10","demographics_block","raceoption9","2","Shoes_DutchClogs.jpg","","1","9392"
"10","10","demographics_block","raceother","2","Shoes_DutchClogs.jpg","","1","9392"
"10","10","demographics_block","raceother","2","Shoes_DutchClogs.jpg","","1","9392"
"10","10","demographics_block","english_language","2","Shoes_DutchClogs.jpg","Yes","1","9392"
"10","10","demographics_block","english_languageother","2","Shoes_DutchClogs.jpg","","1","9392"
"10","10","demographics_block","eyesight","3","Shoes_DutchClogs.jpg","Yes","1","4700"
"10","10","demographics_block","colorblind","3","Shoes_DutchClogs.jpg","No","1","4700"
"10","10","worker_id_block","worker_id_textbox","1","Shoes_DutchClogs.jpg","A2JP8W265WCC35","1","5625"
"12","12","encoding","encoding","1","Clippers_Glass.jpg","36","0","868"
"12","12","encoding","encoding","2","Coconut.jpg","36","0","1794"
"12","12","encoding","encoding","3","Bowl_Fruits.jpg","36","0","1545"
"12","12","encoding","encoding","4","Almond.jpg","36","0","1304"
"12","12","encoding","encoding","5","Mask_Happy.jpg","37","0","1761"
"12","12","encoding","encoding","6","CompassCardinal.jpg","37","0","1399"
"12","12","encoding","encoding","7","Leaf_Green.jpg","36","0","910"
"12","12","encoding","encoding","8","Car_Buggy.jpg","37","0","1822"
"12","12","encoding","encoding","9","Fish_Rockbass.jpg","36","0","1212"
"12","12","encoding","encoding","10","Butterfly.jpg","36","0","1004"
"12","12","encoding","encoding","11","Kneepad.jpg","0","0","2001"
"12","12","encoding","encoding","12","Thermometer_Room.jpg","37","0","1943"
"12","12","encoding","encoding","13","Pear_Yellow.jpg","0","0","2001"
"12","12","encoding","encoding","14","Spoons_MeasuringAttached.jpg","37","0","956"
"12","12","encoding","encoding","15","LightBulb_Christmas.jpg","37","0","1226"
"12","12","encoding","encoding","16","Brush_Winter.jpg","37","0","1154"
"12","12","encoding","encoding","17","IceCream_Popsicle.jpg","37","0","1008"
"12","12","encoding","encoding","18","Teabag.jpg","37","0","943"
"12","12","encoding","encoding","19","Basket_Firewood.jpg","37","0","1022"
"12","12","encoding","encoding","20","Bowl_Wooden.jpg","37","0","1604"
"12","12","encoding","encoding","21","Camera_Security.jpg","37","0","1217"
"12","12","encoding","encoding","22","Accordion.jpg","37","0","1031"
"12","12","encoding","encoding","23","Chicken_FriedDrum.jpg","37","0","902"
"12","12","encoding","encoding","24","CoffeeLid.jpg","37","0","997"
"12","12","encoding","encoding","25","Light_Siren.jpg","37","0","1837"
"12","12","encoding","encoding","26","Mirror_Carside.jpg","37","0","1291"
"12","12","encoding","encoding","27","Flower_Sun.jpg","36","0","817"
"12","12","encoding","encoding","28","Bulldozer.jpg","37","0","705"
"12","12","encoding","encoding","29","Crackers_Ritz.jpg","37","0","606"
"12","12","encoding","encoding","30","Compact_Mirror.jpg","37","0","965"
"12","12","encoding","encoding","31","Hottub.jpg","37","0","1013"
"12","12","encoding","encoding","32","Castle_Model.jpg","37","0","1539"
"12","12","encoding","encoding","33","Bag_Garbage.jpg","37","0","802"
"12","12","encoding","encoding","34","Case_CD.jpg","37","0","824"
"12","12","encoding","encoding","35","Origami_Bird.jpg","37","0","646"
"12","12","encoding","encoding","36","Bottle_Beer.jpg","37","0","806"
"12","12","encoding","encoding","37","Instrument_Nyckelharpa.jpg","37","0","612"
"12","12","encoding","encoding","38","Cake_Cheese.jpg","37","0","899"
"12","12","encoding","encoding","39","LifeJacket_Orangejpg.jpg","37","0","736"
"12","12","encoding","encoding","40","Flower_Rose.jpg","36","0","735"
"12","12","encoding","encoding","41","PowderProtein.jpg","37","0","1079"
"12","12","encoding","encoding","42","Shark_GreatWhite.jpg","36","0","997"
"12","12","encoding","encoding","43","Hawk.jpg","36","0","1004"
"12","12","encoding","encoding","44","Cup_Latte.jpg","37","0","883"
"12","12","encoding","encoding","45","DayPlanner.jpg","37","0","1073"
"12","12","encoding","encoding","46","SaladCaesar.jpg","37","0","1047"
"12","12","encoding","encoding","47","DoorBell.jpg","37","0","1091"
"12","12","encoding","encoding","48","Honeydew_yellow.jpg","36","0","1074"
"12","12","encoding","encoding","49","Mask_Buddhist.jpg","37","0","807"
"12","12","encoding","encoding","50","HairScrunchie.jpg","37","0","1007"
"12","12","encoding","encoding","51","Costume_Wizard.jpg","37","0","893"
"12","12","encoding","encoding","52","Stick_Bridge.jpg","37","0","548"
"12","12","encoding","encoding","53","Aquarium.jpg","37","0","1309"
"12","12","encoding","encoding","54","Tag_Price.jpg","37","0","787"
"12","12","encoding","encoding","55","Joystick.jpg","37","0","682"
"12","12","encoding","encoding","56","HardDrive.jpg","37","0","609"
"12","12","encoding","encoding","57","MousepadAndMouse.jpg","37","0","1006"
"12","12","encoding","encoding","58","Toy_PandaPlushie.jpg","37","0","933"
"12","12","encoding","encoding","59","Necklace_Pearl.jpg","37","0","875"
"12","12","encoding","encoding","60","Toolbox_Red.jpg","37","0","1338"
"12","12","encoding","encoding","62","FileFolder.jpg","37","0","911"
"12","12","encoding","encoding","63","Kazoo.jpg","37","0","894"
"12","12","encoding","encoding","64","Dog_ChowChow.jpg","37","0","973"
"12","12","encoding","encoding","65","Spotlight.jpg","37","0","1484"
"12","12","encoding","encoding","66","Carousel.jpg","37","0","634"
"12","12","encoding","encoding","67","Bird_Peacock.jpg","36","0","1306"
"12","12","encoding","encoding","68","Spoons_Musical.jpg","0","0","2001"
"12","12","encoding","encoding","69","Chair_BeanBag.jpg","37","0","645"
"12","12","encoding","encoding","70","ShoeLace_Round.jpg","37","0","1028"
"12","12","encoding","encoding","71","SpaceRover.jpg","37","0","1331"
"12","12","encoding","encoding","72","Coin.jpg","37","0","1049"
"12","12","encoding","encoding","73","Truck_VintageBlue.jpg","37","0","656"
"12","12","encoding","encoding","74","Napkin_Holder.jpg","37","0","1135"
"12","12","encoding","encoding","75","Hangar.jpg","37","0","1252"
"12","12","encoding","encoding","76","Table_Pool.jpg","37","0","1260"
"12","12","encoding","encoding","77","BoogieBoard.jpg","37","0","682"
"12","12","encoding","encoding","78","WorldMap.jpg","37","0","954"
"12","12","encoding","encoding","79","Case_Leather.jpg","37","0","1183"
"12","12","encoding","encoding","80","SandBagThrowGame.jpg","37","0","678"
"12","12","encoding","encoding","81","Bird_Parrot.jpg","36","0","636"
"12","12","encoding","encoding","82","Qtip_Multiple.jpg","37","0","1667"
"12","12","encoding","encoding","83","Donut.jpg","37","0","1496"
"12","12","encoding","encoding","84","VacuumHead.jpg","37","0","711"
"12","12","encoding","encoding","85","Rock_Mimetite.jpg","37","0","861"
"12","12","encoding","encoding","86","Toy_BearBluePlushie.jpg","37","0","835"
"12","12","encoding","encoding","87","Pacifier.jpg","37","0","746"
"12","12","encoding","encoding","88","Shoes_Snow.jpg","37","0","649"
"12","12","encoding","encoding","89","Egg_Wooden.jpg","37","0","1039"
"12","12","encoding","encoding","90","Alfalfa.jpg","36","0","702"
"12","12","encoding","encoding","91","Telescope.jpg","37","0","725"
"12","12","encoding","encoding","92","Table_Picnic.jpg","37","0","1530"
"12","12","encoding","encoding","93","Boots_Hiking.jpg","37","0","970"
"12","12","encoding","encoding","94","Pipette.jpg","37","0","719"
"12","12","encoding","encoding","95","Toy_Zebra.jpg","37","0","1918"
"12","12","encoding","encoding","96","Weathervane.jpg","37","0","868"
"12","12","encoding","encoding","97","DarthVader.jpg","37","0","564"
"12","12","encoding","encoding","98","Strainer_Tea.jpg","37","0","706"
"12","12","encoding","encoding","99","Shrimp.jpg","36","0","1040"
"12","12","encoding","encoding","100","Thermostat.jpg","37","0","791"
"12","12","encoding","encoding","101","Printer.jpg","37","0","1597"
"12","12","encoding","encoding","102","Fruit_Carambola.jpg","36","0","1596"
"12","12","encoding","encoding","103","NeedlesAcupuncture.jpg","37","0","1329"
"12","12","encoding","encoding","104","Peppermill.jpg","37","0","1224"
"12","12","encoding","encoding","105","Bucket_Champagne.jpg","37","0","656"
"12","12","encoding","encoding","106","Clamp_Screw.jpg","37","0","750"
"12","12","encoding","encoding","107","WashRack.jpg","37","0","531"
"12","12","encoding","encoding","108","Peeler.jpg","37","0","586"
"12","12","encoding","encoding","109","Bandage_Adhesive.jpg","37","0","848"
"12","12","encoding","encoding","110","Bench_Black.jpg","37","0","592"
"12","12","encoding","encoding","111","Cannoli.jpg","37","0","1030"
"12","12","encoding","encoding","112","MechanicalSpring.jpg","37","0","598"
"12","12","encoding","encoding","113","Toy_DonkeyFur.jpg","36","0","1277"
"12","12","encoding","encoding","114","Lighter_Black.jpg","37","0","1314"
"12","12","encoding","encoding","115","Freezer.jpg","37","0","746"
"12","12","encoding","encoding","116","BikiniTop.jpg","37","0","657"
"12","12","encoding","encoding","117","Switch_LightBlack.jpg","37","0","1048"
"12","12","encoding","encoding","118","SafetyPin.jpg","37","0","590"
"12","12","encoding","encoding","119","Tribunal_Wooden.jpg","37","0","780"
"12","12","encoding","encoding","120","Bottle_Wine.jpg","37","0","802"
"12","12","encoding","encoding","121","Basket_Plastic.jpg","37","0","562"
"12","12","encoding","encoding","123","Paddle_Bread.jpg","37","0","762"
"12","12","encoding","encoding","124","Microphone.jpg","37","0","1066"
"12","12","encoding","encoding","125","Easel.jpg","37","0","577"
"12","12","encoding","encoding","126","FoodMill.jpg","37","0","511"
"12","12","encoding","encoding","127","Clock_Radio.jpg","37","0","718"
"12","12","encoding","encoding","128","Ring_Plain.jpg","37","0","956"
"12","12","encoding","encoding","129","Decoration_ChristmasWhite.jpg","37","0","1011"
"12","12","encoding","encoding","130","CookieCutter_Tree.jpg","0","0","2001"
"12","12","encoding","encoding","131","Stone_AncientWriting.jpg","37","0","669"
"12","12","encoding","encoding","132","LifeJacket_BlueYellow.jpg","37","0","828"
"12","12","encoding","encoding","133","AirTank.jpg","37","0","890"
"12","12","encoding","encoding","134","Keys_Bunch.jpg","37","0","906"
"12","12","encoding","encoding","135","Sock_Ankle.jpg","37","0","1538"
"12","12","encoding","encoding","136","Clip_Chip.jpg","37","0","1168"
"12","12","encoding","encoding","137","Hanger.jpg","37","0","1103"
"12","12","encoding","encoding","138","SiloGrain.jpg","37","0","941"
"12","12","encoding","encoding","139","Makeup_Foundation.jpg","37","0","1019"
"12","12","encoding","encoding","140","Notepad_WithPen.jpg","37","0","931"
"12","12","encoding","encoding","141","Garbage_GreenBin.jpg","37","0","512"
"12","12","encoding","encoding","142","Toy_Taxi.jpg","37","0","566"
"12","12","encoding","encoding","143","DogFood.jpg","37","0","893"
"12","12","encoding","encoding","144","Tortilla.jpg","37","0","1075"
"12","12","encoding","encoding","145","Camel_Bactrian.jpg","36","0","907"
"12","12","encoding","encoding","146","Notepad.jpg","37","0","1096"
"12","12","encoding","encoding","147","Bottle_BubbleBlower.jpg","37","0","535"
"12","12","encoding","encoding","148","Cross.jpg","37","0","717"
"12","12","encoding","encoding","149","Hat_Colonial.jpg","37","0","1044"
"12","12","encoding","encoding","150","Paddle_Ball.jpg","37","0","947"
"12","12","encoding","encoding","151","Popcorn.jpg","37","0","872"
"12","12","encoding","encoding","152","Pot_Cooking.jpg","37","0","918"
"12","12","encoding","encoding","153","Candy_GummyBear.jpg","37","0","749"
"12","12","encoding","encoding","154","GingerbreadMan.jpg","37","0","924"
"12","12","encoding","encoding","155","Cougar.jpg","36","0","609"
"12","12","encoding","encoding","156","Tombstone.jpg","37","0","1577"
"12","12","encoding","encoding","157","Fryingpan.jpg","37","0","648"
"12","12","encoding","encoding","158","Pillow_Plaid.jpg","37","0","655"
"12","12","encoding","encoding","159","Truck_Dump.jpg","37","0","1109"
"12","12","encoding","encoding","160","Catheter.jpg","37","0","780"
"12","12","encoding","encoding","161","Garlic_Whole.jpg","37","0","603"
"12","12","encoding","encoding","162","Lamp_TableWhite.jpg","37","0","746"
"12","12","encoding","encoding","163","SolderingIron.jpg","37","0","695"
"12","12","encoding","encoding","164","Pepperoni.jpg","37","0","1014"
"12","12","encoding","encoding","165","Qtip_Single.jpg","37","0","1204"
"12","12","encoding","encoding","166","Toy_WoodenPlainSingle.jpg","37","0","955"
"12","12","encoding","encoding","167","Truck_Tanker.jpg","37","0","689"
"12","12","encoding","encoding","168","Sign_Open.jpg","37","0","728"
"12","12","encoding","encoding","169","Candy_Cotton.jpg","37","0","1103"
"12","12","encoding","encoding","170","Pepper_Green.jpg","37","0","742"
"12","12","encoding","encoding","171","Cheese_Platter.jpg","37","0","1244"
"12","12","encoding","encoding","172","Diode.jpg","37","0","579"
"12","12","encoding","encoding","173","Hubcap.jpg","37","0","1041"
"12","12","encoding","encoding","174","Swing_Porch.jpg","37","0","863"
"12","12","encoding","encoding","175","Shampoo.jpg","37","0","662"
"12","12","encoding","encoding","176","Leg.jpg","36","0","1252"
"12","12","encoding","encoding","177","Jar_Canopic.jpg","37","0","1138"
"12","12","retrieval","old_objects","1","Table_Picnic.jpg","36","1","1141"
"12","12","retrieval","new_objects","2","Horn_French.jpg","37","1","751"
"12","12","retrieval","new_objects","3","CandyDispenser.jpg","37","1","726"
"12","12","retrieval","new_objects","4","Icepick.jpg","37","1","999"
"12","12","retrieval","new_objects","5","Gun_Revolver.jpg","37","1","685"
"12","12","retrieval","old_objects","6","Thermometer_Room.jpg","36","1","904"
"12","12","retrieval","old_objects","7","Carousel.jpg","37","0","770"
"12","12","retrieval","new_objects","8","Statue_Jesus.jpg","37","1","818"
"12","12","retrieval","new_objects","9","Compressor.jpg","37","1","993"
"12","12","retrieval","old_objects","10","Kneepad.jpg","37","0","784"
"12","12","retrieval","old_objects","11","Tortilla.jpg","36","1","816"
"12","12","retrieval","old_objects","12","Toy_BearBluePlushie.jpg","36","1","892"
"12","12","retrieval","old_objects","13","Peeler.jpg","36","1","743"
"12","12","retrieval","new_objects","14","DoorBolt.jpg","37","1","808"
"12","12","retrieval","old_objects","15","Catheter.jpg","36","1","631"
"12","12","retrieval","old_objects","16","Bulldozer.jpg","37","0","859"
"12","12","retrieval","new_objects","17","Mask_African.jpg","37","1","888"
"12","12","retrieval","new_objects","18","HotWaterBottle.jpg","37","1","978"
"12","12","retrieval","old_objects","19","Bowl_Wooden.jpg","36","1","578"
"12","12","retrieval","new_objects","20","fries.jpg","37","1","737"
"12","12","retrieval","new_objects","21","Blueprints.jpg","37","1","1186"
"12","12","retrieval","new_objects","22","Toy_Christmastree.jpg","37","1","1073"
"12","12","retrieval","new_objects","23","Missile.jpg","37","1","1085"
"12","12","retrieval","new_objects","24","Jug_ClayAncient.jpg","37","1","896"
"12","12","retrieval","old_objects","25","Flower_Rose.jpg","36","1","1346"
"12","12","retrieval","new_objects","26","Pepper_Chili.jpg","37","1","754"
"12","12","retrieval","old_objects","27","SafetyPin.jpg","36","1","980"
"12","12","retrieval","old_objects","28","Almond.jpg","36","1","753"
"12","12","retrieval","new_objects","29","SaxophoneSoprano.jpg","37","1","986"
"12","12","retrieval","new_objects","30","SkullDeer.jpg","37","1","681"
"12","12","retrieval","old_objects","31","Weathervane.jpg","36","1","1590"
"12","12","retrieval","old_objects","32","Crackers_Ritz.jpg","37","0","1307"
"12","12","retrieval","new_objects","33","Desk_School.jpg","37","1","1142"
"12","12","retrieval","new_objects","34","Spoon_Wooden.jpg","36","0","655"
"12","12","retrieval","new_objects","35","Fish_Swordfish.jpg","37","1","764"
"12","12","retrieval","old_objects","36","BoogieBoard.jpg","37","0","1060"
"12","12","retrieval","old_objects","37","LifeJacket_Orangejpg.jpg","36","1","679"
"12","12","retrieval","new_objects","38","Bowl_Chopsticks.jpg","37","1","778"
"12","12","retrieval","new_objects","39","Ship_Battle.jpg","37","1","889"
"12","12","retrieval","new_objects","40","FloppyDisk.jpg","36","0","1379"
"12","12","retrieval","new_objects","41","Sign_Washroom.jpg","37","1","892"
"12","12","retrieval","old_objects","42","Basket_Plastic.jpg","37","0","1303"
"12","12","retrieval","old_objects","43","Sign_Open.jpg","37","0","1049"
"12","12","retrieval","new_objects","44","Cloud.jpg","37","1","941"
"12","12","retrieval","old_objects","45","Bottle_Wine.jpg","37","0","918"
"12","12","retrieval","old_objects","46","Thermostat.jpg","36","1","983"
"12","12","retrieval","new_objects","47","DogTreat.jpg","37","1","1063"
"12","12","retrieval","new_objects","48","Arch.jpg","37","1","634"
"12","12","retrieval","new_objects","49","Steam_Cleaner.jpg","37","1","871"
"12","12","retrieval","old_objects","50","Hanger.jpg","36","1","796"
"12","12","retrieval","new_objects","51","Toy_Slide.jpg","37","1","691"
"12","12","retrieval","new_objects","52","WalkieTalkie_Yellow.jpg","36","0","1053"
"12","12","retrieval","old_objects","53","GingerbreadMan.jpg","37","0","1057"
"12","12","retrieval","new_objects","54","Skirt_Stripes.jpg","37","1","1101"
"12","12","retrieval","new_objects","55","Lips_Wax.jpg","37","1","696"
"12","12","retrieval","old_objects","56","Cross.jpg","37","0","683"
"12","12","retrieval","new_objects","57","Airplane_Small.jpg","37","1","1062"
"12","12","retrieval","new_objects","58","Cast.jpg","37","1","969"
"12","12","retrieval","old_objects","59","Camera_Security.jpg","36","1","682"
"12","12","retrieval","old_objects","60","Coin.jpg","36","1","652"
"12","12","retrieval","new_objects","62","DrainPlug.jpg","37","1","829"
"12","12","retrieval","new_objects","63","Shark_Hammerhead.jpg","37","1","730"
"12","12","retrieval","old_objects","64","Stick_Bridge.jpg","36","1","947"
"12","12","retrieval","old_objects","65","FileFolder.jpg","37","0","1083"
"12","12","retrieval","old_objects","66","Bottle_Beer.jpg","36","1","670"
"12","12","retrieval","old_objects","67","Clock_Radio.jpg","37","0","947"
"12","12","retrieval","new_objects","68","Toilet.jpg","37","1","842"
"12","12","retrieval","old_objects","69","Spotlight.jpg","37","0","855"
"12","12","retrieval","old_objects","70","Swing_Porch.jpg","37","0","1002"
"12","12","retrieval","old_objects","71","Origami_Bird.jpg","36","1","753"
"12","12","retrieval","old_objects","72","Pacifier.jpg","37","0","858"
"12","12","retrieval","new_objects","73","Knife_Camping.jpg","37","1","750"
"12","12","retrieval","new_objects","74","Cauliflower.jpg","37","1","751"
"12","12","retrieval","old_objects","75","Joystick.jpg","36","1","1007"
"12","12","retrieval","old_objects","76","Bandage_Adhesive.jpg","36","1","814"
"12","12","retrieval","old_objects","77","CompassCardinal.jpg","36","1","563"
"12","12","retrieval","old_objects","78","Leaf_Green.jpg","36","1","851"
"12","12","retrieval","new_objects","79","HDMIConnector.jpg","37","1","768"
"12","12","retrieval","old_objects","80","Toy_PandaPlushie.jpg","37","0","719"
"12","12","retrieval","old_objects","81","Tag_Price.jpg","37","0","1065"
"12","12","retrieval","old_objects","82","Fish_Rockbass.jpg","0","0","2001"
"12","12","retrieval","old_objects","83","LightBulb_Christmas.jpg","36","1","810"
"12","12","retrieval","new_objects","84","PlayerFootball.jpg","37","1","833"
"12","12","retrieval","new_objects","85","Truck_Pickup.jpg","37","1","798"
"12","12","retrieval","old_objects","86","Peppermill.jpg","36","1","788"
"12","12","retrieval","old_objects","87","Honeydew_yellow.jpg","36","1","1051"
"12","12","retrieval","old_objects","88","Jar_Canopic.jpg","36","1","633"
"12","12","retrieval","old_objects","89","Pepper_Green.jpg","36","1","798"
"12","12","retrieval","old_objects","90","Candy_GummyBear.jpg","37","0","811"
"12","12","retrieval","new_objects","91","Pen_Calligraphy.jpg","37","1","649"
"12","12","retrieval","new_objects","92","Car_Totalled.jpg","37","1","694"
"12","12","retrieval","new_objects","93","Box_Wine.jpg","37","1","936"
"12","12","retrieval","new_objects","94","PhoneJack.jpg","37","1","649"
"12","12","retrieval","new_objects","95","Corkscrew.jpg","37","1","798"
"12","12","retrieval","old_objects","96","Pepperoni.jpg","36","1","748"
"12","12","retrieval","new_objects","97","Crab.jpg","37","1","869"
"12","12","retrieval","old_objects","98","Lighter_Black.jpg","37","0","936"
"12","12","retrieval","old_objects","99","Case_Leather.jpg","37","0","1161"
"12","12","retrieval","new_objects","100","Radio_Antique.jpg","37","1","745"
"12","12","retrieval","new_objects","101","WagonPilgrim.jpg","37","1","825"
"12","12","retrieval","old_objects","102","Candy_Cotton.jpg","37","0","1119"
"12","12","retrieval","new_objects","103","HumanSkeleton.jpg","37","1","729"
"12","12","retrieval","old_objects","104","Accordion.jpg","37","0","1329"
"12","12","retrieval","old_objects","105","Basket_Firewood.jpg","36","1","987"
"12","12","retrieval","new_objects","106","SeatBuckle.jpg","37","1","1138"
"12","12","retrieval","new_objects","107","LampPost_OneBulb.jpg","37","1","1444"
"12","12","retrieval","new_objects","108","Stick_Honey.jpg","37","1","984"
"12","12","retrieval","old_objects","109","Cheese_Platter.jpg","36","1","806"
"12","12","retrieval","new_objects","110","CarSeat.jpg","37","1","853"
"12","12","retrieval","old_objects","111","Microphone.jpg","37","0","1066"
"12","12","retrieval","old_objects","112","DogFood.jpg","36","1","837"
"12","12","retrieval","new_objects","113","Bagel.jpg","37","1","1026"
"12","12","retrieval","new_objects","114","DoorHandle.jpg","37","1","863"
"12","12","retrieval","old_objects","115","Aquarium.jpg","36","1","1019"
"12","12","retrieval","old_objects","116","SaladCaesar.jpg","36","1","985"
"12","12","retrieval","old_objects","117","AirTank.jpg","37","0","935"
"12","12","retrieval","old_objects","118","Instrument_Nyckelharpa.jpg","37","0","937"
"12","12","retrieval","old_objects","119","Alfalfa.jpg","36","1","882"
"12","12","retrieval","old_objects","120","Bag_Garbage.jpg","36","1","1117"
"12","12","retrieval","old_objects","121","Makeup_Foundation.jpg","36","1","711"
"12","12","retrieval","new_objects","123","Fridge.jpg","37","1","768"
"12","12","retrieval","new_objects","124","Toy_Lizard.jpg","37","1","968"
"12","12","retrieval","new_objects","125","Toy_DinosaurTRex.jpg","37","1","694"
"12","12","retrieval","old_objects","126","Toy_WoodenPlainSingle.jpg","36","1","865"
"12","12","retrieval","new_objects","127","ScaleWeighing.jpg","37","1","1085"
"12","12","retrieval","new_objects","128","Telephone_Booth.jpg","37","1","1008"
"12","12","retrieval","old_objects","129","Brush_Winter.jpg","37","0","1079"
"12","12","retrieval","new_objects","130","Starfish.jpg","37","1","953"
"12","12","retrieval","old_objects","131","Stone_AncientWriting.jpg","37","0","1161"
"12","12","retrieval","new_objects","132","Crib_Basket.jpg","37","1","1193"
"12","12","retrieval","old_objects","133","Kazoo.jpg","37","0","1111"
"12","12","retrieval","old_objects","134","Fryingpan.jpg","36","1","1409"
"12","12","retrieval","new_objects","135","WaterWell.jpg","37","1","871"
"12","12","retrieval","new_objects","136","Scrabble.jpg","37","1","835"
"12","12","retrieval","old_objects","137","Spoons_MeasuringAttached.jpg","37","0","929"
"12","12","retrieval","old_objects","138","Case_CD.jpg","36","1","753"
"12","12","retrieval","new_objects","139","Drum_Tall.jpg","37","1","898"
"12","12","retrieval","new_objects","140","CapGraduation.jpg","37","1","700"
"12","12","retrieval","new_objects","141","PlantPotted.jpg","37","1","1678"
"12","12","retrieval","old_objects","142","Garbage_GreenBin.jpg","36","1","1648"
"12","12","retrieval","new_objects","143","Playground.jpg","37","1","702"
"12","12","retrieval","old_objects","144","Egg_Wooden.jpg","36","1","632"
"12","12","retrieval","old_objects","145","Pipette.jpg","37","0","1006"
"12","12","retrieval","old_objects","146","Mirror_Carside.jpg","36","1","1155"
"12","12","retrieval","new_objects","147","TowelRack_Brown.jpg","37","1","1404"
"12","12","retrieval","new_objects","148","Hat_Sheriff.jpg","37","1","738"
"12","12","retrieval","new_objects","149","Box_Notepaper.jpg","37","1","1219"
"12","12","retrieval","new_objects","150","Ferret.jpg","37","1","761"
"12","12","retrieval","old_objects","151","Clip_Chip.jpg","37","0","769"
"12","12","retrieval","old_objects","152","Pear_Yellow.jpg","36","1","584"
"12","12","retrieval","new_objects","153","Hammock.jpg","37","1","816"
"12","12","retrieval","new_objects","154","DogSled.jpg","37","1","965"
"12","12","retrieval","new_objects","155","Syringe_Needle.jpg","37","1","1053"
"12","12","retrieval","old_objects","156","Shoes_Snow.jpg","37","0","715"
"12","12","retrieval","old_objects","157","Hubcap.jpg","36","1","899"
"12","12","retrieval","new_objects","158","Stovetop.jpg","37","1","838"
"12","12","retrieval","old_objects","159","ShoeLace_Round.jpg","37","0","1122"
"12","12","retrieval","new_objects","160","WindshieldWasherFluid.jpg","37","1","933"
"12","12","retrieval","new_objects","161","PillBottle_Spilled.jpg","37","1","886"
"12","12","retrieval","old_objects","162","Truck_Tanker.jpg","36","1","1017"
"12","12","retrieval","old_objects","163","LifeJacket_BlueYellow.jpg","36","1","743"
"12","12","retrieval","old_objects","164","CoffeeLid.jpg","36","1","751"
"12","12","retrieval","old_objects","165","Costume_Wizard.jpg","36","1","799"
"12","12","retrieval","new_objects","166","Lion.jpg","37","1","990"
"12","12","retrieval","new_objects","167","TartStrawberry.jpg","37","1","1237"
"12","12","retrieval","old_objects","168","Coconut.jpg","36","1","762"
"12","12","retrieval","new_objects","169","Heater_ElectricUpright.jpg","37","1","666"
"12","12","retrieval","old_objects","170","Necklace_Pearl.jpg","36","1","1133"
"12","12","retrieval","old_objects","171","Diode.jpg","37","0","1151"
"12","12","retrieval","new_objects","172","TeethModel.jpg","37","1","822"
"12","12","retrieval","new_objects","173","Pajamas.jpg","37","1","1021"
"12","12","retrieval","new_objects","174","Lei.jpg","37","1","1195"
"12","12","retrieval","old_objects","175","Lamp_TableWhite.jpg","37","0","1096"
"12","12","retrieval","new_objects","176","SlushieMachine.jpg","37","1","1051"
"12","12","retrieval","new_objects","177","Walkman.jpg","37","1","847"
"12","12","retrieval","new_objects","178","Megaphone.jpg","37","1","972"
"12","12","retrieval","old_objects","179","Tombstone.jpg","36","1","1100"
"12","12","retrieval","old_objects","180","IceCream_Popsicle.jpg","36","1","726"
"12","12","retrieval","new_objects","181","Guitar_Acoustic.jpg","36","0","1504"
"12","12","retrieval","new_objects","182","Earrings_Dangling.jpg","37","1","761"
"12","12","retrieval","new_objects","184","Seeder.jpg","37","1","1794"
"12","12","retrieval","old_objects","185","Shampoo.jpg","36","1","1016"
"12","12","retrieval","old_objects","186","Bird_Parrot.jpg","37","0","1622"
"12","12","retrieval","new_objects","187","Stroboscope.jpg","37","1","1028"
"12","12","retrieval","old_objects","188","Hat_Colonial.jpg","37","0","1154"
"12","12","retrieval","old_objects","189","NeedlesAcupuncture.jpg","37","0","961"
"12","12","retrieval","new_objects","190","Telephone_Dial.jpg","37","1","657"
"12","12","retrieval","new_objects","191","MagazineRoll.jpg","37","1","1327"
"12","12","retrieval","old_objects","192","SiloGrain.jpg","37","0","703"
"12","12","retrieval","old_objects","193","Hawk.jpg","37","0","1130"
"12","12","retrieval","new_objects","194","Toy_BeadMaze.jpg","37","1","1177"
"12","12","retrieval","new_objects","195","Glass_Cup.jpg","37","1","1681"
"12","12","retrieval","new_objects","196","Candy_Cane.jpg","37","1","1084"
"12","12","retrieval","new_objects","197","BakingDish.jpg","37","1","1751"
"12","12","retrieval","old_objects","198","Castle_Model.jpg","36","1","951"
"12","12","retrieval","new_objects","199","Cart_Groceries.jpg","37","1","879"
"12","12","retrieval","old_objects","200","Mask_Buddhist.jpg","37","0","1843"
"12","12","retrieval","old_objects","201","Leg.jpg","36","1","1703"
"12","12","retrieval","old_objects","202","Keys_Bunch.jpg","37","0","1425"
"12","12","retrieval","old_objects","203","DarthVader.jpg","36","1","880"
"12","12","retrieval","new_objects","204","Gum_Pack.jpg","37","1","730"
"12","12","retrieval","old_objects","205","Bucket_Champagne.jpg","37","0","1739"
"12","12","retrieval","new_objects","206","House_Wooden.jpg","37","1","1316"
"12","12","retrieval","old_objects","207","Donut.jpg","36","1","742"
"12","12","retrieval","old_objects","208","Table_Pool.jpg","37","0","735"
"12","12","retrieval","old_objects","209","Telescope.jpg","37","0","816"
"12","12","retrieval","new_objects","210","Chime.jpg","37","1","1134"
"12","12","retrieval","old_objects","211","Popcorn.jpg","36","1","1143"
"12","12","retrieval","new_objects","212","Nightstand.jpg","37","1","967"
"12","12","retrieval","old_objects","213","Toy_DonkeyFur.jpg","36","1","999"
"12","12","retrieval","old_objects","214","Toy_Zebra.jpg","36","1","950"
"12","12","retrieval","new_objects","215","Gazebo.jpg","37","1","727"
"12","12","retrieval","new_objects","216","Scoop_IceCream.jpg","37","1","1016"
"12","12","retrieval","old_objects","217","Truck_VintageBlue.jpg","37","0","1269"
"12","12","retrieval","new_objects","218","Cart_Wooden.jpg","37","1","1089"
"12","12","retrieval","new_objects","219","Turtle.jpg","36","0","1492"
"12","12","retrieval","new_objects","220","MixingGlass.jpg","37","1","903"
"12","12","retrieval","old_objects","221","Chicken_FriedDrum.jpg","36","1","722"
"12","12","retrieval","old_objects","222","DoorBell.jpg","36","1","955"
"12","12","retrieval","new_objects","223","Pear_Green.jpg","37","1","1396"
"12","12","retrieval","new_objects","224","MeterElectric.jpg","37","1","1354"
"12","12","retrieval","old_objects","225","Sock_Ankle.jpg","36","1","779"
"12","12","retrieval","new_objects","226","Vase_Decorative.jpg","37","1","850"
"12","12","retrieval","new_objects","227","Hat_Beanie.jpg","37","1","1046"
"12","12","retrieval","old_objects","228","DayPlanner.jpg","36","1","818"
"12","12","retrieval","old_objects","229","SolderingIron.jpg","37","0","801"
"12","12","retrieval","new_objects","230","Shovel_Garden.jpg","37","1","999"
"12","12","retrieval","new_objects","231","Wallet_ClosedBlack.jpg","37","1","1206"
"12","12","retrieval","old_objects","232","CookieCutter_Tree.jpg","37","0","971"
"12","12","retrieval","new_objects","233","Candy_Caramel.jpg","37","1","1306"
"12","12","retrieval","old_objects","234","Bowl_Fruits.jpg","36","1","1423"
"12","12","retrieval","old_objects","235","WorldMap.jpg","37","0","1603"
"12","12","retrieval","new_objects","236","Ring_Diamond.jpg","37","1","1635"
"12","12","retrieval","old_objects","237","Freezer.jpg","37","0","1599"
"12","12","retrieval","old_objects","238","Clippers_Glass.jpg","37","0","1189"
"12","12","retrieval","new_objects","239","Snake_Cobra.jpg","37","1","1292"
"12","12","retrieval","old_objects","240","Boots_Hiking.jpg","37","0","1271"
"12","12","retrieval","old_objects","241","Fruit_Carambola.jpg","36","1","1051"
"12","12","retrieval","old_objects","242","PowderProtein.jpg","36","1","999"
"12","12","retrieval","old_objects","243","Tribunal_Wooden.jpg","37","0","1325"
"12","12","retrieval","old_objects","245","Cup_Latte.jpg","0","0","2001"
"12","12","retrieval","old_objects","246","Chair_BeanBag.jpg","36","1","762"
"12","12","retrieval","new_objects","247","Pot_CastIron.jpg","37","1","762"
"12","12","retrieval","new_objects","248","WalkieTalkie_Red.jpg","37","1","826"
"12","12","retrieval","new_objects","249","WaterCooler.jpg","37","1","967"
"12","12","retrieval","old_objects","250","Flower_Sun.jpg","36","1","880"
"12","12","retrieval","old_objects","251","Mask_Happy.jpg","36","1","683"
"12","12","retrieval","new_objects","252","PokerChips.jpg","37","1","717"
"12","12","retrieval","new_objects","253","HandRake.jpg","37","1","807"
"12","12","retrieval","new_objects","254","Switch_Power.jpg","37","1","1933"
"12","12","retrieval","new_objects","255","Toy_Dog.jpg","37","1","1013"
"12","12","retrieval","new_objects","256","Armchair.jpg","37","1","812"
"12","12","retrieval","new_objects","257","Case_DVD.jpg","37","1","626"
"12","12","retrieval","old_objects","258","HairScrunchie.jpg","37","0","679"
"12","12","retrieval","new_objects","259","Stapler_Regular.jpg","37","1","826"
"12","12","retrieval","new_objects","260","Cable_AudioSplitter.jpg","37","1","864"
"12","12","retrieval","old_objects","261","Notepad_WithPen.jpg","36","1","1092"
"12","12","retrieval","new_objects","262","Tofu.jpg","36","0","975"
"12","12","retrieval","new_objects","263","PagodaModel.jpg","37","1","1014"
"12","12","retrieval","old_objects","264","Butterfly.jpg","36","1","716"
"12","12","retrieval","new_objects","265","Tambourine.jpg","37","1","846"
"12","12","retrieval","old_objects","266","Rock_Mimetite.jpg","37","0","1156"
"12","12","retrieval","old_objects","267","Light_Siren.jpg","37","0","1147"
"12","12","retrieval","new_objects","268","Pig.jpg","37","1","851"
"12","12","retrieval","old_objects","269","VacuumHead.jpg","37","0","711"
"12","12","retrieval","new_objects","270","Pliers_ViceGrip.jpg","37","1","1123"
"12","12","retrieval","old_objects","271","Qtip_Single.jpg","36","1","843"
"12","12","retrieval","old_objects","272","Paddle_Ball.jpg","37","0","728"
"12","12","retrieval","old_objects","273","Bench_Black.jpg","37","0","881"
"12","12","retrieval","new_objects","274","CrepeMaker.jpg","37","1","853"
"12","12","retrieval","old_objects","275","Bottle_BubbleBlower.jpg","37","0","616"
"12","12","retrieval","new_objects","276","PaintBrushAndPallette.jpg","37","1","1022"
"12","12","retrieval","old_objects","277","Toy_Taxi.jpg","37","0","1212"
"12","12","retrieval","new_objects","278","Fan_Straw.jpg","37","1","1017"
"12","12","retrieval","new_objects","279","Fuse.jpg","37","1","1023"
"12","12","retrieval","new_objects","280","Neckrest.jpg","37","1","845"
"12","12","retrieval","old_objects","281","Teabag.jpg","36","1","793"
"12","12","retrieval","new_objects","282","SpongeScrubbing.jpg","37","1","784"
"12","12","retrieval","new_objects","283","Chair_Deck.jpg","37","1","1032"
"12","12","retrieval","new_objects","284","PhoneCase.jpg","37","1","820"
"12","12","retrieval","old_objects","285","Truck_Dump.jpg","37","0","897"
"12","12","retrieval","new_objects","286","RugRoled.jpg","37","1","1477"
"12","12","retrieval","new_objects","287","Bone.jpg","37","1","1087"
"12","12","retrieval","new_objects","288","Mitt_Blue.jpg","37","1","1202"
"12","12","retrieval","new_objects","289","Corkboard.jpg","37","1","1080"
"12","12","retrieval","old_objects","290","WashRack.jpg","36","1","1173"
"12","12","retrieval","new_objects","291","DryRack_Clothes.jpg","37","1","1043"
"12","12","retrieval","new_objects","292","DustPan.jpg","37","1","1400"
"12","12","retrieval","new_objects","293","Hat_Explorer.jpg","37","1","1294"
"12","12","retrieval","old_objects","294","Shark_GreatWhite.jpg","36","1","834"
"12","12","retrieval","old_objects","295","Car_Buggy.jpg","37","0","814"
"12","12","retrieval","old_objects","296","Decoration_ChristmasWhite.jpg","37","0","1243"
"12","12","retrieval","new_objects","297","Artichoke.jpg","37","1","969"
"12","12","retrieval","new_objects","298","Candy_Toffee.jpg","36","0","904"
"12","12","retrieval","new_objects","299","Spoon_Sugar.jpg","37","1","1098"
"12","12","retrieval","old_objects","300","BikiniTop.jpg","36","1","1245"
"12","12","retrieval","new_objects","301","Parcel.jpg","37","1","761"
"12","12","retrieval","old_objects","302","Hottub.jpg","37","0","1209"
"12","12","retrieval","new_objects","303","Toy_HockeyStick.jpg","37","1","991"
"12","12","retrieval","old_objects","304","Bird_Peacock.jpg","37","0","1366"
"12","12","retrieval","new_objects","306","Glasses_Sun.jpg","37","1","1058"
"12","12","retrieval","old_objects","307","Shrimp.jpg","36","1","702"
"12","12","retrieval","new_objects","308","Cookie.jpg","36","0","801"
"12","12","retrieval","old_objects","309","Paddle_Bread.jpg","37","0","815"
"12","12","retrieval","new_objects","310","Fencing_HelmetSwords.jpg","37","1","846"
"12","12","retrieval","old_objects","311","Pot_Cooking.jpg","37","0","1321"
"12","12","retrieval","new_objects","312","RibbonPin.jpg","37","1","723"
"12","12","retrieval","old_objects","313","Switch_LightBlack.jpg","37","0","1205"
"12","12","retrieval","old_objects","314","Napkin_Holder.jpg","37","0","731"
"12","12","retrieval","old_objects","315","Clamp_Screw.jpg","37","0","1045"
"12","12","retrieval","new_objects","316","Jar_Cotton.jpg","37","1","1177"
"12","12","retrieval","old_objects","317","FoodMill.jpg","37","0","1008"
"12","12","retrieval","old_objects","318","SpaceRover.jpg","37","0","958"
"12","12","retrieval","new_objects","319","Toy_Bat.jpg","37","1","1038"
"12","12","retrieval","new_objects","320","VinylRecord.jpg","37","1","925"
"12","12","retrieval","new_objects","321","Bag_Toiletry.jpg","37","1","925"
"12","12","retrieval","old_objects","322","Dog_ChowChow.jpg","36","1","1271"
"12","12","retrieval","old_objects","323","Pillow_Plaid.jpg","37","0","907"
"12","12","retrieval","old_objects","324","Compact_Mirror.jpg","37","0","733"
"12","12","retrieval","old_objects","325","Camel_Bactrian.jpg","37","0","1054"
"12","12","retrieval","new_objects","326","PumiceStone.jpg","37","1","1155"
"12","12","retrieval","old_objects","327","MousepadAndMouse.jpg","37","0","811"
"12","12","retrieval","new_objects","328","Hourglass.jpg","37","1","1105"
"12","12","retrieval","old_objects","329","Notepad.jpg","36","1","835"
"12","12","retrieval","new_objects","330","Shoes_DutchClogs.jpg","37","1","1313"
"12","12","retrieval","new_objects","331","Pants_Firefighter.jpg","37","1","1306"
"12","12","retrieval","old_objects","332","Printer.jpg","37","0","932"
"12","12","retrieval","old_objects","333","Hangar.jpg","37","0","807"
"12","12","retrieval","new_objects","334","SundaeBanana.jpg","37","1","1308"
"12","12","retrieval","old_objects","335","MechanicalSpring.jpg","37","0","1358"
"12","12","retrieval","old_objects","336","Toolbox_Red.jpg","37","0","1174"
"12","12","retrieval","old_objects","337","Ring_Plain.jpg","37","0","1662"
"12","12","retrieval","old_objects","338","Cake_Cheese.jpg","37","0","1482"
"12","12","retrieval","new_objects","339","Folder_Plastic.jpg","37","1","1805"
"12","12","retrieval","new_objects","340","Pouch_Red.jpg","37","1","890"
"12","12","retrieval","old_objects","341","HardDrive.jpg","36","1","1007"
"12","12","retrieval","new_objects","342","Bottle_Champagne.jpg","37","1","709"
"12","12","retrieval","old_objects","343","Easel.jpg","37","0","1143"
"12","12","retrieval","old_objects","344","Qtip_Multiple.jpg","36","1","927"
"12","12","retrieval","new_objects","345","Scarecrow.jpg","37","1","777"
"12","12","retrieval","new_objects","346","TissueBox.jpg","37","1","968"
"12","12","retrieval","old_objects","347","Strainer_Tea.jpg","37","0","792"
"12","12","retrieval","new_objects","348","Platter_Vegetables.jpg","37","1","982"
"12","12","retrieval","old_objects","349","Cannoli.jpg","36","1","677"
"12","12","retrieval","old_objects","350","SandBagThrowGame.jpg","37","0","930"
"12","12","retrieval","old_objects","351","Spoons_Musical.jpg","37","0","914"
"12","12","retrieval","old_objects","352","Garlic_Whole.jpg","37","0","1477"
"12","12","retrieval","new_objects","353","ShearsGarden.jpg","37","1","895"
"12","12","retrieval","old_objects","354","Cougar.jpg","36","1","970"
"12","12","retrieval","new_objects","355","Tripod.jpg","37","1","1241"
"12","12","demographics_block","gender","1","Tripod.jpg","male","1","14067"
"12","12","demographics_block","age","1","Tripod.jpg","22","1","14067"
"12","12","demographics_block","education","1","Tripod.jpg","4","1","14067"
"12","12","demographics_block","left_right_handed","2","Tripod.jpg","Right","1","16106"
"12","12","demographics_block","raceoption1","2","Tripod.jpg","","1","16106"
"12","12","demographics_block","raceoption2","2","Tripod.jpg","","1","16106"
"12","12","demographics_block","raceoption3","2","Tripod.jpg","","1","16106"
"12","12","demographics_block","raceoption4","2","Tripod.jpg","","1","16106"
"12","12","demographics_block","raceoption5","2","Tripod.jpg","","1","16106"
"12","12","demographics_block","raceoption6","2","Tripod.jpg","","1","16106"
"12","12","demographics_block","raceoption7","2","Tripod.jpg","","1","16106"
"12","12","demographics_block","raceoption8","2","Tripod.jpg","7","1","16106"
"12","12","demographics_block","raceoption9","2","Tripod.jpg","","1","16106"
"12","12","demographics_block","raceother","2","Tripod.jpg","","1","16106"
"12","12","demographics_block","raceother","2","Tripod.jpg","","1","16106"
"12","12","demographics_block","english_language","2","Tripod.jpg","Yes","1","16106"
"12","12","demographics_block","english_languageother","2","Tripod.jpg","","1","16106"
"12","12","demographics_block","eyesight","3","Tripod.jpg","Yes","1","7097"
"12","12","demographics_block","colorblind","3","Tripod.jpg","No","1","7097"
"12","12","worker_id_block","worker_id_textbox","1","Tripod.jpg","AVAYKAIM72C64","1","48124"
"13","13","encoding","encoding","1","Diode.jpg","37","0","910"
"13","13","encoding","encoding","2","Compact_Mirror.jpg","37","0","1427"
"13","13","encoding","encoding","3","Kazoo.jpg","36","0","1154"
"13","13","encoding","encoding","4","SandBagThrowGame.jpg","37","0","887"
"13","13","encoding","encoding","5","BoogieBoard.jpg","37","0","1335"
"13","13","encoding","encoding","6","Cup_Latte.jpg","37","0","1056"
"13","13","encoding","encoding","7","Car_Buggy.jpg","37","0","1121"
"13","13","encoding","encoding","8","Tombstone.jpg","37","0","1082"
"13","13","encoding","encoding","9","Fryingpan.jpg","37","0","794"
"13","13","encoding","encoding","10","Pepperoni.jpg","37","0","856"
"13","13","encoding","encoding","11","Peppermill.jpg","37","0","886"
"13","13","encoding","encoding","12","Tribunal_Wooden.jpg","37","0","802"
"13","13","encoding","encoding","13","Spotlight.jpg","37","0","778"
"13","13","encoding","encoding","14","Stick_Bridge.jpg","37","0","919"
"13","13","encoding","encoding","15","Toy_PandaPlushie.jpg","37","0","857"
"13","13","encoding","encoding","16","Clippers_Glass.jpg","37","0","652"
"13","13","encoding","encoding","17","Instrument_Nyckelharpa.jpg","37","0","750"
"13","13","encoding","encoding","18","Joystick.jpg","37","0","745"
"13","13","encoding","encoding","19","MousepadAndMouse.jpg","37","0","643"
"13","13","encoding","encoding","20","Bird_Peacock.jpg","36","0","504"
"13","13","encoding","encoding","21","Boots_Hiking.jpg","37","0","542"
"13","13","encoding","encoding","22","Case_Leather.jpg","37","0","522"
"13","13","encoding","encoding","23","Decoration_ChristmasWhite.jpg","37","0","567"
"13","13","encoding","encoding","24","Spoons_MeasuringAttached.jpg","37","0","595"
"13","13","encoding","encoding","25","Qtip_Single.jpg","37","0","601"
"13","13","encoding","encoding","26","Mirror_Carside.jpg","37","0","573"
"13","13","encoding","encoding","27","Switch_LightBlack.jpg","37","0","570"
"13","13","encoding","encoding","28","Tag_Price.jpg","37","0","545"
"13","13","encoding","encoding","29","Bench_Black.jpg","37","0","800"
"13","13","encoding","encoding","30","SafetyPin.jpg","37","0","606"
"13","13","encoding","encoding","31","Toy_DonkeyFur.jpg","36","0","852"
"13","13","encoding","encoding","32","Napkin_Holder.jpg","37","0","557"
"13","13","encoding","encoding","33","Pipette.jpg","37","0","453"
"13","13","encoding","encoding","34","Kneepad.jpg","37","0","464"
"13","13","encoding","encoding","35","Donut.jpg","37","0","695"
"13","13","encoding","encoding","36","Pear_Yellow.jpg","37","0","529"
"13","13","encoding","encoding","37","Toy_Taxi.jpg","37","0","500"
"13","13","encoding","encoding","38","WorldMap.jpg","37","0","443"
"13","13","encoding","encoding","39","Candy_GummyBear.jpg","37","0","839"
"13","13","encoding","encoding","40","Flower_Sun.jpg","36","0","625"
"13","13","encoding","encoding","41","Butterfly.jpg","36","0","609"
"13","13","encoding","encoding","42","Toy_BearBluePlushie.jpg","37","0","649"
"13","13","encoding","encoding","43","SaladCaesar.jpg","37","0","1024"
"13","13","encoding","encoding","44","Telescope.jpg","37","0","607"
"13","13","encoding","encoding","45","Clock_Radio.jpg","37","0","567"
"13","13","encoding","encoding","46","Paddle_Ball.jpg","37","0","833"
"13","13","encoding","encoding","47","Pepper_Green.jpg","36","0","838"
"13","13","encoding","encoding","48","Microphone.jpg","37","0","681"
"13","13","encoding","encoding","49","LifeJacket_Orangejpg.jpg","37","0","798"
"13","13","encoding","encoding","50","Cougar.jpg","36","0","596"
"13","13","encoding","encoding","51","Truck_VintageBlue.jpg","37","0","756"
"13","13","encoding","encoding","52","IceCream_Popsicle.jpg","37","0","963"
"13","13","encoding","encoding","53","SolderingIron.jpg","37","0","912"
"13","13","encoding","encoding","54","HardDrive.jpg","37","0","936"
"13","13","encoding","encoding","55","Castle_Model.jpg","37","0","777"
"13","13","encoding","encoding","56","Tortilla.jpg","37","0","756"
"13","13","encoding","encoding","57","Necklace_Pearl.jpg","37","0","773"
"13","13","encoding","encoding","58","HairScrunchie.jpg","37","0","569"
"13","13","encoding","encoding","59","Bottle_BubbleBlower.jpg","37","0","473"
"13","13","encoding","encoding","60","Stone_AncientWriting.jpg","37","0","1297"
"13","13","encoding","encoding","62","Cake_Cheese.jpg","37","0","1143"
"13","13","encoding","encoding","63","Flower_Rose.jpg","36","0","773"
"13","13","encoding","encoding","64","Truck_Dump.jpg","37","0","705"
"13","13","encoding","encoding","65","Cross.jpg","37","0","707"
"13","13","encoding","encoding","66","Shrimp.jpg","36","0","713"
"13","13","encoding","encoding","67","FileFolder.jpg","37","0","464"
"13","13","encoding","encoding","68","PowderProtein.jpg","37","0","755"
"13","13","encoding","encoding","69","Table_Pool.jpg","37","0","489"
"13","13","encoding","encoding","70","NeedlesAcupuncture.jpg","37","0","640"
"13","13","encoding","encoding","71","Rock_Mimetite.jpg","36","0","1031"
"13","13","encoding","encoding","72","Toolbox_Red.jpg","37","0","696"
"13","13","encoding","encoding","73","Leaf_Green.jpg","36","0","788"
"13","13","encoding","encoding","74","DayPlanner.jpg","37","0","564"
"13","13","encoding","encoding","75","DoorBell.jpg","37","0","588"
"13","13","encoding","encoding","76","FoodMill.jpg","37","0","658"
"13","13","encoding","encoding","77","Crackers_Ritz.jpg","37","0","691"
"13","13","encoding","encoding","78","CookieCutter_Tree.jpg","37","0","619"
"13","13","encoding","encoding","79","Leg.jpg","36","0","909"
"13","13","encoding","encoding","80","Pot_Cooking.jpg","37","0","553"
"13","13","encoding","encoding","81","Bandage_Adhesive.jpg","37","0","848"
"13","13","encoding","encoding","82","Jar_Canopic.jpg","37","0","755"
"13","13","encoding","encoding","83","Lamp_TableWhite.jpg","37","0","701"
"13","13","encoding","encoding","84","LightBulb_Christmas.jpg","37","0","658"
"13","13","encoding","encoding","85","Mask_Buddhist.jpg","37","0","830"
"13","13","encoding","encoding","86","Hangar.jpg","37","0","774"
"13","13","encoding","encoding","87","CoffeeLid.jpg","37","0","819"
"13","13","encoding","encoding","88","Swing_Porch.jpg","37","0","686"
"13","13","encoding","encoding","89","Almond.jpg","37","0","1123"
"13","13","encoding","encoding","90","GingerbreadMan.jpg","37","0","560"
"13","13","encoding","encoding","91","SiloGrain.jpg","37","0","505"
"13","13","encoding","encoding","92","Bird_Parrot.jpg","36","0","666"
"13","13","encoding","encoding","93","Strainer_Tea.jpg","37","0","678"
"13","13","encoding","encoding","94","Honeydew_yellow.jpg","36","0","871"
"13","13","encoding","encoding","95","Camel_Bactrian.jpg","36","0","657"
"13","13","encoding","encoding","96","Garlic_Whole.jpg","36","0","722"
"13","13","encoding","encoding","97","Brush_Winter.jpg","37","0","503"
"13","13","encoding","encoding","98","Pacifier.jpg","37","0","566"
"13","13","encoding","encoding","99","ShoeLace_Round.jpg","37","0","717"
"13","13","encoding","encoding","100","Shoes_Snow.jpg","37","0","597"
"13","13","encoding","encoding","101","Basket_Firewood.jpg","37","0","1093"
"13","13","encoding","encoding","102","Toy_WoodenPlainSingle.jpg","37","0","787"
"13","13","encoding","encoding","103","Dog_ChowChow.jpg","36","0","747"
"13","13","encoding","encoding","104","Hottub.jpg","37","0","662"
"13","13","encoding","encoding","105","Case_CD.jpg","37","0","752"
"13","13","encoding","encoding","106","Thermostat.jpg","37","0","789"
"13","13","encoding","encoding","107","Clip_Chip.jpg","37","0","617"
"13","13","encoding","encoding","108","Camera_Security.jpg","37","0","777"
"13","13","encoding","encoding","109","Bulldozer.jpg","37","0","605"
"13","13","encoding","encoding","110","Fish_Rockbass.jpg","36","0","840"
"13","13","encoding","encoding","111","Weathervane.jpg","37","0","577"
"13","13","encoding","encoding","112","Notepad_WithPen.jpg","37","0","673"
"13","13","encoding","encoding","113","Garbage_GreenBin.jpg","37","0","679"
"13","13","encoding","encoding","114","VacuumHead.jpg","37","0","757"
"13","13","encoding","encoding","115","Truck_Tanker.jpg","37","0","820"
"13","13","encoding","encoding","116","Aquarium.jpg","37","0","1067"
"13","13","encoding","encoding","117","Bag_Garbage.jpg","37","0","667"
"13","13","encoding","encoding","118","Fruit_Carambola.jpg","36","0","822"
"13","13","encoding","encoding","119","Lighter_Black.jpg","37","0","732"
"13","13","encoding","encoding","120","Origami_Bird.jpg","37","0","982"
"13","13","encoding","encoding","121","Basket_Plastic.jpg","37","0","799"
"13","13","encoding","encoding","123","Shampoo.jpg","37","0","687"
"13","13","encoding","encoding","124","Hubcap.jpg","37","0","1215"
"13","13","encoding","encoding","125","Egg_Wooden.jpg","37","0","1206"
"13","13","encoding","encoding","126","Cannoli.jpg","37","0","1407"
"13","13","encoding","encoding","127","Coin.jpg","37","0","874"
"13","13","encoding","encoding","128","Printer.jpg","37","0","981"
"13","13","encoding","encoding","129","Coconut.jpg","36","0","929"
"13","13","encoding","encoding","130","Bottle_Beer.jpg","37","0","733"
"13","13","encoding","encoding","131","Shark_GreatWhite.jpg","36","0","763"
"13","13","encoding","encoding","132","Bowl_Fruits.jpg","37","0","892"
"13","13","encoding","encoding","133","Clamp_Screw.jpg","37","0","1005"
"13","13","encoding","encoding","134","Ring_Plain.jpg","37","0","1149"
"13","13","encoding","encoding","135","Pillow_Plaid.jpg","37","0","921"
"13","13","encoding","encoding","136","Chicken_FriedDrum.jpg","37","0","1258"
"13","13","encoding","encoding","137","Chair_BeanBag.jpg","37","0","821"
"13","13","encoding","encoding","138","Hanger.jpg","37","0","589"
"13","13","encoding","encoding","139","Candy_Cotton.jpg","37","0","876"
"13","13","encoding","encoding","140","Notepad.jpg","37","0","660"
"13","13","encoding","encoding","141","Easel.jpg","37","0","812"
"13","13","encoding","encoding","142","Paddle_Bread.jpg","37","0","737"
"13","13","encoding","encoding","143","DarthVader.jpg","37","0","1148"
"13","13","encoding","encoding","144","Qtip_Multiple.jpg","37","0","730"
"13","13","encoding","encoding","145","Mask_Happy.jpg","37","0","764"
"13","13","encoding","encoding","146","Accordion.jpg","37","0","733"
"13","13","encoding","encoding","147","Costume_Wizard.jpg","37","0","833"
"13","13","encoding","encoding","148","CompassCardinal.jpg","37","0","819"
"13","13","encoding","encoding","149","Freezer.jpg","37","0","599"
"13","13","encoding","encoding","150","Sign_Open.jpg","37","0","753"
"13","13","encoding","encoding","151","MechanicalSpring.jpg","37","0","736"
"13","13","encoding","encoding","152","Light_Siren.jpg","37","0","781"
"13","13","encoding","encoding","153","BikiniTop.jpg","37","0","1305"
"13","13","encoding","encoding","154","SpaceRover.jpg","37","0","1370"
"13","13","encoding","encoding","155","Bottle_Wine.jpg","37","0","668"
"13","13","encoding","encoding","156","Teabag.jpg","37","0","972"
"13","13","encoding","encoding","157","LifeJacket_BlueYellow.jpg","37","0","681"
"13","13","encoding","encoding","158","Alfalfa.jpg","36","0","1211"
"13","13","encoding","encoding","159","Makeup_Foundation.jpg","37","0","546"
"13","13","encoding","encoding","160","AirTank.jpg","37","0","791"
"13","13","encoding","encoding","161","Bowl_Wooden.jpg","37","0","831"
"13","13","encoding","encoding","162","Catheter.jpg","37","0","687"
"13","13","encoding","encoding","163","Hat_Colonial.jpg","37","0","830"
"13","13","encoding","encoding","164","WashRack.jpg","37","0","711"
"13","13","encoding","encoding","165","DogFood.jpg","37","0","1284"
"13","13","encoding","encoding","166","Bucket_Champagne.jpg","37","0","607"
"13","13","encoding","encoding","167","Table_Picnic.jpg","37","0","626"
"13","13","encoding","encoding","168","Toy_Zebra.jpg","36","0","1019"
"13","13","encoding","encoding","169","Carousel.jpg","37","0","798"
"13","13","encoding","encoding","170","Hawk.jpg","36","0","693"
"13","13","encoding","encoding","171","Keys_Bunch.jpg","37","0","687"
"13","13","encoding","encoding","172","Cheese_Platter.jpg","37","0","705"
"13","13","encoding","encoding","173","Spoons_Musical.jpg","37","0","911"
"13","13","encoding","encoding","174","Sock_Ankle.jpg","37","0","808"
"13","13","encoding","encoding","175","Peeler.jpg","37","0","897"
"13","13","encoding","encoding","176","Popcorn.jpg","37","0","1366"
"13","13","encoding","encoding","177","Thermometer_Room.jpg","37","0","963"
"13","13","retrieval","old_objects","1","Bird_Parrot.jpg","36","1","1158"
"13","13","retrieval","new_objects","2","MagazineRoll.jpg","37","1","706"
"13","13","retrieval","new_objects","3","Scarecrow.jpg","37","1","1032"
"13","13","retrieval","new_objects","4","Neckrest.jpg","37","1","565"
"13","13","retrieval","new_objects","5","CrepeMaker.jpg","37","1","545"
"13","13","retrieval","new_objects","6","Snake_Cobra.jpg","37","1","561"
"13","13","retrieval","old_objects","7","SaladCaesar.jpg","36","1","657"
"13","13","retrieval","old_objects","8","Napkin_Holder.jpg","36","1","663"
"13","13","retrieval","old_objects","9","Kazoo.jpg","37","0","847"
"13","13","retrieval","old_objects","10","IceCream_Popsicle.jpg","36","1","634"
"13","13","retrieval","old_objects","11","Peeler.jpg","36","1","727"
"13","13","retrieval","new_objects","12","Stroboscope.jpg","37","1","953"
"13","13","retrieval","old_objects","13","Cougar.jpg","36","1","653"
"13","13","retrieval","new_objects","14","HandRake.jpg","37","1","697"
"13","13","retrieval","new_objects","15","Gun_Revolver.jpg","37","1","609"
"13","13","retrieval","old_objects","16","GingerbreadMan.jpg","36","1","735"
"13","13","retrieval","old_objects","17","Bag_Garbage.jpg","36","1","639"
"13","13","retrieval","old_objects","18","Spotlight.jpg","36","1","563"
"13","13","retrieval","old_objects","19","Kneepad.jpg","37","0","534"
"13","13","retrieval","old_objects","20","Leaf_Green.jpg","36","1","569"
"13","13","retrieval","old_objects","21","Notepad.jpg","36","1","613"
"13","13","retrieval","old_objects","22","Alfalfa.jpg","36","1","608"
"13","13","retrieval","new_objects","23","Armchair.jpg","37","1","646"
"13","13","retrieval","old_objects","24","Clock_Radio.jpg","36","1","685"
"13","13","retrieval","old_objects","25","Paddle_Ball.jpg","37","0","1208"
"13","13","retrieval","new_objects","26","Pants_Firefighter.jpg","37","1","796"
"13","13","retrieval","new_objects","27","Lips_Wax.jpg","37","1","715"
"13","13","retrieval","old_objects","28","Origami_Bird.jpg","36","1","727"
"13","13","retrieval","old_objects","29","Sock_Ankle.jpg","36","1","853"
"13","13","retrieval","old_objects","30","Carousel.jpg","36","1","741"
"13","13","retrieval","old_objects","31","SolderingIron.jpg","36","1","727"
"13","13","retrieval","new_objects","32","Pig.jpg","37","1","664"
"13","13","retrieval","new_objects","33","Car_Totalled.jpg","37","1","706"
"13","13","retrieval","new_objects","34","DryRack_Clothes.jpg","37","1","550"
"13","13","retrieval","new_objects","35","Lion.jpg","37","1","642"
"13","13","retrieval","new_objects","36","Megaphone.jpg","37","1","665"
"13","13","retrieval","new_objects","37","Mask_African.jpg","37","1","655"
"13","13","retrieval","new_objects","38","Scrabble.jpg","37","1","551"
"13","13","retrieval","new_objects","39","Toy_HockeyStick.jpg","37","1","492"
"13","13","retrieval","new_objects","40","Radio_Antique.jpg","37","1","629"
"13","13","retrieval","old_objects","41","Castle_Model.jpg","36","1","718"
"13","13","retrieval","new_objects","42","Vase_Decorative.jpg","37","1","592"
"13","13","retrieval","new_objects","43","Walkman.jpg","37","1","513"
"13","13","retrieval","new_objects","44","Toy_Christmastree.jpg","37","1","633"
"13","13","retrieval","old_objects","45","MechanicalSpring.jpg","36","1","556"
"13","13","retrieval","new_objects","46","PhoneCase.jpg","37","1","707"
"13","13","retrieval","old_objects","47","Toy_WoodenPlainSingle.jpg","36","1","591"
"13","13","retrieval","old_objects","48","Instrument_Nyckelharpa.jpg","36","1","543"
"13","13","retrieval","old_objects","49","BoogieBoard.jpg","37","0","575"
"13","13","retrieval","old_objects","50","Fish_Rockbass.jpg","36","1","583"
"13","13","retrieval","old_objects","51","Catheter.jpg","36","1","722"
"13","13","retrieval","old_objects","52","Joystick.jpg","36","1","559"
"13","13","retrieval","old_objects","53","Mask_Happy.jpg","36","1","617"
"13","13","retrieval","old_objects","54","Cheese_Platter.jpg","36","1","634"
"13","13","retrieval","new_objects","55","Mitt_Blue.jpg","37","1","594"
"13","13","retrieval","old_objects","56","Truck_VintageBlue.jpg","36","1","775"
"13","13","retrieval","old_objects","57","Costume_Wizard.jpg","37","0","607"
"13","13","retrieval","old_objects","58","Candy_GummyBear.jpg","36","1","719"
"13","13","retrieval","old_objects","59","Lamp_TableWhite.jpg","36","1","620"
"13","13","retrieval","old_objects","60","Bandage_Adhesive.jpg","36","1","595"
"13","13","retrieval","new_objects","62","Toilet.jpg","37","1","711"
"13","13","retrieval","old_objects","63","Hottub.jpg","37","0","800"
"13","13","retrieval","new_objects","64","Toy_DinosaurTRex.jpg","37","1","659"
"13","13","retrieval","new_objects","65","Shoes_DutchClogs.jpg","37","1","584"
"13","13","retrieval","new_objects","66","WindshieldWasherFluid.jpg","37","1","577"
"13","13","retrieval","new_objects","67","Fan_Straw.jpg","37","1","753"
"13","13","retrieval","old_objects","68","Bowl_Fruits.jpg","36","1","619"
"13","13","retrieval","new_objects","69","Starfish.jpg","37","1","731"
"13","13","retrieval","new_objects","70","Bowl_Chopsticks.jpg","37","1","630"
"13","13","retrieval","old_objects","71","CookieCutter_Tree.jpg","36","1","640"
"13","13","retrieval","old_objects","72","Coin.jpg","36","1","601"
"13","13","retrieval","old_objects","73","Bird_Peacock.jpg","36","1","671"
"13","13","retrieval","old_objects","74","Notepad_WithPen.jpg","36","1","902"
