"group","subject","blockcode","trialcode","trialnum","values.stimulus","response","correct","latency"
"2","2","encoding","encoding","1","WalkieTalkie_Red.jpg","0","0","2001"
"2","2","encoding","encoding","2","FloppyDisk.jpg","Ctrl+'Q'","1","865"
"3","3","encoding","encoding","1","CrepeMaker.jpg","37","0","1366"
"3","3","encoding","encoding","2","PumiceStone.jpg","36","0","1065"
"3","3","encoding","encoding","3","Gun_Revolver.jpg","37","0","776"
"3","3","encoding","encoding","4","Toy_DinosaurTRex.jpg","36","0","946"
"3","3","encoding","encoding","5","Fish_Swordfish.jpg","36","0","885"
"3","3","encoding","encoding","6","DrainPlug.jpg","37","0","715"
"3","3","encoding","encoding","7","Crab.jpg","36","0","691"
"3","3","encoding","encoding","8","DryRack_Clothes.jpg","37","0","955"
"3","3","encoding","encoding","9","Candy_Caramel.jpg","36","0","648"
"3","3","encoding","encoding","10","Telephone_Dial.jpg","37","0","746"
"3","3","encoding","encoding","11","Tofu.jpg","36","0","1174"
"3","3","encoding","encoding","12","Seeder.jpg","37","0","734"
"3","3","encoding","encoding","13","TeethModel.jpg","37","0","1075"
"3","3","encoding","encoding","14","Mitt_Blue.jpg","37","0","1293"
"3","3","encoding","encoding","15","DogTreat.jpg","37","0","1240"
"3","3","encoding","encoding","16","Mask_African.jpg","37","0","1014"
"3","3","encoding","encoding","17","Case_DVD.jpg","37","0","686"
"3","3","encoding","encoding","18","WindshieldWasherFluid.jpg","37","0","629"
"3","3","encoding","encoding","19","PhoneJack.jpg","37","0","617"
"3","3","encoding","encoding","20","Ship_Battle.jpg","37","0","768"
"3","3","encoding","encoding","21","Sign_Washroom.jpg","37","0","1882"
"3","3","encoding","encoding","22","Ferret.jpg","36","0","1281"
"3","3","encoding","encoding","23","Stroboscope.jpg","37","0","727"
"3","3","encoding","encoding","24","Gum_Pack.jpg","37","0","854"
"3","3","encoding","encoding","25","Cloud.jpg","36","0","920"
"3","3","encoding","encoding","26","Cable_AudioSplitter.jpg","37","0","617"
"3","3","encoding","encoding","27","SaxophoneSoprano.jpg","37","0","590"
"3","3","encoding","encoding","28","Pouch_Red.jpg","37","0","794"
"3","3","encoding","encoding","29","Neckrest.jpg","37","0","559"
"3","3","encoding","encoding","30","Starfish.jpg","36","0","635"
"3","3","encoding","encoding","31","RugRoled.jpg","37","0","659"
"3","3","encoding","encoding","32","Walkman.jpg","37","0","574"
"3","3","encoding","encoding","33","MixingGlass.jpg","37","0","641"
"3","3","encoding","encoding","34","Pepper_Chili.jpg","36","0","733"
"3","3","encoding","encoding","35","Toy_Dog.jpg","37","0","685"
"3","3","encoding","encoding","36","Horn_French.jpg","37","0","671"
"3","3","encoding","encoding","37","Jar_Cotton.jpg","37","0","1162"
"3","3","encoding","encoding","38","Shovel_Garden.jpg","37","0","659"
"3","3","encoding","encoding","39","Nightstand.jpg","37","0","726"
"3","3","encoding","encoding","40","Toy_Slide.jpg","37","0","565"
"3","3","encoding","encoding","41","Toy_HockeyStick.jpg","37","0","624"
"3","3","encoding","encoding","42","Playground.jpg","37","0","496"
"3","3","encoding","encoding","43","Skirt_Stripes.jpg","37","0","642"
"3","3","encoding","encoding","44","PillBottle_Spilled.jpg","37","0","855"
"3","3","encoding","encoding","45","Pants_Firefighter.jpg","37","0","498"
"3","3","encoding","encoding","46","ShearsGarden.jpg","37","0","628"
"3","3","encoding","encoding","47","Hat_Sheriff.jpg","37","0","493"
"3","3","encoding","encoding","48","Candy_Cane.jpg","37","0","578"
"3","3","encoding","encoding","49","House_Wooden.jpg","37","0","542"
"3","3","encoding","encoding","50","Icepick.jpg","37","0","609"
"3","3","encoding","encoding","51","WalkieTalkie_Yellow.jpg","37","0","547"
"3","3","encoding","encoding","52","Hat_Explorer.jpg","37","0","466"
"3","3","encoding","encoding","53","Fridge.jpg","37","0","507"
"3","3","encoding","encoding","54","Gazebo.jpg","37","0","406"
"3","3","encoding","encoding","55","Box_Notepaper.jpg","37","0","440"
"3","3","encoding","encoding","56","Platter_Vegetables.jpg","36","0","1089"
"3","3","encoding","encoding","57","Hat_Beanie.jpg","37","0","525"
"3","3","encoding","encoding","58","Shoes_DutchClogs.jpg","37","0","625"
"3","3","encoding","encoding","59","HumanSkeleton.jpg","36","0","902"
"3","3","encoding","encoding","60","Drum_Tall.jpg","37","0","1115"
"3","3","encoding","encoding","62","Stapler_Regular.jpg","37","0","935"
"3","3","encoding","encoding","63","HandRake.jpg","37","0","631"
"3","3","encoding","encoding","64","Guitar_Acoustic.jpg","37","0","482"
"3","3","encoding","encoding","65","PlantPotted.jpg","36","0","643"
"3","3","encoding","encoding","66","Crib_Basket.jpg","37","0","698"
"3","3","encoding","encoding","67","Box_Wine.jpg","37","0","492"
"3","3","encoding","encoding","68","TowelRack_Brown.jpg","37","0","467"
"3","3","encoding","encoding","69","SlushieMachine.jpg","37","0","468"
"3","3","encoding","encoding","70","WalkieTalkie_Red.jpg","37","0","513"
"3","3","encoding","encoding","71","CandyDispenser.jpg","37","0","458"
"3","3","encoding","encoding","72","Car_Totalled.jpg","37","0","556"
"3","3","encoding","encoding","73","Blueprints.jpg","37","0","742"
"3","3","encoding","encoding","74","SeatBuckle.jpg","37","0","483"
"3","3","encoding","encoding","75","Earrings_Dangling.jpg","37","0","490"
"3","3","encoding","encoding","76","Steam_Cleaner.jpg","37","0","615"
"3","3","encoding","encoding","77","Artichoke.jpg","36","0","631"
"3","3","encoding","encoding","78","Tambourine.jpg","37","0","1002"
"3","3","encoding","encoding","79","MagazineRoll.jpg","37","0","789"
"3","3","encoding","encoding","80","Wallet_ClosedBlack.jpg","37","0","649"
"3","3","encoding","encoding","81","PagodaModel.jpg","37","0","480"
"3","3","encoding","encoding","82","Candy_Toffee.jpg","37","0","690"
"3","3","encoding","encoding","83","Toilet.jpg","37","0","568"
"3","3","encoding","encoding","84","Cart_Groceries.jpg","37","0","472"
"3","3","encoding","encoding","85","Bag_Toiletry.jpg","37","0","499"
"3","3","encoding","encoding","86","TissueBox.jpg","37","0","637"
"3","3","encoding","encoding","87","Spoon_Wooden.jpg","37","0","519"
"3","3","encoding","encoding","88","Pajamas.jpg","37","0","723"
"3","3","encoding","encoding","89","TartStrawberry.jpg","37","0","1972"
"3","3","encoding","encoding","90","PhoneCase.jpg","37","0","694"
"3","3","encoding","encoding","91","CarSeat.jpg","37","0","600"
"3","3","encoding","encoding","92","Stick_Honey.jpg","37","0","524"
"3","3","encoding","encoding","93","HDMIConnector.jpg","37","0","494"
"3","3","encoding","encoding","94","Toy_Christmastree.jpg","37","0","746"
"3","3","encoding","encoding","95","WagonPilgrim.jpg","37","0","510"
"3","3","encoding","encoding","96","Fuse.jpg","37","0","492"
"3","3","encoding","encoding","97","Pliers_ViceGrip.jpg","37","0","633"
"3","3","encoding","encoding","98","WaterCooler.jpg","37","0","596"
"3","3","encoding","encoding","99","Bowl_Chopsticks.jpg","37","0","601"
"3","3","encoding","encoding","100","LampPost_OneBulb.jpg","37","0","443"
"3","3","encoding","encoding","101","Cast.jpg","37","0","1041"
"3","3","encoding","encoding","102","Pen_Calligraphy.jpg","37","0","406"
"3","3","encoding","encoding","103","VinylRecord.jpg","37","0","455"
"3","3","encoding","encoding","104","Shark_Hammerhead.jpg","36","0","848"
"3","3","encoding","encoding","105","MeterElectric.jpg","37","0","581"
"3","3","encoding","encoding","106","Hourglass.jpg","37","0","507"
"3","3","encoding","encoding","107","Scarecrow.jpg","37","0","657"
"3","3","encoding","encoding","108","Heater_ElectricUpright.jpg","37","0","544"
"3","3","encoding","encoding","109","Lei.jpg","37","0","1381"
"3","3","encoding","encoding","110","Missile.jpg","37","0","543"
"3","3","encoding","encoding","111","HotWaterBottle.jpg","37","0","608"
"3","3","encoding","encoding","112","Bottle_Champagne.jpg","37","0","853"
"3","3","encoding","encoding","113","FloppyDisk.jpg","37","0","628"
"3","3","encoding","encoding","114","RibbonPin.jpg","37","0","511"
"3","3","encoding","encoding","115","Knife_Camping.jpg","37","0","554"
"3","3","encoding","encoding","116","Desk_School.jpg","37","0","595"
"3","3","encoding","encoding","117","PaintBrushAndPallette.jpg","37","0","719"
"3","3","encoding","encoding","118","Pear_Green.jpg","36","0","584"
"3","3","encoding","encoding","119","Scrabble.jpg","37","0","729"
"3","3","encoding","encoding","120","Fencing_HelmetSwords.jpg","37","0","623"
"3","3","encoding","encoding","121","Switch_Power.jpg","37","0","1196"
"3","3","encoding","encoding","123","BakingDish.jpg","37","0","779"
"3","3","encoding","encoding","124","Truck_Pickup.jpg","37","0","596"
"3","3","encoding","encoding","125","Compressor.jpg","37","0","522"
"3","3","encoding","encoding","126","SpongeScrubbing.jpg","37","0","965"
"3","3","encoding","encoding","127","Chair_Deck.jpg","37","0","633"
"3","3","encoding","encoding","128","DoorHandle.jpg","37","0","541"
"3","3","encoding","encoding","129","Vase_Decorative.jpg","37","0","533"
"3","3","encoding","encoding","130","Cauliflower.jpg","37","0","530"
"3","3","encoding","encoding","131","DustPan.jpg","37","0","575"
"3","3","encoding","encoding","132","Cookie.jpg","37","0","591"
"3","3","encoding","encoding","133","CapGraduation.jpg","37","0","628"
"3","3","encoding","encoding","134","Parcel.jpg","37","0","471"
"3","3","encoding","encoding","135","WaterWell.jpg","37","0","550"
"3","3","encoding","encoding","136","Pot_CastIron.jpg","37","0","476"
"3","3","encoding","encoding","137","Fan_Straw.jpg","37","0","585"
"3","3","encoding","encoding","138","DogSled.jpg","37","0","649"
"3","3","encoding","encoding","139","Tripod.jpg","37","0","584"
"3","3","encoding","encoding","140","Spoon_Sugar.jpg","37","0","934"
"3","3","encoding","encoding","141","Megaphone.jpg","37","0","553"
"3","3","encoding","encoding","142","Toy_Lizard.jpg","36","0","654"
"3","3","encoding","encoding","143","Folder_Plastic.jpg","37","0","493"
"3","3","encoding","encoding","144","PokerChips.jpg","37","0","511"
"3","3","encoding","encoding","145","Scoop_IceCream.jpg","37","0","572"
"3","3","encoding","encoding","146","fries.jpg","37","0","1080"
"3","3","encoding","encoding","147","Bone.jpg","36","0","1030"
"3","3","encoding","encoding","148","Statue_Jesus.jpg","37","0","612"
"3","3","encoding","encoding","149","Toy_BeadMaze.jpg","37","0","588"
"3","3","encoding","encoding","150","Syringe_Needle.jpg","37","0","586"
"3","3","encoding","encoding","151","Corkscrew.jpg","37","0","618"
"3","3","encoding","encoding","152","Pig.jpg","36","0","631"
"3","3","encoding","encoding","153","Glasses_Sun.jpg","37","0","637"
"3","3","encoding","encoding","154","SundaeBanana.jpg","37","0","1104"
"3","3","encoding","encoding","155","ScaleWeighing.jpg","37","0","640"
"3","3","encoding","encoding","156","Corkboard.jpg","37","0","658"
"3","3","encoding","encoding","157","Ring_Diamond.jpg","37","0","752"
"3","3","encoding","encoding","158","Bagel.jpg","37","0","1108"
"3","3","encoding","encoding","159","Chime.jpg","37","0","520"
"3","3","encoding","encoding","160","Armchair.jpg","37","0","434"
"3","3","encoding","encoding","161","Glass_Cup.jpg","37","0","490"
"3","3","encoding","encoding","162","Hammock.jpg","37","0","526"
"3","3","encoding","encoding","163","Jug_ClayAncient.jpg","37","0","383"
"3","3","encoding","encoding","164","Airplane_Small.jpg","37","0","515"
"3","3","encoding","encoding","165","Toy_Bat.jpg","37","0","460"
"3","3","encoding","encoding","166","Cart_Wooden.jpg","37","0","445"
"3","3","encoding","encoding","167","Lips_Wax.jpg","37","0","398"
"3","3","encoding","encoding","168","Radio_Antique.jpg","37","0","477"
"3","3","encoding","encoding","169","Lion.jpg","36","0","551"
"3","3","encoding","encoding","170","PlayerFootball.jpg","37","0","642"
"3","3","encoding","encoding","171","Turtle.jpg","36","0","520"
"3","3","encoding","encoding","172","Arch.jpg","37","0","700"
"3","3","encoding","encoding","173","SkullDeer.jpg","36","0","1118"
"3","3","encoding","encoding","174","DoorBolt.jpg","37","0","780"
"3","3","encoding","encoding","175","Telephone_Booth.jpg","37","0","679"
"3","3","encoding","encoding","176","Stovetop.jpg","37","0","665"
"3","3","encoding","encoding","177","Snake_Cobra.jpg","36","0","525"
"3","3","retrieval","new_objects","1","PuppetTheatre_WhiteGold.jpg","37","1","1356"
"3","3","retrieval","old_objects","2","Box_Notepaper.jpg","36","1","962"
"3","3","retrieval","old_objects","3","RugRoled.jpg","36","1","612"
"3","3","retrieval","new_objects","4","Lantern_Tea.jpg","37","1","846"
"3","3","retrieval","new_objects","5","Quartz.jpg","37","1","1287"
"3","3","retrieval","new_objects","6","Crate_Wine.jpg","36","0","1016"
"3","3","retrieval","new_objects","7","Chair_Folding.jpg","37","1","975"
"3","3","retrieval","new_objects","8","Gloves_Bicycle.jpg","36","0","910"
"3","3","retrieval","old_objects","9","Jug_ClayAncient.jpg","36","1","886"
"3","3","retrieval","new_objects","10","Cake_Wedding.jpg","37","1","939"
"3","3","retrieval","old_objects","11","HandRake.jpg","36","1","1002"
"3","3","retrieval","new_objects","12","Mirror_Makeup.jpg","37","1","848"
"3","3","retrieval","old_objects","13","Syringe_Needle.jpg","36","1","941"
"3","3","retrieval","new_objects","14","Tomato.jpg","37","1","863"
"3","3","retrieval","new_objects","15","Bread_Pita.jpg","36","0","784"
"3","3","retrieval","old_objects","16","fries.jpg","36","1","813"
"3","3","retrieval","new_objects","17","Generator.jpg","36","0","920"
"3","3","retrieval","new_objects","18","FireAlarm.jpg","37","1","1288"
"3","3","retrieval","old_objects","19","Telephone_Booth.jpg","36","1","910"
"3","3","retrieval","new_objects","20","Toy_BlocksWoodenPlain.jpg","37","1","837"
"3","3","retrieval","old_objects","21","Icepick.jpg","36","1","1285"
"3","3","retrieval","old_objects","22","Scoop_IceCream.jpg","37","0","926"
"3","3","retrieval","new_objects","23","Ball_Tennis.jpg","37","1","1094"
"3","3","retrieval","new_objects","24","BloodpPresureCuff.jpg","37","1","967"
"3","3","retrieval","new_objects","25","Chimpanzee.jpg","37","1","891"
"3","3","retrieval","new_objects","26","Toy_Tractor_1.jpg","36","0","1065"
"3","3","retrieval","old_objects","27","Folder_Plastic.jpg","36","1","892"
"3","3","retrieval","old_objects","28","Bagel.jpg","36","1","673"
"3","3","retrieval","new_objects","29","VacuumHose.jpg","37","1","869"
"3","3","retrieval","new_objects","30","Sign_Construction.jpg","37","1","1076"
"3","3","retrieval","old_objects","31","Lips_Wax.jpg","36","1","1119"
"3","3","retrieval","old_objects","32","Ring_Diamond.jpg","36","1","738"
"3","3","retrieval","new_objects","33","Sheep.jpg","37","1","723"
"3","3","retrieval","old_objects","34","PhoneCase.jpg","36","1","987"
"3","3","retrieval","old_objects","35","Fish_Swordfish.jpg","36","1","699"
"3","3","retrieval","new_objects","36","Instrument_African.jpg","37","1","750"
"3","3","retrieval","old_objects","37","HotWaterBottle.jpg","36","1","955"
"3","3","retrieval","new_objects","38","ClothCoaster.jpg","37","1","738"
"3","3","retrieval","new_objects","39","Triangle.jpg","37","1","782"
"3","3","retrieval","new_objects","40","ToothbrushHolder.jpg","37","1","1166"
"3","3","retrieval","new_objects","41","MortarPestle_BlackStone.jpg","37","1","1036"
"3","3","retrieval","old_objects","42","CarSeat.jpg","36","1","801"
"3","3","retrieval","old_objects","43","SaxophoneSoprano.jpg","36","1","977"
"3","3","retrieval","old_objects","44","Mitt_Blue.jpg","36","1","702"
"3","3","retrieval","new_objects","45","Box_Apples.jpg","37","1","698"
"3","3","retrieval","old_objects","46","Bowl_Chopsticks.jpg","36","1","893"
"3","3","retrieval","new_objects","47","Paddle_Canoe.jpg","36","0","789"
"3","3","retrieval","new_objects","48","Cheque.jpg","37","1","789"
"3","3","retrieval","new_objects","49","Branch.jpg","37","1","849"
"3","3","retrieval","new_objects","50","Wallet_ClosedBrown.jpg","37","1","967"
"3","3","retrieval","old_objects","51","Desk_School.jpg","36","1","672"
"3","3","retrieval","old_objects","52","SeatBuckle.jpg","36","1","999"
"3","3","retrieval","old_objects","53","PagodaModel.jpg","36","1","928"
"3","3","retrieval","new_objects","54","Exercise_Bike.jpg","37","1","1170"
"3","3","retrieval","old_objects","55","CapGraduation.jpg","36","1","971"
"3","3","retrieval","old_objects","56","Ferret.jpg","36","1","737"
"3","3","retrieval","new_objects","57","MalletJudge.jpg","36","0","786"
"3","3","retrieval","old_objects","58","Bottle_Champagne.jpg","36","1","813"
"3","3","retrieval","new_objects","59","Apple_Candy.jpg","37","1","810"
"3","3","retrieval","old_objects","60","Toilet.jpg","36","1","847"
"3","3","retrieval","new_objects","62","ConnectorPlug.jpg","37","1","1374"
"3","3","retrieval","old_objects","63","DogSled.jpg","36","1","831"
"3","3","retrieval","new_objects","64","Toy_PoliceCar.jpg","37","1","754"
"3","3","retrieval","new_objects","65","Walker_Silver.jpg","36","0","1031"
"3","3","retrieval","new_objects","66","Coatrack.jpg","36","0","705"
"3","3","retrieval","new_objects","67","Box_FirstAid.jpg","37","1","887"
"3","3","retrieval","old_objects","68","Shovel_Garden.jpg","36","1","686"
"3","3","retrieval","old_objects","69","Scrabble.jpg","36","1","690"
"3","3","retrieval","new_objects","70","SolderingWire.jpg","37","1","730"
"3","3","retrieval","old_objects","71","HumanSkeleton.jpg","36","1","697"
"3","3","retrieval","new_objects","72","Jetski.jpg","37","1","675"
"3","3","retrieval","old_objects","73","PhoneJack.jpg","36","1","832"
"3","3","retrieval","new_objects","74","Origami_Boat.jpg","37","1","761"
"3","3","retrieval","new_objects","75","Pitcher.jpg","37","1","1065"
"3","3","retrieval","new_objects","76","TelephoneSwitchboard.jpg","37","1","968"
"3","3","retrieval","new_objects","77","Dropper.jpg","37","1","912"
"3","3","retrieval","new_objects","78","Box_JeweleryWooden.jpg","37","1","815"
"3","3","retrieval","new_objects","79","Garbage_Can.jpg","37","1","815"
"3","3","retrieval","old_objects","80","Stick_Honey.jpg","36","1","701"
"3","3","retrieval","old_objects","81","Pajamas.jpg","36","1","640"
"3","3","retrieval","new_objects","82","PencilCase.jpg","37","1","670"
"3","3","retrieval","old_objects","83","Armchair.jpg","36","1","631"
"3","3","retrieval","old_objects","84","Pig.jpg","36","1","604"
"3","3","retrieval","new_objects","85","House_Doll.jpg","36","0","752"
"3","3","retrieval","old_objects","86","Compressor.jpg","36","1","847"
"3","3","retrieval","old_objects","87","Lei.jpg","36","1","693"
"3","3","retrieval","old_objects","88","Telephone_Dial.jpg","36","1","650"
"3","3","retrieval","new_objects","89","Pants_Jeans.jpg","37","1","781"
"3","3","retrieval","new_objects","90","Chair_Bamboo.jpg","37","1","990"
"3","3","retrieval","new_objects","91","Truck_Box.jpg","37","1","1192"
"3","3","retrieval","old_objects","92","Cloud.jpg","36","1","764"
"3","3","retrieval","old_objects","93","Fan_Straw.jpg","36","1","628"
"3","3","retrieval","new_objects","94","Box_Vials.jpg","37","1","694"
"3","3","retrieval","new_objects","95","Dresser_1.jpg","37","1","1221"
"3","3","retrieval","new_objects","96","Lens_Camera.jpg","37","1","806"
"3","3","retrieval","new_objects","97","Bottle_Specimen.jpg","37","1","703"
"3","3","retrieval","old_objects","98","Gum_Pack.jpg","36","1","514"
"3","3","retrieval","new_objects","99","BicycleChain.jpg","37","1","1069"
"3","3","retrieval","old_objects","100","CrepeMaker.jpg","37","0","1013"
"3","3","retrieval","new_objects","101","Gauge.jpg","37","1","795"
"3","3","retrieval","new_objects","102","Brush_Makeup.jpg","37","1","851"
"3","3","retrieval","new_objects","103","Ball_Squashball.jpg","37","1","916"
"3","3","retrieval","old_objects","104","Candy_Caramel.jpg","36","1","743"
"3","3","retrieval","new_objects","105","Bowtie.jpg","36","0","675"
"3","3","retrieval","old_objects","106","Starfish.jpg","36","1","572"
"3","3","retrieval","old_objects","107","Cart_Groceries.jpg","36","1","534"
"3","3","retrieval","old_objects","108","DrainPlug.jpg","36","1","731"
"3","3","retrieval","new_objects","109","Statue_ManHorse.jpg","37","1","744"
"3","3","retrieval","new_objects","110","Bottle_Oil.jpg","37","1","859"
"3","3","retrieval","old_objects","111","Candy_Cane.jpg","36","1","748"
"3","3","retrieval","old_objects","112","SpongeScrubbing.jpg","36","1","569"
"3","3","retrieval","new_objects","113","Broom_Short.jpg","37","1","795"
"3","3","retrieval","old_objects","114","Wallet_ClosedBlack.jpg","36","1","1131"
"3","3","retrieval","new_objects","115","EyeExamDevice.jpg","37","1","715"
"3","3","retrieval","new_objects","116","ChalkboardEraser.jpg","37","1","877"
"3","3","retrieval","old_objects","117","MeterElectric.jpg","36","1","674"
"3","3","retrieval","new_objects","118","ToothPaste.jpg","37","1","702"
"3","3","retrieval","old_objects","119","Heater_ElectricUpright.jpg","36","1","638"
"3","3","retrieval","old_objects","120","Hammock.jpg","36","1","562"
"3","3","retrieval","new_objects","121","Golf_Club.jpg","37","1","742"
"3","3","retrieval","old_objects","123","LampPost_OneBulb.jpg","36","1","808"
"3","3","retrieval","new_objects","124","ShoppingCart.jpg","37","1","727"
"3","3","retrieval","new_objects","125","Hammer.jpg","36","0","1040"
"3","3","retrieval","new_objects","126","Shorts_Sports.jpg","37","1","676"
"3","3","retrieval","new_objects","127","Jar_Money.jpg","37","1","1136"
"3","3","retrieval","new_objects","128","Barrel_Wine.jpg","37","1","901"
"3","3","retrieval","old_objects","129","Cookie.jpg","36","1","628"
"3","3","retrieval","old_objects","130","Pouch_Red.jpg","36","1","776"
"3","3","retrieval","old_objects","131","Scarecrow.jpg","36","1","669"
"3","3","retrieval","new_objects","132","Box_Package.jpg","37","1","877"
"3","3","retrieval","old_objects","133","VinylRecord.jpg","36","1","609"
"3","3","retrieval","old_objects","134","Crib_Basket.jpg","36","1","556"
"3","3","retrieval","new_objects","135","BicycleGear.jpg","36","0","693"
"3","3","retrieval","new_objects","136","Cassette_Video.jpg","37","1","969"
"3","3","retrieval","new_objects","137","Snail.jpg","37","1","772"
"3","3","retrieval","new_objects","138","Bark.jpg","37","1","838"
"3","3","retrieval","old_objects","139","WaterWell.jpg","36","1","845"
"3","3","retrieval","new_objects","140","Toy_MrPotatoHeadjpg.jpg","37","1","650"
"3","3","retrieval","old_objects","141","Toy_DinosaurTRex.jpg","36","1","659"
"3","3","retrieval","old_objects","142","Shoes_DutchClogs.jpg","36","1","693"
"3","3","retrieval","old_objects","143","TowelRack_Brown.jpg","36","1","641"
"3","3","retrieval","new_objects","144","ComputerKeyboard.jpg","37","1","684"
"3","3","retrieval","new_objects","145","TestTube_MultipleAndRack.jpg","36","0","841"
"3","3","retrieval","old_objects","146","Tambourine.jpg","36","1","625"
"3","3","retrieval","new_objects","147","Binder.jpg","36","0","594"
"3","3","retrieval","new_objects","148","TreeStump.jpg","37","1","955"
"3","3","retrieval","new_objects","149","ChiliFlakes.jpg","37","1","898"
"3","3","retrieval","old_objects","150","ShearsGarden.jpg","37","0","917"
"3","3","retrieval","new_objects","151","Stationary.jpg","37","1","1473"
"3","3","retrieval","new_objects","152","Leaf_Yellow.jpg","37","1","755"
"3","3","retrieval","old_objects","153","Steam_Cleaner.jpg","36","1","734"
"3","3","retrieval","old_objects","154","PillBottle_Spilled.jpg","36","1","579"
"3","3","retrieval","old_objects","155","Glass_Cup.jpg","37","0","916"
"3","3","retrieval","old_objects","156","SlushieMachine.jpg","36","1","756"
"3","3","retrieval","new_objects","157","Tube_Glue.jpg","36","0","585"
"3","3","retrieval","old_objects","158","Tofu.jpg","36","1","564"
"3","3","retrieval","new_objects","159","Rag.jpg","37","1","996"
"3","3","retrieval","old_objects","160","ScaleWeighing.jpg","37","0","1200"
"3","3","retrieval","new_objects","161","CDstack.jpg","36","0","1036"
"3","3","retrieval","old_objects","162","WalkieTalkie_Yellow.jpg","36","1","739"
"3","3","retrieval","new_objects","163","Handcuffs.jpg","37","1","1290"
"3","3","retrieval","new_objects","164","Ashtray_Empty.jpg","37","1","889"
"3","3","retrieval","new_objects","165","Lantern_Chinese.jpg","37","1","755"
"3","3","retrieval","old_objects","166","Bone.jpg","36","1","680"
"3","3","retrieval","new_objects","167","Chinchilla.jpg","37","1","876"
"3","3","retrieval","old_objects","168","Lion.jpg","37","0","1239"
"3","3","retrieval","new_objects","169","PencilSharpener.jpg","36","0","934"
"3","3","retrieval","old_objects","170","Airplane_Small.jpg","36","1","780"
"3","3","retrieval","new_objects","171","Towel.jpg","37","1","907"
"3","3","retrieval","new_objects","172","Book_Paper.jpg","37","1","848"
"3","3","retrieval","old_objects","173","DogTreat.jpg","36","1","667"
"3","3","retrieval","new_objects","174","Barbecue_Gas.jpg","36","0","1257"
"3","3","retrieval","new_objects","175","StampAndSeal.jpg","37","1","1070"
"3","3","retrieval","new_objects","176","Knife_Hunting.jpg","37","1","787"
"3","3","retrieval","old_objects","177","DoorBolt.jpg","36","1","714"
"3","3","retrieval","new_objects","178","DusterFeather.jpg","37","1","695"
"3","3","retrieval","new_objects","179","Can_OilSpout.jpg","37","1","944"
"3","3","retrieval","old_objects","180","Knife_Camping.jpg","36","1","834"
"3","3","retrieval","new_objects","181","Thimble.jpg","37","1","908"
"3","3","retrieval","new_objects","182","Ball_Golf.jpg","37","1","791"
"3","3","retrieval","old_objects","184","WaterCooler.jpg","36","1","855"
"3","3","retrieval","new_objects","185","TotemPole.jpg","37","1","782"
"3","3","retrieval","old_objects","186","Corkscrew.jpg","36","1","706"
"3","3","retrieval","old_objects","187","Corkboard.jpg","36","1","578"
"3","3","retrieval","new_objects","188","BottleOpener.jpg","37","1","782"
"3","3","retrieval","new_objects","189","Tray_Cafeteria.jpg","37","1","815"
"3","3","retrieval","new_objects","190","RiceRaw.jpg","37","1","771"
"3","3","retrieval","old_objects","191","DryRack_Clothes.jpg","36","1","655"
"3","3","retrieval","new_objects","192","Cage_Hamster.jpg","37","1","692"
"3","3","retrieval","new_objects","193","BicycleWheelRusty.jpg","37","1","672"
"3","3","retrieval","new_objects","194","Card_QueenSpade.jpg","36","0","759"
"3","3","retrieval","new_objects","195","Rake_Long.jpg","36","0","616"
"3","3","retrieval","new_objects","196","Lock_Door.jpg","36","0","871"
"3","3","retrieval","new_objects","197","Match.jpg","37","1","834"
"3","3","retrieval","new_objects","198","Bench_Park.jpg","37","1","985"
"3","3","retrieval","old_objects","199","Glasses_Sun.jpg","36","1","817"
"3","3","retrieval","old_objects","200","Toy_Dog.jpg","36","1","646"
"3","3","retrieval","old_objects","201","Pen_Calligraphy.jpg","36","1","568"
"3","3","retrieval","old_objects","202","Parcel.jpg","36","1","586"
"3","3","retrieval","new_objects","203","Fan_Ceiling.jpg","37","1","1000"
"3","3","retrieval","old_objects","204","PlayerFootball.jpg","36","1","727"
"3","3","retrieval","old_objects","205","Missile.jpg","36","1","722"
"3","3","retrieval","old_objects","206","Drum_Tall.jpg","36","1","590"
"3","3","retrieval","old_objects","207","DustPan.jpg","37","0","842"
"3","3","retrieval","old_objects","208","Cast.jpg","36","1","763"
"3","3","retrieval","old_objects","209","PlantPotted.jpg","36","1","536"
"3","3","retrieval","new_objects","210","Brace_Back.jpg","37","1","820"
"3","3","retrieval","new_objects","211","Ball_Bowling.jpg","37","1","835"
"3","3","retrieval","new_objects","212","Toast.jpg","37","1","861"
"3","3","retrieval","new_objects","213","Cork.jpg","37","1","774"
"3","3","retrieval","new_objects","214","CashRegister_Modern.jpg","37","1","722"
"3","3","retrieval","new_objects","215","Defribrillator.jpg","37","1","833"
"3","3","retrieval","new_objects","216","Bucket_Ice.jpg","37","1","1180"
"3","3","retrieval","old_objects","217","Guitar_Acoustic.jpg","36","1","662"
"3","3","retrieval","new_objects","218","Drink_Cocktail.jpg","37","1","734"
"3","3","retrieval","new_objects","219","Puzzle_Piece.jpg","37","1","764"
"3","3","retrieval","old_objects","220","Gun_Revolver.jpg","37","0","824"
"3","3","retrieval","old_objects","221","Cart_Wooden.jpg","36","1","655"
"3","3","retrieval","new_objects","222","SoundMixer_Blue.jpg","37","1","815"
"3","3","retrieval","old_objects","223","Car_Totalled.jpg","36","1","724"
"3","3","retrieval","new_objects","224","Hoodie.jpg","37","1","746"
"3","3","retrieval","old_objects","225","Jar_Cotton.jpg","36","1","886"
"3","3","retrieval","old_objects","226","Playground.jpg","36","1","685"
"3","3","retrieval","new_objects","227","Seal_Toy.jpg","36","0","812"
"3","3","retrieval","old_objects","228","Stroboscope.jpg","37","0","997"
"3","3","retrieval","old_objects","229","Candy_Toffee.jpg","36","1","719"
"3","3","retrieval","old_objects","230","Sign_Washroom.jpg","36","1","793"
"3","3","retrieval","old_objects","231","Pot_CastIron.jpg","36","1","637"
"3","3","retrieval","old_objects","232","TeethModel.jpg","36","1","586"
"3","3","retrieval","old_objects","233","Fuse.jpg","36","1","815"
"3","3","retrieval","new_objects","234","Radio_Modern.jpg","37","1","702"
"3","3","retrieval","new_objects","235","DrillBit.jpg","37","1","1009"
"3","3","retrieval","new_objects","236","Perfume.jpg","0","0","2000"
"3","3","retrieval","old_objects","237","Pear_Green.jpg","36","1","682"
"3","3","retrieval","old_objects","238","Box_Wine.jpg","36","1","819"
"3","3","retrieval","old_objects","239","Statue_Jesus.jpg","37","0","799"
"3","3","retrieval","new_objects","240","Tag_Identifier.jpg","36","0","595"
"3","3","retrieval","new_objects","241","Toy_Truck.jpg","36","0","589"
"3","3","retrieval","old_objects","242","Horn_French.jpg","37","0","855"
"3","3","retrieval","new_objects","243","Bell_Hand.jpg","36","0","718"
"3","3","retrieval","old_objects","245","Chair_Deck.jpg","37","0","880"
"3","3","retrieval","new_objects","246","Motorcycle.jpg","37","1","806"
"3","3","retrieval","new_objects","247","Film_Single.jpg","37","1","729"
"3","3","retrieval","new_objects","248","Guitar_Electric.jpg","37","1","764"
"3","3","retrieval","new_objects","249","Sign_NoParking.jpg","36","0","759"
"3","3","retrieval","new_objects","250","Box_Staples.jpg","37","1","795"
"3","3","retrieval","new_objects","251","BoxTrailer.jpg","37","1","802"
"3","3","retrieval","old_objects","252","Chime.jpg","36","1","783"
"3","3","retrieval","new_objects","253","Flute_Wooden.jpg","37","1","702"
"3","3","retrieval","old_objects","254","Blueprints.jpg","36","1","782"
"3","3","retrieval","new_objects","255","Mango.jpg","37","1","809"
"3","3","retrieval","old_objects","256","Hourglass.jpg","37","0","863"
"3","3","retrieval","new_objects","257","Clip_Paper.jpg","37","1","842"
"3","3","retrieval","old_objects","258","Pepper_Chili.jpg","36","1","896"
"3","3","retrieval","old_objects","259","Shark_Hammerhead.jpg","36","1","691"
"3","3","retrieval","old_objects","260","PaintBrushAndPallette.jpg","36","1","743"
"3","3","retrieval","old_objects","261","Pliers_ViceGrip.jpg","36","1","626"
"3","3","retrieval","old_objects","262","BakingDish.jpg","36","1","777"
"3","3","retrieval","new_objects","263","Crate_Milk.jpg","36","0","1044"
"3","3","retrieval","old_objects","264","Walkman.jpg","36","1","663"
"3","3","retrieval","old_objects","265","Platter_Vegetables.jpg","36","1","493"
"3","3","retrieval","new_objects","266","Toolbox_RedOpen.jpg","37","1","713"
"3","3","retrieval","old_objects","267","Switch_Power.jpg","37","0","715"
"3","3","retrieval","new_objects","268","ChariotGold.jpg","36","0","571"
"3","3","retrieval","new_objects","269","Dolly.jpg","36","0","597"
"3","3","retrieval","old_objects","270","Cauliflower.jpg","36","1","747"
"3","3","retrieval","old_objects","271","Toy_Bat.jpg","36","1","824"
"3","3","retrieval","old_objects","272","Fridge.jpg","37","0","704"
"3","3","retrieval","new_objects","273","Stepper.jpg","37","1","842"
"3","3","retrieval","old_objects","274","Spoon_Wooden.jpg","36","1","662"
"3","3","retrieval","old_objects","275","Cable_AudioSplitter.jpg","36","1","622"
"3","3","retrieval","old_objects","276","Neckrest.jpg","36","1","637"
"3","3","retrieval","old_objects","277","WindshieldWasherFluid.jpg","36","1","591"
"3","3","retrieval","old_objects","278","RibbonPin.jpg","36","1","562"
"3","3","retrieval","old_objects","279","Hat_Sheriff.jpg","37","0","953"
"3","3","retrieval","old_objects","280","CandyDispenser.jpg","36","1","704"
"3","3","retrieval","old_objects","281","Earrings_Dangling.jpg","36","1","900"
"3","3","retrieval","new_objects","282","SewingMachine.jpg","37","1","730"
"3","3","retrieval","new_objects","283","Chair_Car.jpg","36","0","768"
"3","3","retrieval","old_objects","284","Toy_Lizard.jpg","36","1","774"
"3","3","retrieval","old_objects","285","Seeder.jpg","36","1","909"
"3","3","retrieval","old_objects","286","Snake_Cobra.jpg","36","1","617"
"3","3","retrieval","old_objects","287","PokerChips.jpg","36","1","720"
"3","3","retrieval","old_objects","288","Toy_Slide.jpg","36","1","721"
"3","3","retrieval","new_objects","289","Spoon_WoodenLight.jpg","36","0","583"
"3","3","retrieval","new_objects","290","Loofa.jpg","37","1","780"
"3","3","retrieval","new_objects","291","Tickets_PrintWords.jpg","37","1","732"
"3","3","retrieval","old_objects","292","DoorHandle.jpg","37","0","764"
"3","3","retrieval","new_objects","293","Hockey_Equipment.jpg","37","1","878"
"3","3","retrieval","old_objects","294","Turtle.jpg","37","0","886"
"3","3","retrieval","old_objects","295","Stapler_Regular.jpg","36","1","801"
"3","3","retrieval","old_objects","296","Gazebo.jpg","36","1","670"
"3","3","retrieval","old_objects","297","TissueBox.jpg","36","1","685"
"3","3","retrieval","old_objects","298","Megaphone.jpg","36","1","640"
"3","3","retrieval","old_objects","299","Ship_Battle.jpg","36","1","709"
"3","3","retrieval","old_objects","300","SundaeBanana.jpg","37","0","1024"
"3","3","retrieval","old_objects","301","House_Wooden.jpg","36","1","646"
"3","3","retrieval","old_objects","302","PumiceStone.jpg","36","1","748"
"3","3","retrieval","new_objects","303","MoneyBill50.jpg","37","1","685"
"3","3","retrieval","new_objects","304","Shoe_WomenHeals.jpg","37","1","723"
"3","3","retrieval","new_objects","306","HandMixer.jpg","37","1","716"
"3","3","retrieval","old_objects","307","Pants_Firefighter.jpg","37","0","699"
"3","3","retrieval","new_objects","308","CoinRolls.jpg","37","1","823"
"3","3","retrieval","old_objects","309","MagazineRoll.jpg","36","1","798"
"3","3","retrieval","old_objects","310","Case_DVD.jpg","36","1","780"
"3","3","retrieval","new_objects","311","Oneholepunch.jpg","36","0","679"
"3","3","retrieval","old_objects","312","Toy_Christmastree.jpg","36","1","565"
"3","3","retrieval","old_objects","313","Mask_African.jpg","36","1","650"
"3","3","retrieval","old_objects","314","WagonPilgrim.jpg","36","1","501"
"3","3","retrieval","new_objects","315","Lollipop_Rainbow.jpg","37","1","683"
"3","3","retrieval","new_objects","316","Drum_Brazilan.jpg","36","0","820"
"3","3","retrieval","new_objects","317","PizzaCutter.jpg","37","1","779"
"3","3","retrieval","new_objects","318","ShoulderPads.jpg","37","1","793"
"3","3","retrieval","new_objects","319","PharoahReplica.jpg","37","1","908"
"3","3","retrieval","new_objects","320","SnowmanDecor.jpg","37","1","867"
"3","3","retrieval","new_objects","321","StringBean.jpg","37","1","596"
"3","3","retrieval","old_objects","322","Skirt_Stripes.jpg","36","1","705"
"3","3","retrieval","old_objects","323","Spoon_Sugar.jpg","36","1","635"
"3","3","retrieval","old_objects","324","Truck_Pickup.jpg","36","1","736"
"3","3","retrieval","old_objects","325","Arch.jpg","36","1","555"
"3","3","retrieval","new_objects","326","Toy_Lighthouse.jpg","37","1","750"
"3","3","retrieval","new_objects","327","Hedgehog.jpg","37","1","1500"
"3","3","retrieval","new_objects","328","Hippopotamus.jpg","37","1","832"
"3","3","retrieval","old_objects","329","Nightstand.jpg","36","1","906"
"3","3","retrieval","old_objects","330","Hat_Beanie.jpg","36","1","608"
"3","3","retrieval","new_objects","331","ShinPads.jpg","37","1","831"
"3","3","retrieval","old_objects","332","Fencing_HelmetSwords.jpg","37","0","1043"
"3","3","retrieval","old_objects","333","Crab.jpg","36","1","814"
"3","3","retrieval","old_objects","334","Toy_HockeyStick.jpg","37","0","1702"
"3","3","retrieval","new_objects","335","Bag_Grains.jpg","37","1","1984"
"3","3","retrieval","new_objects","336","KiddiePool.jpg","37","1","1147"
"3","3","retrieval","old_objects","337","FloppyDisk.jpg","37","0","1020"
"3","3","retrieval","new_objects","338","Scissors.jpg","37","1","765"
"3","3","retrieval","old_objects","339","Bag_Toiletry.jpg","36","1","1174"
"3","3","retrieval","old_objects","340","HDMIConnector.jpg","36","1","805"
"3","3","retrieval","new_objects","341","Door_Green.jpg","37","1","1111"
"3","3","retrieval","old_objects","342","Vase_Decorative.jpg","36","1","766"
"3","3","retrieval","old_objects","343","Stovetop.jpg","36","1","686"
"3","3","retrieval","new_objects","344","Toblerone.jpg","37","1","697"
"3","3","retrieval","old_objects","345","Hat_Explorer.jpg","37","0","923"
"3","3","retrieval","old_objects","346","Artichoke.jpg","36","1","1023"
"3","3","retrieval","old_objects","347","WalkieTalkie_Red.jpg","36","1","688"
"3","3","retrieval","old_objects","348","Radio_Antique.jpg","37","0","862"
"3","3","retrieval","old_objects","349","MixingGlass.jpg","37","0","854"
"3","3","retrieval","new_objects","350","Camera_ProfessionalFilm.jpg","37","1","767"
"3","3","retrieval","old_objects","351","TartStrawberry.jpg","36","1","824"
"3","3","retrieval","old_objects","352","Tripod.jpg","36","1","892"
"3","3","retrieval","new_objects","353","Heater_ElectricPortable.jpg","37","1","805"
"3","3","retrieval","old_objects","354","Toy_BeadMaze.jpg","36","1","723"
"3","3","retrieval","old_objects","355","SkullDeer.jpg","36","1","610"
"3","3","demographics_block","gender","1","SkullDeer.jpg","female","1","15777"
"3","3","demographics_block","age","1","SkullDeer.jpg","52","1","15777"
"3","3","demographics_block","education","1","SkullDeer.jpg","16","1","15777"
"3","3","demographics_block","left_right_handed","2","SkullDeer.jpg","Left","1","11933"
"3","3","demographics_block","raceoption1","2","SkullDeer.jpg","","1","11933"
"3","3","demographics_block","raceoption2","2","SkullDeer.jpg","","1","11933"
"3","3","demographics_block","raceoption3","2","SkullDeer.jpg","","1","11933"
"3","3","demographics_block","raceoption4","2","SkullDeer.jpg","","1","11933"
"3","3","demographics_block","raceoption5","2","SkullDeer.jpg","","1","11933"
"3","3","demographics_block","raceoption6","2","SkullDeer.jpg","","1","11933"
"3","3","demographics_block","raceoption7","2","SkullDeer.jpg","","1","11933"
"3","3","demographics_block","raceoption8","2","SkullDeer.jpg","","1","11933"
"3","3","demographics_block","raceoption9","2","SkullDeer.jpg","8","1","11933"
"3","3","demographics_block","raceother","2","SkullDeer.jpg","multi","1","11933"
"3","3","demographics_block","raceother","2","SkullDeer.jpg","multi","1","11933"
"3","3","demographics_block","english_language","2","SkullDeer.jpg","Yes","1","11933"
"3","3","demographics_block","english_languageother","2","SkullDeer.jpg","","1","11933"
"3","3","demographics_block","eyesight","3","SkullDeer.jpg","Yes","1","6557"
"3","3","demographics_block","colorblind","3","SkullDeer.jpg","No","1","6557"
"3","3","worker_id_block","worker_id_textbox","1","SkullDeer.jpg","A49A0FF6ZXYDU","1","39844"
"5","5","encoding","encoding","1","Pot_CastIron.jpg","37","0","1502"
"5","5","encoding","encoding","2","DogSled.jpg","37","0","1035"
"5","5","encoding","encoding","3","PagodaModel.jpg","37","0","822"
"5","5","encoding","encoding","4","Neckrest.jpg","37","0","885"
"5","5","encoding","encoding","5","ShearsGarden.jpg","37","0","720"
"5","5","encoding","encoding","6","Arch.jpg","37","0","639"
"5","5","encoding","encoding","7","Tripod.jpg","37","0","702"
"5","5","encoding","encoding","8","Pouch_Red.jpg","37","0","1546"
"5","5","encoding","encoding","9","Corkboard.jpg","37","0","904"
"5","5","encoding","encoding","10","Pliers_ViceGrip.jpg","37","0","588"
"5","5","encoding","encoding","11","PillBottle_Spilled.jpg","37","0","1236"
"5","5","encoding","encoding","12","WagonPilgrim.jpg","37","0","921"
"5","5","encoding","encoding","13","Icepick.jpg","37","0","1040"
"5","5","encoding","encoding","14","FloppyDisk.jpg","37","0","636"
"5","5","encoding","encoding","15","Megaphone.jpg","37","0","517"
"5","5","encoding","encoding","16","SundaeBanana.jpg","37","0","969"
"5","5","encoding","encoding","17","Pajamas.jpg","37","0","571"
"5","5","encoding","encoding","18","Cloud.jpg","36","0","1323"
"5","5","encoding","encoding","19","ScaleWeighing.jpg","37","0","655"
"5","5","encoding","encoding","20","Bag_Toiletry.jpg","37","0","697"
"5","5","encoding","encoding","21","Telephone_Dial.jpg","37","0","721"
"5","5","encoding","encoding","22","Toilet.jpg","37","0","623"
"5","5","encoding","encoding","23","Toy_Lizard.jpg","36","0","819"
"5","5","encoding","encoding","24","Desk_School.jpg","37","0","1243"
"5","5","encoding","encoding","25","SaxophoneSoprano.jpg","37","0","565"
"5","5","encoding","encoding","26","Fencing_HelmetSwords.jpg","37","0","1046"
"5","5","encoding","encoding","27","MagazineRoll.jpg","37","0","997"
"5","5","encoding","encoding","28","Truck_Pickup.jpg","37","0","820"
"5","5","encoding","encoding","29","Toy_HockeyStick.jpg","37","0","783"
"5","5","encoding","encoding","30","Hat_Beanie.jpg","37","0","684"
"5","5","encoding","encoding","31","SpongeScrubbing.jpg","37","0","1465"
"5","5","encoding","encoding","32","PaintBrushAndPallette.jpg","37","0","651"
"5","5","encoding","encoding","33","Cart_Wooden.jpg","37","0","675"
"5","5","encoding","encoding","34","Case_DVD.jpg","37","0","511"
"5","5","encoding","encoding","35","Crab.jpg","36","0","819"
"5","5","encoding","encoding","36","Playground.jpg","37","0","948"
"5","5","encoding","encoding","37","Walkman.jpg","37","0","871"
"5","5","encoding","encoding","38","Lion.jpg","36","0","809"
"5","5","encoding","encoding","39","Spoon_Sugar.jpg","37","0","880"
"5","5","encoding","encoding","40","Starfish.jpg","37","0","790"
"5","5","encoding","encoding","41","fries.jpg","37","0","1116"
"5","5","encoding","encoding","42","Cookie.jpg","37","0","1340"
"5","5","encoding","encoding","43","Hat_Sheriff.jpg","37","0","927"
"5","5","encoding","encoding","44","Car_Totalled.jpg","37","0","743"
"5","5","encoding","encoding","45","Bone.jpg","36","0","1422"
"5","5","encoding","encoding","46","Tambourine.jpg","37","0","1102"
"5","5","encoding","encoding","47","Armchair.jpg","37","0","864"
"5","5","encoding","encoding","48","Vase_Decorative.jpg","37","0","1087"
"5","5","encoding","encoding","49","Blueprints.jpg","37","0","992"
"5","5","encoding","encoding","50","WaterWell.jpg","37","0","995"
"5","5","encoding","encoding","51","Heater_ElectricUpright.jpg","37","0","1109"
"5","5","encoding","encoding","52","Glasses_Sun.jpg","37","0","1169"
"5","5","encoding","encoding","53","Gum_Pack.jpg","37","0","1103"
"5","5","encoding","encoding","54","Lips_Wax.jpg","37","0","877"
"5","5","encoding","encoding","55","HandRake.jpg","37","0","610"
"5","5","encoding","encoding","56","Bowl_Chopsticks.jpg","37","0","881"
"5","5","encoding","encoding","57","Pepper_Chili.jpg","36","0","867"
"5","5","encoding","encoding","58","TartStrawberry.jpg","37","0","1043"
"5","5","encoding","encoding","59","Pants_Firefighter.jpg","37","0","789"
"5","5","encoding","encoding","60","Toy_Bat.jpg","37","0","1011"
"5","5","encoding","encoding","62","Nightstand.jpg","37","0","719"
"5","5","encoding","encoding","63","TowelRack_Brown.jpg","37","0","818"
"5","5","encoding","encoding","64","Fuse.jpg","37","0","800"
"5","5","encoding","encoding","65","Fish_Swordfish.jpg","36","0","1751"
"5","5","encoding","encoding","66","Candy_Toffee.jpg","37","0","1031"
"5","5","encoding","encoding","67","Stovetop.jpg","37","0","772"
"5","5","encoding","encoding","68","Chair_Deck.jpg","37","0","957"
"5","5","encoding","encoding","69","DogTreat.jpg","37","0","1028"
"5","5","encoding","encoding","70","TissueBox.jpg","37","0","654"
"5","5","encoding","encoding","71","Hat_Explorer.jpg","37","0","682"
"5","5","encoding","encoding","72","DoorBolt.jpg","37","0","724"
"5","5","encoding","encoding","73","Pen_Calligraphy.jpg","37","0","1055"
"5","5","encoding","encoding","74","RibbonPin.jpg","37","0","976"
"5","5","encoding","encoding","75","Guitar_Acoustic.jpg","37","0","949"
"5","5","encoding","encoding","76","Ring_Diamond.jpg","37","0","971"
"5","5","encoding","encoding","77","Missile.jpg","37","0","641"
"5","5","encoding","encoding","78","Box_Wine.jpg","37","0","1025"
"5","5","encoding","encoding","79","Fan_Straw.jpg","37","0","784"
"5","5","encoding","encoding","80","Stick_Honey.jpg","37","0","952"
"5","5","encoding","encoding","81","WalkieTalkie_Red.jpg","37","0","925"
"5","5","encoding","encoding","82","Pig.jpg","36","0","971"
"5","5","encoding","encoding","83","Jug_ClayAncient.jpg","37","0","805"
"5","5","encoding","encoding","84","Telephone_Booth.jpg","37","0","814"
"5","5","encoding","encoding","85","Compressor.jpg","37","0","883"
"5","5","encoding","encoding","86","PokerChips.jpg","37","0","542"
"5","5","encoding","encoding","87","Pear_Green.jpg","36","0","868"
"5","5","encoding","encoding","88","PhoneJack.jpg","37","0","797"
"5","5","encoding","encoding","89","Candy_Cane.jpg","37","0","1273"
"5","5","encoding","encoding","90","Spoon_Wooden.jpg","37","0","722"
"5","5","encoding","encoding","91","Cart_Groceries.jpg","37","0","801"
"5","5","encoding","encoding","92","Fridge.jpg","37","0","652"
"5","5","encoding","encoding","93","HumanSkeleton.jpg","36","0","1127"
"5","5","encoding","encoding","94","Shoes_DutchClogs.jpg","37","0","697"
"5","5","encoding","encoding","95","DryRack_Clothes.jpg","37","0","728"
"5","5","encoding","encoding","96","Corkscrew.jpg","37","0","668"
"5","5","encoding","encoding","97","Toy_Dog.jpg","37","0","1439"
"5","5","encoding","encoding","98","Crib_Basket.jpg","0","0","2001"
"5","5","encoding","encoding","99","Hourglass.jpg","37","0","549"
"5","5","encoding","encoding","100","Drum_Tall.jpg","37","0","659"
"5","5","encoding","encoding","101","SeatBuckle.jpg","37","0","1030"
"5","5","encoding","encoding","102","House_Wooden.jpg","37","0","802"
"5","5","encoding","encoding","103","PlantPotted.jpg","37","0","1644"
"5","5","encoding","encoding","104","Airplane_Small.jpg","37","0","1089"
"5","5","encoding","encoding","105","Gazebo.jpg","37","0","959"
"5","5","encoding","encoding","106","DrainPlug.jpg","37","0","754"
"5","5","encoding","encoding","107","Seeder.jpg","37","0","619"
"5","5","encoding","encoding","108","Artichoke.jpg","36","0","832"
"5","5","encoding","encoding","109","PlayerFootball.jpg","0","0","2001"
"5","5","encoding","encoding","110","MeterElectric.jpg","37","0","1529"
"5","5","encoding","encoding","111","Lei.jpg","37","0","1274"
"5","5","encoding","encoding","112","HDMIConnector.jpg","37","0","812"
"5","5","encoding","encoding","113","WindshieldWasherFluid.jpg","37","0","611"
"5","5","encoding","encoding","114","Jar_Cotton.jpg","37","0","1015"
"5","5","encoding","encoding","115","Candy_Caramel.jpg","37","0","716"
"5","5","encoding","encoding","116","Tofu.jpg","37","0","1356"
"5","5","encoding","encoding","117","Snake_Cobra.jpg","36","0","1120"
"5","5","encoding","encoding","118","Horn_French.jpg","37","0","618"
"5","5","encoding","encoding","119","Earrings_Dangling.jpg","37","0","640"
"5","5","encoding","encoding","120","Radio_Antique.jpg","37","0","620"
"5","5","encoding","encoding","121","Folder_Plastic.jpg","37","0","1354"
"5","5","encoding","encoding","123","LampPost_OneBulb.jpg","37","0","518"
"5","5","encoding","encoding","124","Turtle.jpg","36","0","855"
"5","5","encoding","encoding","125","Scrabble.jpg","37","0","770"
"5","5","encoding","encoding","126","WaterCooler.jpg","37","0","607"
"5","5","encoding","encoding","127","RugRoled.jpg","37","0","644"
"5","5","encoding","encoding","128","DoorHandle.jpg","37","0","638"
"5","5","encoding","encoding","129","HotWaterBottle.jpg","37","0","603"
"5","5","encoding","encoding","130","Hammock.jpg","37","0","676"
"5","5","encoding","encoding","131","BakingDish.jpg","37","0","605"
"5","5","encoding","encoding","132","MixingGlass.jpg","37","0","577"
"5","5","encoding","encoding","133","TeethModel.jpg","37","0","1329"
"5","5","encoding","encoding","134","VinylRecord.jpg","37","0","777"
"5","5","encoding","encoding","135","Bottle_Champagne.jpg","37","0","812"
"5","5","encoding","encoding","136","Cable_AudioSplitter.jpg","37","0","590"
"5","5","encoding","encoding","137","Glass_Cup.jpg","37","0","676"
"5","5","encoding","encoding","138","CapGraduation.jpg","37","0","563"
"5","5","encoding","encoding","139","PhoneCase.jpg","37","0","679"
"5","5","encoding","encoding","140","Scoop_IceCream.jpg","37","0","642"
"5","5","encoding","encoding","141","PumiceStone.jpg","36","0","990"
"5","5","encoding","encoding","142","Wallet_ClosedBlack.jpg","37","0","776"
"5","5","encoding","encoding","143","Ship_Battle.jpg","37","0","916"
"5","5","encoding","encoding","144","CandyDispenser.jpg","37","0","749"
"5","5","encoding","encoding","145","Steam_Cleaner.jpg","37","0","607"
"5","5","encoding","encoding","146","SlushieMachine.jpg","37","0","660"
"5","5","encoding","encoding","147","CarSeat.jpg","37","0","691"
"5","5","encoding","encoding","148","Mitt_Blue.jpg","37","0","594"
"5","5","encoding","encoding","149","Ferret.jpg","36","0","822"
"5","5","encoding","encoding","150","Parcel.jpg","37","0","1118"
"5","5","encoding","encoding","151","Skirt_Stripes.jpg","37","0","911"
"5","5","encoding","encoding","152","Toy_Slide.jpg","37","0","834"
"5","5","encoding","encoding","153","Mask_African.jpg","37","0","1483"
"5","5","encoding","encoding","154","Toy_DinosaurTRex.jpg","37","0","1963"
"5","5","encoding","encoding","155","Bagel.jpg","37","0","668"
"5","5","encoding","encoding","156","Stroboscope.jpg","37","0","562"
"5","5","encoding","encoding","157","Shark_Hammerhead.jpg","36","0","1016"
"5","5","encoding","encoding","158","Knife_Camping.jpg","37","0","1642"
"5","5","encoding","encoding","159","Statue_Jesus.jpg","37","0","688"
"5","5","encoding","encoding","160","Scarecrow.jpg","37","0","813"
"5","5","encoding","encoding","161","Box_Notepaper.jpg","37","0","1447"
"5","5","encoding","encoding","162","Syringe_Needle.jpg","37","0","990"
"5","5","encoding","encoding","163","Platter_Vegetables.jpg","37","0","1853"
"5","5","encoding","encoding","164","WalkieTalkie_Yellow.jpg","37","0","692"
"5","5","encoding","encoding","165","Toy_BeadMaze.jpg","37","0","383"
"5","5","encoding","encoding","166","Sign_Washroom.jpg","37","0","670"
"5","5","encoding","encoding","167","Gun_Revolver.jpg","37","0","654"
"5","5","encoding","encoding","168","Chime.jpg","37","0","668"
"5","5","encoding","encoding","169","Stapler_Regular.jpg","37","0","608"
"5","5","encoding","encoding","170","Shovel_Garden.jpg","37","0","1030"
"5","5","encoding","encoding","171","DustPan.jpg","37","0","647"
"5","5","encoding","encoding","172","Cauliflower.jpg","36","0","875"
"5","5","encoding","encoding","173","Cast.jpg","37","0","689"
"5","5","encoding","encoding","174","CrepeMaker.jpg","37","0","563"
"5","5","encoding","encoding","175","SkullDeer.jpg","36","0","1253"
"5","5","encoding","encoding","176","Toy_Christmastree.jpg","0","0","2001"
"5","5","encoding","encoding","177","Switch_Power.jpg","37","0","1093"
"5","5","retrieval","old_objects","1","DrainPlug.jpg","36","1","763"
"5","5","retrieval","new_objects","2","EyeExamDevice.jpg","37","1","767"
"5","5","retrieval","old_objects","3","Bagel.jpg","36","1","1171"
"5","5","retrieval","old_objects","4","PokerChips.jpg","36","1","666"
"5","5","retrieval","old_objects","5","RugRoled.jpg","36","1","789"
"5","5","retrieval","new_objects","6","Heater_ElectricPortable.jpg","36","0","895"
"5","5","retrieval","old_objects","7","DoorHandle.jpg","36","1","750"
"5","5","retrieval","new_objects","8","Cassette_Video.jpg","36","0","835"
"5","5","retrieval","old_objects","9","Scrabble.jpg","36","1","1125"
"5","5","retrieval","old_objects","10","Toy_Christmastree.jpg","36","1","741"
"5","5","retrieval","old_objects","11","Ferret.jpg","36","1","824"
"5","5","retrieval","old_objects","12","CapGraduation.jpg","36","1","854"
"5","5","retrieval","new_objects","13","Tag_Identifier.jpg","37","1","734"
"5","5","retrieval","new_objects","14","Broom_Short.jpg","37","1","679"
"5","5","retrieval","new_objects","15","Rake_Long.jpg","37","1","768"
"5","5","retrieval","old_objects","16","House_Wooden.jpg","36","1","707"
"5","5","retrieval","old_objects","17","Shark_Hammerhead.jpg","36","1","761"
"5","5","retrieval","new_objects","18","Ball_Squashball.jpg","37","1","777"
"5","5","retrieval","old_objects","19","Cloud.jpg","36","1","898"
"5","5","retrieval","old_objects","20","Bowl_Chopsticks.jpg","36","1","1007"
"5","5","retrieval","new_objects","21","Leaf_Yellow.jpg","37","1","691"
"5","5","retrieval","old_objects","22","SpongeScrubbing.jpg","37","0","543"
"5","5","retrieval","new_objects","23","ClothCoaster.jpg","37","1","1021"
"5","5","retrieval","new_objects","24","DusterFeather.jpg","37","1","608"
"5","5","retrieval","old_objects","25","Pot_CastIron.jpg","36","1","792"
"5","5","retrieval","old_objects","26","Snake_Cobra.jpg","36","1","558"
"5","5","retrieval","old_objects","27","MixingGlass.jpg","36","1","685"
"5","5","retrieval","old_objects","28","WaterWell.jpg","37","0","824"
"5","5","retrieval","old_objects","29","PhoneCase.jpg","36","1","892"
"5","5","retrieval","new_objects","30","Chinchilla.jpg","37","1","796"
"5","5","retrieval","old_objects","31","CarSeat.jpg","36","1","933"
"5","5","retrieval","old_objects","32","Pig.jpg","36","1","933"
"5","5","retrieval","new_objects","33","Statue_ManHorse.jpg","37","1","917"
"5","5","retrieval","old_objects","34","Switch_Power.jpg","36","1","920"
"5","5","retrieval","old_objects","35","Toilet.jpg","36","1","1001"
"5","5","retrieval","new_objects","36","Walker_Silver.jpg","37","1","781"
"5","5","retrieval","old_objects","37","Blueprints.jpg","36","1","1009"
"5","5","retrieval","old_objects","38","Mitt_Blue.jpg","36","1","695"
"5","5","retrieval","old_objects","39","Starfish.jpg","36","1","1070"
"5","5","retrieval","old_objects","40","Fuse.jpg","36","1","1040"
"5","5","retrieval","old_objects","41","DogSled.jpg","36","1","704"
"5","5","retrieval","new_objects","42","Garbage_Can.jpg","37","1","774"
"5","5","retrieval","new_objects","43","Perfume.jpg","37","1","609"
"5","5","retrieval","new_objects","44","StringBean.jpg","36","0","972"
"5","5","retrieval","new_objects","45","Bucket_Ice.jpg","37","1","968"
"5","5","retrieval","new_objects","46","MalletJudge.jpg","37","1","764"
"5","5","retrieval","new_objects","47","TelephoneSwitchboard.jpg","37","1","642"
"5","5","retrieval","new_objects","48","Truck_Box.jpg","37","1","459"
"5","5","retrieval","old_objects","49","Armchair.jpg","36","1","623"
"5","5","retrieval","new_objects","50","Flute_Wooden.jpg","37","1","745"
"5","5","retrieval","new_objects","51","Chimpanzee.jpg","36","0","920"
"5","5","retrieval","old_objects","52","WalkieTalkie_Red.jpg","36","1","686"
"5","5","retrieval","old_objects","53","Shovel_Garden.jpg","36","1","758"
"5","5","retrieval","new_objects","54","Bowtie.jpg","37","1","686"
"5","5","retrieval","new_objects","55","Dresser_1.jpg","37","1","757"
"5","5","retrieval","old_objects","56","Cart_Wooden.jpg","36","1","861"
"5","5","retrieval","new_objects","57","Box_Apples.jpg","37","1","1038"
"5","5","retrieval","new_objects","58","PencilSharpener.jpg","37","1","1327"
"5","5","retrieval","old_objects","59","Hammock.jpg","36","1","1141"
"5","5","retrieval","old_objects","60","Playground.jpg","36","1","672"
"5","5","retrieval","old_objects","62","ScaleWeighing.jpg","36","1","970"
"5","5","retrieval","new_objects","63","Box_Package.jpg","37","1","703"
"5","5","retrieval","old_objects","64","PillBottle_Spilled.jpg","36","1","1070"
"5","5","retrieval","old_objects","65","SkullDeer.jpg","36","1","1070"
"5","5","retrieval","new_objects","66","Bag_Grains.jpg","37","1","864"
"5","5","retrieval","old_objects","67","Toy_Lizard.jpg","36","1","1043"
"5","5","retrieval","old_objects","68","Car_Totalled.jpg","37","0","728"
"5","5","retrieval","old_objects","69","Tofu.jpg","36","1","843"
"5","5","retrieval","new_objects","70","Lens_Camera.jpg","37","1","711"
"5","5","retrieval","new_objects","71","VacuumHose.jpg","37","1","1035"
"5","5","retrieval","new_objects","72","ShoppingCart.jpg","37","1","731"
"5","5","retrieval","old_objects","73","Cauliflower.jpg","36","1","632"
"5","5","retrieval","old_objects","74","TowelRack_Brown.jpg","36","1","854"
"5","5","retrieval","new_objects","75","PencilCase.jpg","37","1","723"
"5","5","retrieval","new_objects","76","Tomato.jpg","37","1","759"
"5","5","retrieval","old_objects","77","DustPan.jpg","36","1","768"
"5","5","retrieval","old_objects","78","Hourglass.jpg","36","1","1251"
"5","5","retrieval","new_objects","79","TotemPole.jpg","37","1","713"
"5","5","retrieval","new_objects","80","Guitar_Electric.jpg","37","1","650"
"5","5","retrieval","new_objects","81","Card_QueenSpade.jpg","37","1","641"
"5","5","retrieval","new_objects","82","DrillBit.jpg","37","1","1084"
"5","5","retrieval","new_objects","83","CDstack.jpg","37","1","626"
"5","5","retrieval","old_objects","84","PhoneJack.jpg","36","1","777"
"5","5","retrieval","old_objects","85","VinylRecord.jpg","36","1","867"
"5","5","retrieval","old_objects","86","Box_Notepaper.jpg","36","1","696"
"5","5","retrieval","new_objects","87","Snail.jpg","37","1","692"
"5","5","retrieval","new_objects","88","Crate_Milk.jpg","37","1","1076"
"5","5","retrieval","new_objects","89","Door_Green.jpg","37","1","1000"
"5","5","retrieval","old_objects","90","BakingDish.jpg","36","1","801"
"5","5","retrieval","new_objects","91","Apple_Candy.jpg","37","1","787"
"5","5","retrieval","new_objects","92","Seal_Toy.jpg","37","1","1222"
"5","5","retrieval","old_objects","93","Ship_Battle.jpg","36","1","945"
"5","5","retrieval","new_objects","94","Box_JeweleryWooden.jpg","37","1","1172"
"5","5","retrieval","old_objects","95","Shoes_DutchClogs.jpg","36","1","769"
"5","5","retrieval","new_objects","96","Loofa.jpg","37","1","912"
"5","5","retrieval","old_objects","97","SundaeBanana.jpg","36","1","1197"
"5","5","retrieval","new_objects","98","SnowmanDecor.jpg","37","1","804"
"5","5","retrieval","old_objects","99","Knife_Camping.jpg","36","1","782"
"5","5","retrieval","new_objects","100","ToothbrushHolder.jpg","37","1","826"
"5","5","retrieval","old_objects","101","Tambourine.jpg","36","1","790"
"5","5","retrieval","new_objects","102","ShinPads.jpg","37","1","815"
"5","5","retrieval","old_objects","103","ShearsGarden.jpg","36","1","1105"
"5","5","retrieval","new_objects","104","Toy_Tractor_1.jpg","36","0","1299"
"5","5","retrieval","old_objects","105","Missile.jpg","36","1","670"
"5","5","retrieval","old_objects","106","HumanSkeleton.jpg","36","1","617"
"5","5","retrieval","new_objects","107","Oneholepunch.jpg","37","1","694"
"5","5","retrieval","old_objects","108","Arch.jpg","36","1","816"
"5","5","retrieval","new_objects","109","House_Doll.jpg","37","1","824"
"5","5","retrieval","new_objects","110","TestTube_MultipleAndRack.jpg","37","1","894"
"5","5","retrieval","old_objects","111","Hat_Beanie.jpg","36","1","776"
"5","5","retrieval","new_objects","112","Golf_Club.jpg","37","1","1280"
"5","5","retrieval","old_objects","113","Hat_Explorer.jpg","36","1","650"
"5","5","retrieval","old_objects","114","DryRack_Clothes.jpg","36","1","654"
"5","5","retrieval","new_objects","115","Dolly.jpg","37","1","669"
"5","5","retrieval","new_objects","116","Can_OilSpout.jpg","37","1","571"
"5","5","retrieval","old_objects","117","WagonPilgrim.jpg","36","1","776"
"5","5","retrieval","old_objects","118","Toy_DinosaurTRex.jpg","36","1","1085"
"5","5","retrieval","new_objects","119","Chair_Bamboo.jpg","37","1","739"
"5","5","retrieval","new_objects","120","Toy_BlocksWoodenPlain.jpg","37","1","621"
"5","5","retrieval","new_objects","121","Origami_Boat.jpg","37","1","725"
"5","5","retrieval","new_objects","123","BicycleChain.jpg","37","1","772"
"5","5","retrieval","new_objects","124","Scissors.jpg","37","1","911"
"5","5","retrieval","new_objects","125","Branch.jpg","37","1","692"
"5","5","retrieval","old_objects","126","Scoop_IceCream.jpg","36","1","738"
"5","5","retrieval","old_objects","127","Telephone_Booth.jpg","36","1","786"
"5","5","retrieval","new_objects","128","Mango.jpg","37","1","1016"
"5","5","retrieval","new_objects","129","SolderingWire.jpg","37","1","705"
"5","5","retrieval","new_objects","130","Pitcher.jpg","37","1","556"
"5","5","retrieval","new_objects","131","Paddle_Canoe.jpg","37","1","593"
"5","5","retrieval","new_objects","132","SewingMachine.jpg","37","1","560"
"5","5","retrieval","old_objects","133","Gazebo.jpg","36","1","705"
"5","5","retrieval","new_objects","134","Motorcycle.jpg","36","0","1282"
"5","5","retrieval","new_objects","135","Hedgehog.jpg","37","1","763"
"5","5","retrieval","old_objects","136","Chair_Deck.jpg","36","1","1094"
"5","5","retrieval","new_objects","137","Bark.jpg","37","1","1009"
"5","5","retrieval","old_objects","138","LampPost_OneBulb.jpg","36","1","785"
"5","5","retrieval","old_objects","139","PaintBrushAndPallette.jpg","36","1","1246"
"5","5","retrieval","new_objects","140","Binder.jpg","37","1","758"
"5","5","retrieval","old_objects","141","Spoon_Sugar.jpg","36","1","887"
"5","5","retrieval","new_objects","142","Crate_Wine.jpg","37","1","879"
"5","5","retrieval","new_objects","143","RiceRaw.jpg","37","1","794"
"5","5","retrieval","new_objects","144","Shoe_WomenHeals.jpg","37","1","596"
"5","5","retrieval","new_objects","145","Toy_Lighthouse.jpg","37","1","1135"
"5","5","retrieval","old_objects","146","Jar_Cotton.jpg","36","1","683"
"5","5","retrieval","new_objects","147","Tray_Cafeteria.jpg","37","1","788"
"5","5","retrieval","new_objects","148","Gloves_Bicycle.jpg","37","1","926"
"5","5","retrieval","old_objects","149","Megaphone.jpg","36","1","1125"
"5","5","retrieval","new_objects","150","Quartz.jpg","37","1","859"
"5","5","retrieval","new_objects","151","Barrel_Wine.jpg","37","1","1079"
"5","5","retrieval","new_objects","152","BicycleWheelRusty.jpg","37","1","576"
"5","5","retrieval","new_objects","153","SoundMixer_Blue.jpg","37","1","567"
"5","5","retrieval","new_objects","154","Mirror_Makeup.jpg","37","1","848"
"5","5","retrieval","new_objects","155","ChiliFlakes.jpg","37","1","573"
"5","5","retrieval","new_objects","156","Hammer.jpg","36","0","1027"
"5","5","retrieval","old_objects","157","TissueBox.jpg","36","1","1169"
"5","5","retrieval","new_objects","158","FireAlarm.jpg","37","1","851"
"5","5","retrieval","old_objects","159","Horn_French.jpg","37","0","678"
"5","5","retrieval","old_objects","160","Spoon_Wooden.jpg","36","1","1059"
"5","5","retrieval","new_objects","161","Match.jpg","37","1","892"
"5","5","retrieval","old_objects","162","Bag_Toiletry.jpg","36","1","1040"
"5","5","retrieval","old_objects","163","Parcel.jpg","36","1","1170"
"5","5","retrieval","old_objects","164","SlushieMachine.jpg","36","1","1105"
"5","5","retrieval","new_objects","165","Pants_Jeans.jpg","37","1","733"
"5","5","retrieval","new_objects","166","Book_Paper.jpg","37","1","630"
"5","5","retrieval","new_objects","167","Toolbox_RedOpen.jpg","37","1","1507"
"5","5","retrieval","old_objects","168","Bottle_Champagne.jpg","36","1","1240"
"5","5","retrieval","old_objects","169","Scarecrow.jpg","36","1","787"
"5","5","retrieval","new_objects","170","Rag.jpg","37","1","817"
"5","5","retrieval","new_objects","171","Lollipop_Rainbow.jpg","37","1","593"
"5","5","retrieval","old_objects","172","Cast.jpg","36","1","833"
"5","5","retrieval","new_objects","173","Tickets_PrintWords.jpg","37","1","911"
"5","5","retrieval","new_objects","174","Ball_Golf.jpg","37","1","805"
"5","5","retrieval","old_objects","175","Vase_Decorative.jpg","36","1","800"
"5","5","retrieval","new_objects","176","Film_Single.jpg","37","1","653"
"5","5","retrieval","new_objects","177","Lantern_Chinese.jpg","37","1","985"
"5","5","retrieval","new_objects","178","Exercise_Bike.jpg","37","1","585"
"5","5","retrieval","old_objects","179","Icepick.jpg","36","1","860"
"5","5","retrieval","old_objects","180","Candy_Caramel.jpg","36","1","1055"
"5","5","retrieval","new_objects","181","Clip_Paper.jpg","37","1","755"
"5","5","retrieval","old_objects","182","Corkboard.jpg","36","1","791"
"5","5","retrieval","old_objects","184","Compressor.jpg","36","1","979"
"5","5","retrieval","new_objects","185","Wallet_ClosedBrown.jpg","36","0","1269"
"5","5","retrieval","old_objects","186","DogTreat.jpg","36","1","661"
"5","5","retrieval","old_objects","187","fries.jpg","36","1","636"
"5","5","retrieval","new_objects","188","BoxTrailer.jpg","37","1","617"
"5","5","retrieval","old_objects","189","Toy_Dog.jpg","37","0","491"
"5","5","retrieval","old_objects","190","PagodaModel.jpg","36","1","705"
"5","5","retrieval","old_objects","191","Telephone_Dial.jpg","36","1","721"
"5","5","retrieval","old_objects","192","Airplane_Small.jpg","36","1","667"
"5","5","retrieval","old_objects","193","TeethModel.jpg","36","1","610"
"5","5","retrieval","old_objects","194","SeatBuckle.jpg","36","1","701"
"5","5","retrieval","old_objects","195","Stick_Honey.jpg","36","1","499"
"5","5","retrieval","new_objects","196","Toast.jpg","37","1","666"
"5","5","retrieval","new_objects","197","PuppetTheatre_WhiteGold.jpg","37","1","677"
"5","5","retrieval","old_objects","198","SaxophoneSoprano.jpg","36","1","795"
"5","5","retrieval","old_objects","199","Pouch_Red.jpg","36","1","840"
"5","5","retrieval","new_objects","200","Coatrack.jpg","37","1","1378"
"5","5","retrieval","new_objects","201","ChariotGold.jpg","37","1","979"
"5","5","retrieval","new_objects","202","Cake_Wedding.jpg","37","1","550"
"5","5","retrieval","old_objects","203","CandyDispenser.jpg","36","1","990"
"5","5","retrieval","new_objects","204","Thimble.jpg","37","1","1134"
"5","5","retrieval","old_objects","205","FloppyDisk.jpg","36","1","789"
"5","5","retrieval","old_objects","206","PlayerFootball.jpg","36","1","733"
"5","5","retrieval","new_objects","207","CoinRolls.jpg","37","1","844"
"5","5","retrieval","new_objects","208","Stationary.jpg","37","1","586"
"5","5","retrieval","new_objects","209","Bench_Park.jpg","37","1","686"
"5","5","retrieval","old_objects","210","Pepper_Chili.jpg","36","1","861"
"5","5","retrieval","old_objects","211","PumiceStone.jpg","36","1","604"
"5","5","retrieval","old_objects","212","Mask_African.jpg","36","1","807"
"5","5","retrieval","old_objects","213","Earrings_Dangling.jpg","36","1","738"
"5","5","retrieval","old_objects","214","Toy_HockeyStick.jpg","36","1","888"
"5","5","retrieval","new_objects","215","Towel.jpg","37","1","813"
"5","5","retrieval","old_objects","216","RibbonPin.jpg","36","1","717"
"5","5","retrieval","old_objects","217","Cookie.jpg","36","1","620"
"5","5","retrieval","old_objects","218","Fridge.jpg","36","1","999"
"5","5","retrieval","new_objects","219","Instrument_African.jpg","37","1","1082"
"5","5","retrieval","old_objects","220","Glasses_Sun.jpg","36","1","718"
"5","5","retrieval","new_objects","221","ShoulderPads.jpg","36","0","1419"
"5","5","retrieval","old_objects","222","Artichoke.jpg","36","1","764"
"5","5","retrieval","new_objects","223","Spoon_WoodenLight.jpg","36","0","741"
"5","5","retrieval","old_objects","224","Pliers_ViceGrip.jpg","36","1","930"
"5","5","retrieval","new_objects","225","Cork.jpg","37","1","683"
"5","5","retrieval","old_objects","226","Case_DVD.jpg","36","1","735"
"5","5","retrieval","new_objects","227","Chair_Folding.jpg","37","1","981"
"5","5","retrieval","old_objects","228","MagazineRoll.jpg","36","1","820"
"5","5","retrieval","new_objects","229","Jetski.jpg","37","1","867"
"5","5","retrieval","new_objects","230","Bread_Pita.jpg","36","0","932"
"5","5","retrieval","new_objects","231","Toy_MrPotatoHeadjpg.jpg","37","1","780"
"5","5","retrieval","old_objects","232","Truck_Pickup.jpg","36","1","781"
"5","5","retrieval","new_objects","233","Box_Staples.jpg","37","1","1124"
"5","5","retrieval","old_objects","234","HotWaterBottle.jpg","36","1","761"
"5","5","retrieval","new_objects","235","Chair_Car.jpg","36","0","1234"
"5","5","retrieval","new_objects","236","Barbecue_Gas.jpg","37","1","806"
"5","5","retrieval","new_objects","237","ToothPaste.jpg","37","1","608"
"5","5","retrieval","new_objects","238","Fan_Ceiling.jpg","37","1","662"
"5","5","retrieval","new_objects","239","Gauge.jpg","37","1","575"
"5","5","retrieval","old_objects","240","Lion.jpg","36","1","762"
"5","5","retrieval","new_objects","241","ComputerKeyboard.jpg","37","1","888"
"5","5","retrieval","new_objects","242","Hockey_Equipment.jpg","37","1","669"
"5","5","retrieval","old_objects","243","PlantPotted.jpg","37","0","632"
"5","5","retrieval","old_objects","245","WindshieldWasherFluid.jpg","37","0","752"
"5","5","retrieval","new_objects","246","BloodpPresureCuff.jpg","37","1","844"
"5","5","retrieval","new_objects","247","Tube_Glue.jpg","36","0","1208"
"5","5","retrieval","old_objects","248","Cart_Groceries.jpg","36","1","681"
"5","5","retrieval","old_objects","249","Toy_Bat.jpg","36","1","739"
"5","5","retrieval","old_objects","250","Stroboscope.jpg","36","1","789"
"5","5","retrieval","old_objects","251","Cable_AudioSplitter.jpg","36","1","584"
"5","5","retrieval","new_objects","252","Handcuffs.jpg","37","1","702"
"5","5","retrieval","old_objects","253","Candy_Cane.jpg","36","1","1011"
"5","5","retrieval","new_objects","254","Brush_Makeup.jpg","37","1","659"
"5","5","retrieval","new_objects","255","Hoodie.jpg","36","0","779"
"5","5","retrieval","new_objects","256","Cage_Hamster.jpg","37","1","832"
"5","5","retrieval","new_objects","257","Box_Vials.jpg","37","1","704"
"5","5","retrieval","new_objects","258","Radio_Modern.jpg","37","1","634"
"5","5","retrieval","old_objects","259","Stapler_Regular.jpg","37","0","1176"
"5","5","retrieval","old_objects","260","Syringe_Needle.jpg","36","1","852"
"5","5","retrieval","old_objects","261","Box_Wine.jpg","36","1","640"
"5","5","retrieval","old_objects","262","CrepeMaker.jpg","36","1","578"
"5","5","retrieval","old_objects","263","Walkman.jpg","36","1","607"
"5","5","retrieval","new_objects","264","ChalkboardEraser.jpg","37","1","661"
"5","5","retrieval","old_objects","265","Tripod.jpg","36","1","733"
"5","5","retrieval","old_objects","266","Stovetop.jpg","36","1","862"
"5","5","retrieval","new_objects","267","Bottle_Oil.jpg","37","1","781"
"5","5","retrieval","new_objects","268","Camera_ProfessionalFilm.jpg","37","1","888"
"5","5","retrieval","old_objects","269","Statue_Jesus.jpg","36","1","774"
"5","5","retrieval","old_objects","270","Sign_Washroom.jpg","36","1","1213"
"5","5","retrieval","new_objects","271","BicycleGear.jpg","36","0","786"
"5","5","retrieval","new_objects","272","Toblerone.jpg","37","1","719"
"5","5","retrieval","old_objects","273","Bone.jpg","36","1","729"
"5","5","retrieval","new_objects","274","PizzaCutter.jpg","37","1","1252"
"5","5","retrieval","new_objects","275","Defribrillator.jpg","37","1","1015"
"5","5","retrieval","old_objects","276","Fish_Swordfish.jpg","36","1","673"
"5","5","retrieval","old_objects","277","Corkscrew.jpg","37","0","1168"
"5","5","retrieval","old_objects","278","Steam_Cleaner.jpg","36","1","1460"
"5","5","retrieval","old_objects","279","Seeder.jpg","36","1","885"
"5","5","retrieval","new_objects","280","Sign_Construction.jpg","37","1","1094"
"5","5","retrieval","new_objects","281","Toy_Truck.jpg","37","1","1319"
"5","5","retrieval","new_objects","282","Box_FirstAid.jpg","37","1","676"
"5","5","retrieval","old_objects","283","Pants_Firefighter.jpg","36","1","727"
"5","5","retrieval","new_objects","284","TreeStump.jpg","37","1","869"
"5","5","retrieval","new_objects","285","Sign_NoParking.jpg","37","1","617"
"5","5","retrieval","new_objects","286","HandMixer.jpg","37","1","527"
"5","5","retrieval","old_objects","287","Guitar_Acoustic.jpg","36","1","769"
"5","5","retrieval","new_objects","288","Ball_Bowling.jpg","37","1","782"
"5","5","retrieval","new_objects","289","Brace_Back.jpg","37","1","1151"
"5","5","retrieval","old_objects","290","Folder_Plastic.jpg","36","1","879"
"5","5","retrieval","old_objects","291","Lips_Wax.jpg","36","1","1199"
"5","5","retrieval","new_objects","292","Toy_PoliceCar.jpg","37","1","729"
"5","5","retrieval","old_objects","293","Ring_Diamond.jpg","36","1","718"
"5","5","retrieval","new_objects","294","Puzzle_Piece.jpg","37","1","1204"
"5","5","retrieval","new_objects","295","Ball_Tennis.jpg","37","1","882"
"5","5","retrieval","old_objects","296","Gun_Revolver.jpg","36","1","1527"
"5","5","retrieval","new_objects","297","Bottle_Specimen.jpg","37","1","893"
"5","5","retrieval","old_objects","298","HDMIConnector.jpg","36","1","1488"
"5","5","retrieval","old_objects","299","Wallet_ClosedBlack.jpg","36","1","893"
"5","5","retrieval","new_objects","300","Lock_Door.jpg","37","1","757"
"5","5","retrieval","new_objects","301","Shorts_Sports.jpg","37","1","573"
"5","5","retrieval","new_objects","302","Stepper.jpg","37","1","954"
"5","5","retrieval","old_objects","303","WalkieTalkie_Yellow.jpg","36","1","660"
"5","5","retrieval","new_objects","304","PharoahReplica.jpg","37","1","771"
"5","5","retrieval","old_objects","306","Toy_BeadMaze.jpg","36","1","747"
"5","5","retrieval","new_objects","307","Drink_Cocktail.jpg","37","1","754"
"5","5","retrieval","old_objects","308","Turtle.jpg","36","1","681"
"5","5","retrieval","new_objects","309","Bell_Hand.jpg","37","1","981"
"5","5","retrieval","old_objects","310","Hat_Sheriff.jpg","36","1","744"
"5","5","retrieval","old_objects","311","WaterCooler.jpg","36","1","1207"
"5","5","retrieval","new_objects","312","MortarPestle_BlackStone.jpg","36","0","1025"
"5","5","retrieval","new_objects","313","MoneyBill50.jpg","37","1","748"
"5","5","retrieval","old_objects","314","Nightstand.jpg","36","1","1129"
"5","5","retrieval","old_objects","315","Pajamas.jpg","37","0","794"
"5","5","retrieval","new_objects","316","Hippopotamus.jpg","37","1","1133"
"5","5","retrieval","new_objects","317","Knife_Hunting.jpg","37","1","634"
"5","5","retrieval","old_objects","318","Heater_ElectricUpright.jpg","37","0","712"
"5","5","retrieval","old_objects","319","Jug_ClayAncient.jpg","36","1","939"
"5","5","retrieval","new_objects","320","KiddiePool.jpg","37","1","781"
"5","5","retrieval","old_objects","321","Crab.jpg","36","1","628"
"5","5","retrieval","old_objects","322","Neckrest.jpg","37","0","776"
"5","5","retrieval","old_objects","323","HandRake.jpg","36","1","905"
"5","5","retrieval","new_objects","324","Jar_Money.jpg","37","1","769"
"5","5","retrieval","new_objects","325","Ashtray_Empty.jpg","37","1","886"
"5","5","retrieval","new_objects","326","Cheque.jpg","37","1","575"
"5","5","retrieval","old_objects","327","Chime.jpg","37","0","602"
"5","5","retrieval","old_objects","328","Candy_Toffee.jpg","37","0","667"
"5","5","retrieval","new_objects","329","Lantern_Tea.jpg","37","1","825"
"5","5","retrieval","old_objects","330","Drum_Tall.jpg","36","1","1050"
"5","5","retrieval","old_objects","331","Fencing_HelmetSwords.jpg","36","1","960"
"5","5","retrieval","old_objects","332","Fan_Straw.jpg","36","1","774"
"5","5","retrieval","old_objects","333","MeterElectric.jpg","36","1","763"
"5","5","retrieval","new_objects","334","Triangle.jpg","37","1","736"
"5","5","retrieval","new_objects","335","CashRegister_Modern.jpg","37","1","845"
"5","5","retrieval","new_objects","336","BottleOpener.jpg","37","1","807"
"5","5","retrieval","old_objects","337","Crib_Basket.jpg","36","1","815"
"5","5","retrieval","old_objects","338","Platter_Vegetables.jpg","36","1","1058"
"5","5","retrieval","new_objects","339","StampAndSeal.jpg","37","1","891"
"5","5","retrieval","old_objects","340","Pen_Calligraphy.jpg","36","1","973"
"5","5","retrieval","new_objects","341","Dropper.jpg","37","1","872"
"5","5","retrieval","old_objects","342","Skirt_Stripes.jpg","36","1","978"
"5","5","retrieval","old_objects","343","Toy_Slide.jpg","36","1","817"
"5","5","retrieval","old_objects","344","Gum_Pack.jpg","36","1","1008"
"5","5","retrieval","old_objects","345","Radio_Antique.jpg","36","1","763"
"5","5","retrieval","old_objects","346","Glass_Cup.jpg","36","1","843"
"5","5","retrieval","new_objects","347","Sheep.jpg","37","1","1032"
"5","5","retrieval","new_objects","348","ConnectorPlug.jpg","37","1","963"
"5","5","retrieval","old_objects","349","Pear_Green.jpg","36","1","780"
"5","5","retrieval","old_objects","350","Desk_School.jpg","36","1","932"
"5","5","retrieval","old_objects","351","TartStrawberry.jpg","36","1","746"
"5","5","retrieval","new_objects","352","Drum_Brazilan.jpg","37","1","839"
"5","5","retrieval","old_objects","353","DoorBolt.jpg","36","1","765"
"5","5","retrieval","old_objects","354","Lei.jpg","36","1","819"
"5","5","retrieval","new_objects","355","Generator.jpg","36","0","1179"
"5","5","demographics_block","gender","1","Generator.jpg","male","1","10139"
"5","5","demographics_block","age","1","Generator.jpg","49","1","10139"
"5","5","demographics_block","education","1","Generator.jpg","16","1","10139"
"5","5","demographics_block","left_right_handed","2","Generator.jpg","Right","1","6586"
"5","5","demographics_block","raceoption1","2","Generator.jpg","0","1","6586"
"5","5","demographics_block","raceoption2","2","Generator.jpg","","1","6586"
"5","5","demographics_block","raceoption3","2","Generator.jpg","","1","6586"
"5","5","demographics_block","raceoption4","2","Generator.jpg","","1","6586"
"5","5","demographics_block","raceoption5","2","Generator.jpg","","1","6586"
"5","5","demographics_block","raceoption6","2","Generator.jpg","","1","6586"
"5","5","demographics_block","raceoption7","2","Generator.jpg","","1","6586"
"5","5","demographics_block","raceoption8","2","Generator.jpg","","1","6586"
"5","5","demographics_block","raceoption9","2","Generator.jpg","","1","6586"
"5","5","demographics_block","raceother","2","Generator.jpg","","1","6586"
"5","5","demographics_block","raceother","2","Generator.jpg","","1","6586"
"5","5","demographics_block","english_language","2","Generator.jpg","Yes","1","6586"
"5","5","demographics_block","english_languageother","2","Generator.jpg","","1","6586"
"5","5","demographics_block","eyesight","3","Generator.jpg","Yes","1","6919"
"5","5","demographics_block","colorblind","3","Generator.jpg","No","1","6919"
"5","5","worker_id_block","worker_id_textbox","1","Generator.jpg","A3SKEW89V5S0DI","1","44843"
"7","7","encoding","encoding","1","RibbonPin.jpg","36","0","1305"
"7","7","encoding","encoding","2","HandRake.jpg","37","0","1246"
"7","7","encoding","encoding","3","TissueBox.jpg","37","0","1068"
"7","7","encoding","encoding","4","Glass_Cup.jpg","37","0","851"
"7","7","encoding","encoding","5","Toy_Bat.jpg","36","0","671"
"7","7","encoding","encoding","6","Box_Notepaper.jpg","37","0","882"
"7","7","encoding","encoding","7","Drum_Tall.jpg","37","0","867"
"7","7","encoding","encoding","8","Chair_Deck.jpg","37","0","943"
"7","7","encoding","encoding","9","Statue_Jesus.jpg","37","0","1134"
"7","7","encoding","encoding","10","Blueprints.jpg","37","0","1077"
"7","7","encoding","encoding","11","Horn_French.jpg","37","0","1122"
"7","7","encoding","encoding","12","SpongeScrubbing.jpg","37","0","986"
"7","7","encoding","encoding","13","PagodaModel.jpg","37","0","839"
"7","7","encoding","encoding","14","Hat_Beanie.jpg","37","0","748"
"7","7","encoding","encoding","15","HotWaterBottle.jpg","37","0","845"
"7","7","encoding","encoding","16","SkullDeer.jpg","37","0","927"
"7","7","encoding","encoding","17","Radio_Antique.jpg","37","0","909"
"7","7","encoding","encoding","18","DryRack_Clothes.jpg","37","0","839"
"7","7","encoding","encoding","19","Chime.jpg","37","0","710"
"7","7","encoding","encoding","20","Bone.jpg","36","0","1581"
"7","7","encoding","encoding","21","Telephone_Dial.jpg","37","0","720"
"7","7","encoding","encoding","22","Sign_Washroom.jpg","37","0","843"
"7","7","encoding","encoding","23","Toy_Dog.jpg","37","0","756"
"7","7","encoding","encoding","24","Guitar_Acoustic.jpg","37","0","582"
"7","7","encoding","encoding","25","Pouch_Red.jpg","37","0","853"
"7","7","encoding","encoding","26","Ferret.jpg","36","0","1128"
"7","7","encoding","encoding","27","Crab.jpg","36","0","1235"
"7","7","encoding","encoding","28","ShearsGarden.jpg","37","0","1403"
"7","7","encoding","encoding","29","Corkboard.jpg","37","0","1088"
"7","7","encoding","encoding","30","Cloud.jpg","0","0","2000"
"7","7","encoding","encoding","31","Cast.jpg","37","0","1052"
"7","7","encoding","encoding","32","PlantPotted.jpg","36","0","1840"
"7","7","encoding","encoding","33","SaxophoneSoprano.jpg","37","0","752"
"7","7","encoding","encoding","34","Tripod.jpg","37","0","775"
"7","7","encoding","encoding","35","Walkman.jpg","37","0","718"
"7","7","encoding","encoding","36","Shoes_DutchClogs.jpg","37","0","1165"
"7","7","encoding","encoding","37","Gun_Revolver.jpg","37","0","1012"
"7","7","encoding","encoding","38","Vase_Decorative.jpg","37","0","695"
"7","7","encoding","encoding","39","WindshieldWasherFluid.jpg","37","0","982"
"7","7","encoding","encoding","40","Bottle_Champagne.jpg","37","0","707"
"7","7","encoding","encoding","41","Mitt_Blue.jpg","37","0","800"
"7","7","encoding","encoding","42","Scarecrow.jpg","37","0","702"
"7","7","encoding","encoding","43","Fan_Straw.jpg","37","0","565"
"7","7","encoding","encoding","44","Lei.jpg","37","0","492"
"7","7","encoding","encoding","45","PhoneCase.jpg","37","0","517"
"7","7","encoding","encoding","46","WaterWell.jpg","36","0","1748"
"7","7","encoding","encoding","47","Pajamas.jpg","37","0","1055"
"7","7","encoding","encoding","48","Stovetop.jpg","37","0","1136"
"7","7","encoding","encoding","49","Starfish.jpg","36","0","852"
"7","7","encoding","encoding","50","HDMIConnector.jpg","37","0","709"
"7","7","encoding","encoding","51","Box_Wine.jpg","37","0","645"
"7","7","encoding","encoding","52","Pliers_ViceGrip.jpg","37","0","765"
"7","7","encoding","encoding","53","Truck_Pickup.jpg","37","0","1261"
"7","7","encoding","encoding","54","Neckrest.jpg","37","0","929"
"7","7","encoding","encoding","55","Pen_Calligraphy.jpg","37","0","791"
"7","7","encoding","encoding","56","Glasses_Sun.jpg","37","0","807"
"7","7","encoding","encoding","57","Compressor.jpg","37","0","1221"
"7","7","encoding","encoding","58","Skirt_Stripes.jpg","37","0","783"
"7","7","encoding","encoding","59","Cookie.jpg","37","0","875"
"7","7","encoding","encoding","60","Tambourine.jpg","37","0","628"
"7","7","encoding","encoding","62","Hat_Sheriff.jpg","37","0","721"
"7","7","encoding","encoding","63","Toy_Christmastree.jpg","37","0","1761"
"7","7","encoding","encoding","64","Cart_Wooden.jpg","37","0","826"
"7","7","encoding","encoding","65","Telephone_Booth.jpg","37","0","532"
"7","7","encoding","encoding","66","SeatBuckle.jpg","37","0","569"
"7","7","encoding","encoding","67","Fish_Swordfish.jpg","36","0","1332"
"7","7","encoding","encoding","68","Lips_Wax.jpg","0","0","2000"
"7","7","encoding","encoding","69","Folder_Plastic.jpg","37","0","881"
"7","7","encoding","encoding","70","fries.jpg","37","0","893"
"7","7","encoding","encoding","71","Spoon_Wooden.jpg","37","0","896"
"7","7","encoding","encoding","72","Nightstand.jpg","37","0","596"
"7","7","encoding","encoding","73","CandyDispenser.jpg","37","0","580"
"7","7","encoding","encoding","74","Toy_BeadMaze.jpg","37","0","450"
"7","7","encoding","encoding","75","BakingDish.jpg","37","0","549"
"7","7","encoding","encoding","76","SundaeBanana.jpg","37","0","435"
"7","7","encoding","encoding","77","Armchair.jpg","37","0","411"
"7","7","encoding","encoding","78","Pot_CastIron.jpg","37","0","450"
"7","7","encoding","encoding","79","Megaphone.jpg","37","0","460"
"7","7","encoding","encoding","80","Crib_Basket.jpg","37","0","424"
"7","7","encoding","encoding","81","Toilet.jpg","37","0","416"
"7","7","encoding","encoding","82","Candy_Toffee.jpg","37","0","1097"
"7","7","encoding","encoding","83","DustPan.jpg","37","0","500"
"7","7","encoding","encoding","84","Jar_Cotton.jpg","37","0","795"
"7","7","encoding","encoding","85","Ring_Diamond.jpg","37","0","480"
"7","7","encoding","encoding","86","ScaleWeighing.jpg","37","0","467"
"7","7","encoding","encoding","87","CrepeMaker.jpg","37","0","486"
"7","7","encoding","encoding","88","House_Wooden.jpg","37","0","910"
"7","7","encoding","encoding","89","Shovel_Garden.jpg","37","0","582"
"7","7","encoding","encoding","90","Scoop_IceCream.jpg","37","0","427"
"7","7","encoding","encoding","91","Case_DVD.jpg","37","0","598"
"7","7","encoding","encoding","92","Parcel.jpg","37","0","499"
"7","7","encoding","encoding","93","Shark_Hammerhead.jpg","36","0","730"
"7","7","encoding","encoding","94","Heater_ElectricUpright.jpg","37","0","521"
"7","7","encoding","encoding","95","HumanSkeleton.jpg","36","0","1726"
"7","7","encoding","encoding","96","Switch_Power.jpg","37","0","951"
"7","7","encoding","encoding","97","CapGraduation.jpg","37","0","475"
"7","7","encoding","encoding","98","PlayerFootball.jpg","36","0","1174"
"7","7","encoding","encoding","99","Stroboscope.jpg","37","0","404"
"7","7","encoding","encoding","100","Mask_African.jpg","37","0","576"
"7","7","encoding","encoding","101","Wallet_ClosedBlack.jpg","37","0","510"
"7","7","encoding","encoding","102","DogTreat.jpg","37","0","625"
"7","7","encoding","encoding","103","Car_Totalled.jpg","37","0","484"
"7","7","encoding","encoding","104","Hat_Explorer.jpg","37","0","693"
"7","7","encoding","encoding","105","SlushieMachine.jpg","37","0","483"
"7","7","encoding","encoding","106","Hammock.jpg","37","0","467"
"7","7","encoding","encoding","107","Gum_Pack.jpg","37","0","661"
"7","7","encoding","encoding","108","DogSled.jpg","36","0","1573"
"7","7","encoding","encoding","109","Candy_Cane.jpg","37","0","566"
"7","7","encoding","encoding","110","Pig.jpg","36","0","635"
"7","7","encoding","encoding","111","CarSeat.jpg","37","0","527"
"7","7","encoding","encoding","112","VinylRecord.jpg","37","0","502"
"7","7","encoding","encoding","113","Fridge.jpg","37","0","382"
"7","7","encoding","encoding","114","MeterElectric.jpg","37","0","587"
"7","7","encoding","encoding","115","WaterCooler.jpg","37","0","746"
"7","7","encoding","encoding","116","Gazebo.jpg","37","0","607"
"7","7","encoding","encoding","117","PokerChips.jpg","37","0","1467"
"7","7","encoding","encoding","118","Cart_Groceries.jpg","37","0","584"
"7","7","encoding","encoding","119","Corkscrew.jpg","37","0","612"
"7","7","encoding","encoding","120","TowelRack_Brown.jpg","37","0","484"
"7","7","encoding","encoding","121","Spoon_Sugar.jpg","37","0","609"
"7","7","encoding","encoding","123","Syringe_Needle.jpg","37","0","772"
"7","7","encoding","encoding","124","Toy_HockeyStick.jpg","37","0","611"
"7","7","encoding","encoding","125","Turtle.jpg","36","0","713"
"7","7","encoding","encoding","126","Lion.jpg","36","0","708"
"7","7","encoding","encoding","127","Tofu.jpg","0","0","2000"
"7","7","encoding","encoding","128","TartStrawberry.jpg","36","0","1234"
"7","7","encoding","encoding","129","Stick_Honey.jpg","37","0","598"
"7","7","encoding","encoding","130","FloppyDisk.jpg","37","0","823"
"7","7","encoding","encoding","131","PillBottle_Spilled.jpg","37","0","1334"
"7","7","encoding","encoding","132","WagonPilgrim.jpg","37","0","853"
"7","7","encoding","encoding","133","Stapler_Regular.jpg","37","0","631"
"7","7","encoding","encoding","134","Earrings_Dangling.jpg","37","0","734"
"7","7","encoding","encoding","135","Desk_School.jpg","37","0","588"
"7","7","encoding","encoding","136","Icepick.jpg","37","0","695"
"7","7","encoding","encoding","137","MagazineRoll.jpg","37","0","684"
"7","7","encoding","encoding","138","Steam_Cleaner.jpg","37","0","827"
"7","7","encoding","encoding","139","Fuse.jpg","37","0","939"
"7","7","encoding","encoding","140","DoorHandle.jpg","37","0","691"
"7","7","encoding","encoding","141","Ship_Battle.jpg","37","0","635"
"7","7","encoding","encoding","142","WalkieTalkie_Red.jpg","37","0","569"
"7","7","encoding","encoding","143","Playground.jpg","37","0","589"
"7","7","encoding","encoding","144","PaintBrushAndPallette.jpg","37","0","629"
"7","7","encoding","encoding","145","Cauliflower.jpg","36","0","892"
"7","7","encoding","encoding","146","Seeder.jpg","37","0","576"
"7","7","encoding","encoding","147","DrainPlug.jpg","37","0","780"
"7","7","encoding","encoding","148","Toy_Lizard.jpg","36","0","761"
"7","7","encoding","encoding","149","MixingGlass.jpg","37","0","685"
"7","7","encoding","encoding","150","WalkieTalkie_Yellow.jpg","37","0","625"
"7","7","encoding","encoding","151","Airplane_Small.jpg","37","0","650"
"7","7","encoding","encoding","152","Hourglass.jpg","37","0","494"
"7","7","encoding","encoding","153","Snake_Cobra.jpg","36","0","711"
"7","7","encoding","encoding","154","Platter_Vegetables.jpg","37","0","1467"
"7","7","encoding","encoding","155","Candy_Caramel.jpg","37","0","939"
"7","7","encoding","encoding","156","Bag_Toiletry.jpg","37","0","529"
"7","7","encoding","encoding","157","Pepper_Chili.jpg","36","0","837"
"7","7","encoding","encoding","158","Toy_DinosaurTRex.jpg","37","0","1213"
"7","7","encoding","encoding","159","Missile.jpg","37","0","860"
"7","7","encoding","encoding","160","Fencing_HelmetSwords.jpg","37","0","1004"
"7","7","encoding","encoding","161","Jug_ClayAncient.jpg","37","0","461"
"7","7","encoding","encoding","162","Cable_AudioSplitter.jpg","37","0","569"
"7","7","encoding","encoding","163","PhoneJack.jpg","37","0","485"
"7","7","encoding","encoding","164","Scrabble.jpg","37","0","726"
"7","7","encoding","encoding","165","Pear_Green.jpg","36","0","937"
"7","7","encoding","encoding","166","Bagel.jpg","37","0","1631"
"7","7","encoding","encoding","167","Pants_Firefighter.jpg","37","0","698"
"7","7","encoding","encoding","168","DoorBolt.jpg","37","0","673"
"7","7","encoding","encoding","169","LampPost_OneBulb.jpg","37","0","641"
"7","7","encoding","encoding","170","PumiceStone.jpg","37","0","1350"
"7","7","encoding","encoding","171","Arch.jpg","37","0","694"
"7","7","encoding","encoding","172","Bowl_Chopsticks.jpg","37","0","1072"
"7","7","encoding","encoding","173","Knife_Camping.jpg","37","0","647"
"7","7","encoding","encoding","174","RugRoled.jpg","37","0","732"
"7","7","encoding","encoding","175","TeethModel.jpg","37","0","1014"
"7","7","encoding","encoding","176","Artichoke.jpg","36","0","947"
"7","7","encoding","encoding","177","Toy_Slide.jpg","37","0","622"
"7","7","retrieval","new_objects","1","Branch.jpg","36","0","1224"
"7","7","retrieval","old_objects","2","Jar_Cotton.jpg","37","0","1260"
"7","7","retrieval","old_objects","3","Drum_Tall.jpg","36","1","1136"
"7","7","retrieval","new_objects","4","Book_Paper.jpg","37","1","1305"
"7","7","retrieval","old_objects","5","Cast.jpg","37","0","1142"
"7","7","retrieval","old_objects","6","Pouch_Red.jpg","37","0","739"
"7","7","retrieval","new_objects","7","Handcuffs.jpg","36","0","999"
"7","7","retrieval","old_objects","8","Crib_Basket.jpg","37","0","879"
"7","7","retrieval","new_objects","9","Chair_Car.jpg","37","1","837"
"7","7","retrieval","new_objects","10","PencilSharpener.jpg","37","1","1180"
"7","7","retrieval","new_objects","11","Lens_Camera.jpg","37","1","866"
"7","7","retrieval","old_objects","12","Truck_Pickup.jpg","37","0","668"
"7","7","retrieval","new_objects","13","Bark.jpg","36","0","719"
"7","7","retrieval","new_objects","14","ToothbrushHolder.jpg","37","1","890"
"7","7","retrieval","new_objects","15","Cassette_Video.jpg","36","0","1196"
"7","7","retrieval","old_objects","16","Ship_Battle.jpg","37","0","1104"
"7","7","retrieval","old_objects","17","RugRoled.jpg","36","1","1032"
"7","7","retrieval","old_objects","18","Horn_French.jpg","37","0","731"
"7","7","retrieval","new_objects","19","Rag.jpg","36","0","720"
"7","7","retrieval","old_objects","20","Steam_Cleaner.jpg","37","0","628"
"7","7","retrieval","new_objects","21","Toy_PoliceCar.jpg","37","1","896"
"7","7","retrieval","new_objects","22","Dresser_1.jpg","36","0","1438"
"7","7","retrieval","old_objects","23","SundaeBanana.jpg","37","0","759"
"7","7","retrieval","new_objects","24","Paddle_Canoe.jpg","36","0","1307"
"7","7","retrieval","old_objects","25","Hat_Beanie.jpg","37","0","536"
"7","7","retrieval","new_objects","26","Golf_Club.jpg","37","1","715"
"7","7","retrieval","old_objects","27","Toy_Slide.jpg","37","0","755"
"7","7","retrieval","old_objects","28","Stapler_Regular.jpg","37","0","732"
"7","7","retrieval","new_objects","29","TreeStump.jpg","36","0","643"
"7","7","retrieval","old_objects","30","HDMIConnector.jpg","37","0","647"
"7","7","retrieval","new_objects","31","EyeExamDevice.jpg","37","1","869"
"7","7","retrieval","old_objects","32","Playground.jpg","37","0","506"
"7","7","retrieval","old_objects","33","Shoes_DutchClogs.jpg","36","1","960"
"7","7","retrieval","new_objects","34","StringBean.jpg","36","0","1354"
"7","7","retrieval","old_objects","35","VinylRecord.jpg","36","1","892"
"7","7","retrieval","old_objects","36","Fridge.jpg","36","1","1474"
"7","7","retrieval","old_objects","37","Glass_Cup.jpg","37","0","1341"
"7","7","retrieval","old_objects","38","Telephone_Dial.jpg","36","1","1051"
"7","7","retrieval","new_objects","39","Pants_Jeans.jpg","37","1","1098"
"7","7","retrieval","new_objects","40","Hoodie.jpg","37","1","846"
"7","7","retrieval","old_objects","41","TeethModel.jpg","37","0","1802"
"7","7","retrieval","new_objects","42","Bag_Grains.jpg","0","0","2000"
"7","7","retrieval","old_objects","43","Toilet.jpg","37","0","1057"
"7","7","retrieval","old_objects","44","Pot_CastIron.jpg","36","1","760"
"7","7","retrieval","new_objects","45","Toy_Lighthouse.jpg","37","1","1272"
"7","7","retrieval","old_objects","46","Scoop_IceCream.jpg","37","0","596"
"7","7","retrieval","new_objects","47","Bucket_Ice.jpg","37","1","733"
"7","7","retrieval","old_objects","48","Spoon_Sugar.jpg","37","0","901"
"7","7","retrieval","old_objects","49","PokerChips.jpg","37","0","943"
"7","7","retrieval","new_objects","50","RiceRaw.jpg","36","0","1118"
"7","7","retrieval","new_objects","51","Gloves_Bicycle.jpg","37","1","637"
"7","7","retrieval","new_objects","52","Fan_Ceiling.jpg","37","1","624"
"7","7","retrieval","old_objects","53","PumiceStone.jpg","36","1","712"
"7","7","retrieval","new_objects","54","Drink_Cocktail.jpg","37","1","703"
"7","7","retrieval","old_objects","55","Radio_Antique.jpg","37","0","537"
"7","7","retrieval","old_objects","56","HumanSkeleton.jpg","36","1","705"
"7","7","retrieval","old_objects","57","Desk_School.jpg","36","1","686"
"7","7","retrieval","old_objects","58","PlayerFootball.jpg","37","0","657"
"7","7","retrieval","old_objects","59","Armchair.jpg","37","0","592"
"7","7","retrieval","old_objects","60","Toy_Bat.jpg","36","1","839"
"7","7","retrieval","old_objects","62","Glasses_Sun.jpg","37","0","812"
"7","7","retrieval","new_objects","63","Stationary.jpg","37","1","817"
"7","7","retrieval","new_objects","64","Clip_Paper.jpg","36","0","987"
"7","7","retrieval","old_objects","65","SkullDeer.jpg","36","1","633"
"7","7","retrieval","new_objects","66","Generator.jpg","37","1","1031"
"7","7","retrieval","old_objects","67","RibbonPin.jpg","37","0","820"
"7","7","retrieval","new_objects","68","MalletJudge.jpg","37","1","967"
"7","7","retrieval","new_objects","69","Match.jpg","36","0","931"
"7","7","retrieval","old_objects","70","Blueprints.jpg","36","1","1027"
"7","7","retrieval","old_objects","71","CandyDispenser.jpg","36","1","779"
"7","7","retrieval","old_objects","72","ScaleWeighing.jpg","36","1","1448"
"7","7","retrieval","old_objects","73","Neckrest.jpg","37","0","752"
"7","7","retrieval","new_objects","74","Thimble.jpg","36","0","866"
"7","7","retrieval","old_objects","75","Hammock.jpg","37","0","719"
"7","7","retrieval","new_objects","76","Quartz.jpg","36","0","886"
"7","7","retrieval","old_objects","77","Platter_Vegetables.jpg","37","0","809"
"7","7","retrieval","old_objects","78","Gum_Pack.jpg","37","0","865"
"7","7","retrieval","new_objects","79","Lock_Door.jpg","36","0","1360"
"7","7","retrieval","new_objects","80","ChiliFlakes.jpg","37","1","1721"
"7","7","retrieval","new_objects","81","Ashtray_Empty.jpg","37","1","1341"
"7","7","retrieval","old_objects","82","Stroboscope.jpg","37","0","525"
"7","7","retrieval","old_objects","83","Pen_Calligraphy.jpg","37","0","576"
"7","7","retrieval","new_objects","84","CashRegister_Modern.jpg","36","0","805"
"7","7","retrieval","old_objects","85","Nightstand.jpg","36","1","1057"
"7","7","retrieval","new_objects","86","Card_QueenSpade.jpg","37","1","609"
"7","7","retrieval","new_objects","87","ComputerKeyboard.jpg","37","1","792"
"7","7","retrieval","new_objects","88","BoxTrailer.jpg","37","1","1047"
"7","7","retrieval","new_objects","89","Perfume.jpg","37","1","1011"
"7","7","retrieval","old_objects","90","Gun_Revolver.jpg","36","1","855"
"7","7","retrieval","new_objects","91","Bread_Pita.jpg","36","0","633"
"7","7","retrieval","new_objects","92","Hockey_Equipment.jpg","37","1","726"
"7","7","retrieval","old_objects","93","Fencing_HelmetSwords.jpg","37","0","884"
"7","7","retrieval","new_objects","94","Box_FirstAid.jpg","37","1","1431"
"7","7","retrieval","new_objects","95","Motorcycle.jpg","37","1","478"
"7","7","retrieval","new_objects","96","PuppetTheatre_WhiteGold.jpg","36","0","729"
"7","7","retrieval","old_objects","97","Tambourine.jpg","36","1","737"
"7","7","retrieval","new_objects","98","Leaf_Yellow.jpg","36","0","555"
"7","7","retrieval","old_objects","99","Mitt_Blue.jpg","37","0","958"
"7","7","retrieval","new_objects","100","BicycleGear.jpg","37","1","1145"
"7","7","retrieval","new_objects","101","Oneholepunch.jpg","37","1","548"
"7","7","retrieval","new_objects","102","CDstack.jpg","36","0","961"
"7","7","retrieval","old_objects","103","MixingGlass.jpg","36","1","594"
"7","7","retrieval","old_objects","104","Sign_Washroom.jpg","37","0","1601"
"7","7","retrieval","old_objects","105","Statue_Jesus.jpg","36","1","828"
"7","7","retrieval","new_objects","106","MortarPestle_BlackStone.jpg","36","0","739"
"7","7","retrieval","old_objects","107","Toy_HockeyStick.jpg","37","0","541"
"7","7","retrieval","old_objects","108","Bagel.jpg","36","1","1532"
"7","7","retrieval","old_objects","109","Spoon_Wooden.jpg","36","1","737"
"7","7","retrieval","old_objects","110","fries.jpg","37","0","1099"
"7","7","retrieval","old_objects","111","SeatBuckle.jpg","37","0","827"
"7","7","retrieval","new_objects","112","Gauge.jpg","37","1","898"
"7","7","retrieval","old_objects","113","Shark_Hammerhead.jpg","36","1","978"
