"group","subject","blockcode","trialcode","trialnum","values.stimulus","response","correct","latency"
"2","2","encoding","encoding","1","MovieSlate.jpg","37","0","1239"
"2","2","encoding","encoding","2","Flower_Orchid.jpg","36","0","748"
"2","2","encoding","encoding","3","Toy_Alien.jpg","37","0","629"
"2","2","encoding","encoding","4","BearPolar.jpg","36","0","839"
"2","2","encoding","encoding","5","Clarinet.jpg","37","0","671"
"2","2","encoding","encoding","6","Peach.jpg","36","0","664"
"2","2","encoding","encoding","7","Nuts_Peanuts.jpg","36","0","1325"
"2","2","encoding","encoding","8","Cheesegrater_Handheld.jpg","37","0","596"
"2","2","encoding","encoding","9","Eggplant.jpg","36","0","639"
"2","2","encoding","encoding","10","DivingBoard.jpg","37","0","790"
"2","2","encoding","encoding","11","Can_Gas.jpg","37","0","664"
"2","2","encoding","encoding","12","MeatGrinder.jpg","37","0","778"
"2","2","encoding","encoding","13","Nuts_PeanutsPeeled.jpg","36","0","664"
"2","2","encoding","encoding","14","Stool_Metal.jpg","37","0","635"
"2","2","encoding","encoding","15","Table_Poker.jpg","37","0","690"
"2","2","encoding","encoding","16","Toaster_Antique.jpg","37","0","792"
"2","2","encoding","encoding","17","Bag_Saline.jpg","37","0","1810"
"2","2","encoding","encoding","18","Chair_Dining.jpg","37","0","627"
"2","2","encoding","encoding","19","ClothRed.jpg","37","0","1117"
"2","2","encoding","encoding","20","Keyhole.jpg","37","0","645"
"2","2","encoding","encoding","21","Hose_Garden.jpg","37","0","610"
"2","2","encoding","encoding","22","Ruler_Triangle.jpg","37","0","606"
"2","2","encoding","encoding","23","MetalChain.jpg","37","0","652"
"2","2","encoding","encoding","24","Bandage_Wrap.jpg","37","0","757"
"2","2","encoding","encoding","25","Fence_Wooden.jpg","37","0","529"
"2","2","encoding","encoding","26","Funnel.jpg","37","0","634"
"2","2","encoding","encoding","27","Harp.jpg","37","0","571"
"2","2","encoding","encoding","28","Table_Side.jpg","37","0","523"
"2","2","encoding","encoding","29","Stroller.jpg","37","0","676"
"2","2","encoding","encoding","30","DormerWindow.jpg","37","0","648"
"2","2","encoding","encoding","31","Wardrobe.jpg","37","0","561"
"2","2","encoding","encoding","32","Dog_CockerSpaniel.jpg","36","0","717"
"2","2","encoding","encoding","33","Pyramid.jpg","37","0","881"
"2","2","encoding","encoding","34","Cage_Bird.jpg","37","0","644"
"2","2","encoding","encoding","35","Brush_Toilet.jpg","37","0","766"
"2","2","encoding","encoding","36","DVDPlayer.jpg","37","0","710"
"2","2","encoding","encoding","37","Spoon_Serving.jpg","37","0","656"
"2","2","encoding","encoding","38","Vase_EarthToned.jpg","37","0","701"
"2","2","encoding","encoding","39","Skates.jpg","37","0","634"
"2","2","encoding","encoding","40","Glass_Martini.jpg","37","0","713"
"2","2","encoding","encoding","41","TubeRing.jpg","37","0","675"
"2","2","encoding","encoding","42","CinderBlock.jpg","37","0","720"
"2","2","encoding","encoding","43","CashRegister_Antique.jpg","37","0","638"
"2","2","encoding","encoding","44","Lens_ColourFilter.jpg","37","0","1097"
"2","2","encoding","encoding","45","Jacks.jpg","37","0","742"
"2","2","encoding","encoding","46","Ostrich.jpg","36","0","789"
"2","2","encoding","encoding","47","Corn_Kernels.jpg","36","0","878"
"2","2","encoding","encoding","48","Blade_Tablesaw.jpg","37","0","623"
"2","2","encoding","encoding","49","Shirt_SportsJersey.jpg","37","0","814"
"2","2","encoding","encoding","50","Heater_Infrared.jpg","37","0","836"
"2","2","encoding","encoding","51","DeepFryer.jpg","37","0","627"
"2","2","encoding","encoding","52","Dynamite.jpg","37","0","805"
"2","2","encoding","encoding","53","Leaf_Clover.jpg","36","0","656"
"2","2","encoding","encoding","54","AllTerrain.jpg","37","0","606"
"2","2","encoding","encoding","55","Jug_GallonRed.jpg","37","0","604"
"2","2","encoding","encoding","56","Snowboard.jpg","37","0","710"
"2","2","encoding","encoding","57","Bag_Gym.jpg","37","0","608"
"2","2","encoding","encoding","58","Frame_Oval.jpg","37","0","616"
"2","2","encoding","encoding","59","Door_Blue.jpg","37","0","602"
"2","2","encoding","encoding","60","CartonEggs.jpg","36","0","659"
"2","2","encoding","encoding","62","Sink_Bathroom.jpg","37","0","688"
"2","2","encoding","encoding","63","Toy_SandRake.jpg","37","0","609"
"2","2","encoding","encoding","64","Brace_Neck.jpg","37","0","760"
"2","2","encoding","encoding","65","USBKey.jpg","37","0","596"
"2","2","encoding","encoding","66","Swan.jpg","36","0","601"
"2","2","encoding","encoding","67","Pencil.jpg","37","0","810"
"2","2","encoding","encoding","68","Lectern.jpg","37","0","546"
"2","2","encoding","encoding","69","IceCubes copy.jpg","37","0","1897"
"2","2","encoding","encoding","70","Snorkle.jpg","37","0","852"
"2","2","encoding","encoding","71","LetterMail.jpg","37","0","913"
"2","2","encoding","encoding","72","Ball_Football.jpg","37","0","623"
"2","2","encoding","encoding","73","Barrel_Upright.jpg","37","0","621"
"2","2","encoding","encoding","74","Tire_Hollow.jpg","37","0","600"
"2","2","encoding","encoding","75","OnionRed.jpg","36","0","648"
"2","2","encoding","encoding","76","Window.jpg","37","0","654"
"2","2","encoding","encoding","77","Pipe_Drain.jpg","37","0","812"
"2","2","encoding","encoding","78","Hook_Fishing.jpg","37","0","696"
"2","2","encoding","encoding","79","AmberWithMosquito.jpg","36","0","1018"
"2","2","encoding","encoding","80","Ruler_Metal.jpg","37","0","596"
"2","2","encoding","encoding","81","Torpedo.jpg","37","0","730"
"2","2","encoding","encoding","82","Spoons_MeasuringDetached.jpg","37","0","606"
"2","2","encoding","encoding","83","Bicycle_Kids.jpg","37","0","800"
"2","2","encoding","encoding","84","CarLighter.jpg","37","0","742"
"2","2","encoding","encoding","85","Sign_Taxi.jpg","37","0","632"
"2","2","encoding","encoding","86","Egg_Chocolate.jpg","36","0","600"
"2","2","encoding","encoding","87","JukeboxAntique.jpg","37","0","587"
"2","2","encoding","encoding","88","Scorpion.jpg","36","0","929"
"2","2","encoding","encoding","89","LampPost_ThreeBulbs.jpg","37","0","591"
"2","2","encoding","encoding","90","ElectricOutlet.jpg","37","0","591"
"2","2","encoding","encoding","91","BicycleHandleGrip.jpg","37","0","578"
"2","2","encoding","encoding","92","Shield_Antique.jpg","37","0","696"
"2","2","encoding","encoding","93","Pliers_NeedleNose.jpg","37","0","559"
"2","2","encoding","encoding","94","Can_Oblong.jpg","37","0","556"
"2","2","encoding","encoding","95","BicycleSeat.jpg","37","0","674"
"2","2","encoding","encoding","96","RollerBlade.jpg","37","0","610"
"2","2","encoding","encoding","97","Makeup_Eyeshadow.jpg","37","0","900"
"2","2","encoding","encoding","98","Tree_Fir.jpg","36","0","649"
"2","2","encoding","encoding","99","Toy_SeeSaw.jpg","37","0","570"
"2","2","encoding","encoding","100","Can_GasSpout.jpg","37","0","534"
"2","2","encoding","encoding","101","Hat_Visor.jpg","37","0","581"
"2","2","encoding","encoding","102","CuttingBoard.jpg","37","0","666"
"2","2","encoding","encoding","103","Gecko.jpg","36","0","621"
"2","2","encoding","encoding","104","FuseBox.jpg","37","0","613"
"2","2","encoding","encoding","105","Hat_Party.jpg","37","0","821"
"2","2","encoding","encoding","106","Toy_ElephantPlastic.jpg","37","0","690"
"2","2","encoding","encoding","107","Boat_Row.jpg","37","0","556"
"2","2","encoding","encoding","108","Potato.jpg","36","0","646"
"2","2","encoding","encoding","109","Plate_Decorative.jpg","37","0","638"
"2","2","encoding","encoding","110","Computer_ExpansionCard.jpg","37","0","672"
"2","2","encoding","encoding","111","DogToy.jpg","37","0","633"
"2","2","encoding","encoding","112","Pancakes.jpg","36","0","1701"
"2","2","encoding","encoding","113","Hook_Ceiling.jpg","37","0","559"
"2","2","encoding","encoding","114","Toy_Moose.jpg","37","0","720"
"2","2","encoding","encoding","115","Cord_Ethernet.jpg","37","0","784"
"2","2","encoding","encoding","116","Pot_FlowerClay.jpg","37","0","604"
"2","2","encoding","encoding","117","Toaster_MetalSleek.jpg","37","0","694"
"2","2","encoding","encoding","118","Light_Studio.jpg","37","0","591"
"2","2","encoding","encoding","119","Tape_Dispenser.jpg","37","0","545"
"2","2","encoding","encoding","120","Croissant.jpg","37","0","1019"
"2","2","encoding","encoding","121","Jars_PetFood.jpg","37","0","652"
"2","2","encoding","encoding","123","OperaGlasses.jpg","37","0","649"
"2","2","encoding","encoding","124","Tiara.jpg","37","0","581"
"2","2","encoding","encoding","125","Phone_Public.jpg","37","0","573"
"2","2","encoding","encoding","126","Hat_Baseball.jpg","37","0","662"
"2","2","encoding","encoding","127","Swing_Child.jpg","37","0","570"
"2","2","encoding","encoding","128","Bird_Toucan.jpg","36","0","705"
"2","2","encoding","encoding","129","Currants.jpg","36","0","799"
"2","2","encoding","encoding","130","Machine_EKG.jpg","37","0","588"
"2","2","encoding","encoding","131","Chair_MedicalToilet.jpg","37","0","565"
"2","2","encoding","encoding","132","Lipstick.jpg","37","0","571"
"2","2","encoding","encoding","133","EnglishMuffin.jpg","37","0","971"
"2","2","encoding","encoding","134","Toy_Stroller.jpg","37","0","516"
"2","2","encoding","encoding","135","Bag_Doctor.jpg","37","0","675"
"2","2","encoding","encoding","136","Canister_Oil.jpg","37","0","578"
"2","2","encoding","encoding","137","Milkshake_StrawberryStraw.jpg","37","0","676"
"2","2","encoding","encoding","138","Fruit_Cactus.jpg","36","0","645"
"2","2","encoding","encoding","139","Spoon_Baby.jpg","37","0","519"
"2","2","encoding","encoding","140","SnowGlobe.jpg","37","0","527"
"2","2","encoding","encoding","141","Decoration_WallOrnament.jpg","36","0","611"
"2","2","encoding","encoding","142","IceCubes.jpg","36","0","1534"
"2","2","encoding","encoding","143","IceCream_Chocolate.jpg","37","0","1410"
"2","2","encoding","encoding","144","Chairs_Stacked.jpg","37","0","557"
"2","2","encoding","encoding","145","PaintRoller.jpg","37","0","558"
"2","2","encoding","encoding","146","Projector_Film.jpg","37","0","510"
"2","2","encoding","encoding","147","Radio_Vintage.jpg","37","0","627"
"2","2","encoding","encoding","148","Statue_Cat.jpg","37","0","514"
"2","2","encoding","encoding","149","Light_Halogen.jpg","37","0","482"
"2","2","encoding","encoding","150","Phone_Military.jpg","37","0","521"
"2","2","encoding","encoding","151","Exercise_Stepper.jpg","37","0","522"
"2","2","encoding","encoding","152","Hotdog_Weiner.jpg","36","0","820"
"2","2","encoding","encoding","153","GasStation.jpg","37","0","463"
"2","2","encoding","encoding","154","ColoringSet.jpg","37","0","525"
"2","2","encoding","encoding","155","PyramidWooden.jpg","37","0","583"
"2","2","encoding","encoding","156","Syrup_Maple.jpg","37","0","560"
"2","2","encoding","encoding","157","Axe.jpg","37","0","554"
"2","2","encoding","encoding","158","Cucumber.jpg","36","0","622"
"2","2","encoding","encoding","159","BicycleReflector.jpg","37","0","559"
"2","2","encoding","encoding","160","Pillow_Heart.jpg","37","0","666"
"2","2","encoding","encoding","161","Jar_Honey.jpg","37","0","1554"
"2","2","encoding","encoding","162","Garlic_Clove.jpg","36","0","709"
"2","2","encoding","encoding","163","Kiwi.jpg","36","0","712"
"2","2","encoding","encoding","164","Cow.jpg","36","0","605"
"2","2","encoding","encoding","165","Chair_Student.jpg","37","0","464"
"2","2","encoding","encoding","166","Plate_Ceramic.jpg","37","0","580"
"2","2","encoding","encoding","167","Glass_Bowl.jpg","37","0","534"
"2","2","encoding","encoding","168","Seahorse.jpg","36","0","652"
"2","2","encoding","encoding","169","Broom_Long.jpg","37","0","545"
"2","2","encoding","encoding","170","Mousetrap.jpg","37","0","524"
"2","2","encoding","encoding","171","Statue_Man.jpg","37","0","582"
"2","2","encoding","encoding","172","Fork_Fondue.jpg","37","0","526"
"2","2","encoding","encoding","173","PropellerFan.jpg","37","0","568"
"2","2","encoding","encoding","174","BabyMonitor.jpg","37","0","470"
"2","2","encoding","encoding","175","Battery_AA.jpg","37","0","450"
"2","2","encoding","encoding","176","Keg.jpg","37","0","514"
"2","2","encoding","encoding","177","Egg_Cup.jpg","37","0","1044"
"2","2","retrieval","new_objects","1","Lychee.jpg","37","1","1012"
"2","2","retrieval","new_objects","2","Igloo.jpg","37","1","996"
"2","2","retrieval","old_objects","3","Cucumber.jpg","36","1","710"
"2","2","retrieval","old_objects","4","Light_Halogen.jpg","36","1","1249"
"2","2","retrieval","new_objects","5","Brush_Shoe.jpg","37","1","812"
"2","2","retrieval","old_objects","6","Swing_Child.jpg","36","1","1633"
"2","2","retrieval","old_objects","7","Stroller.jpg","37","0","1163"
"2","2","retrieval","old_objects","8","ElectricOutlet.jpg","36","1","1217"
"2","2","retrieval","old_objects","9","Chair_Dining.jpg","36","1","925"
"2","2","retrieval","old_objects","10","Skates.jpg","37","0","1339"
"2","2","retrieval","new_objects","11","Paratrooper.jpg","37","1","953"
"2","2","retrieval","old_objects","12","CarLighter.jpg","36","1","1372"
"2","2","retrieval","new_objects","13","Condom.jpg","37","1","879"
"2","2","retrieval","new_objects","14","Fork_Regular.jpg","37","1","990"
"2","2","retrieval","old_objects","15","Tire_Hollow.jpg","36","1","767"
"2","2","retrieval","old_objects","16","OnionRed.jpg","36","1","832"
"2","2","retrieval","new_objects","17","Shrub_Boxwood.jpg","37","1","888"
"2","2","retrieval","old_objects","18","Barrel_Upright.jpg","36","1","990"
"2","2","retrieval","new_objects","19","Kangaroo.jpg","37","1","809"
"2","2","retrieval","new_objects","20","Suitcase.jpg","36","0","1132"
"2","2","retrieval","new_objects","21","ChainRusty.jpg","37","1","853"
"2","2","retrieval","new_objects","22","Cooler.jpg","37","1","890"
"2","2","retrieval","old_objects","23","DogToy.jpg","36","1","662"
"2","2","retrieval","old_objects","24","Toy_SandRake.jpg","36","1","1106"
"2","2","retrieval","old_objects","25","Can_GasSpout.jpg","36","1","977"
"2","2","retrieval","new_objects","26","Ship_Model.jpg","37","1","720"
"2","2","retrieval","new_objects","27","DentistOverheadLight.jpg","36","0","936"
"2","2","retrieval","new_objects","28","HoseNozzle.jpg","36","0","925"
"2","2","retrieval","new_objects","29","Toys_Lego.jpg","37","1","848"
"2","2","retrieval","new_objects","30","Bullet.jpg","36","0","889"
"2","2","retrieval","old_objects","31","AmberWithMosquito.jpg","36","1","660"
"2","2","retrieval","new_objects","32","Case_WoodenOrnate.jpg","37","1","846"
"2","2","retrieval","old_objects","33","Ruler_Triangle.jpg","36","1","733"
"2","2","retrieval","old_objects","34","Fence_Wooden.jpg","36","1","848"
"2","2","retrieval","old_objects","35","Computer_ExpansionCard.jpg","36","1","737"
"2","2","retrieval","old_objects","36","Frame_Oval.jpg","36","1","679"
"2","2","retrieval","new_objects","37","Toy_DonkeyPlastic.jpg","36","0","1530"
"2","2","retrieval","old_objects","38","Peach.jpg","36","1","735"
"2","2","retrieval","new_objects","39","Keychain_Leather.jpg","37","1","780"
"2","2","retrieval","new_objects","40","Bat_Baseball.jpg","37","1","909"
"2","2","retrieval","new_objects","41","Otoscope.jpg","37","1","1471"
"2","2","retrieval","new_objects","42","Toy_Shapesorter.jpg","37","1","776"
"2","2","retrieval","old_objects","43","Lipstick.jpg","36","1","920"
"2","2","retrieval","new_objects","44","Shoe_Pink.jpg","37","1","666"
"2","2","retrieval","old_objects","45","Chairs_Stacked.jpg","36","1","804"
"2","2","retrieval","new_objects","46","Thermos_MetalSleek.jpg","37","1","1082"
"2","2","retrieval","old_objects","47","Ball_Football.jpg","36","1","712"
"2","2","retrieval","old_objects","48","Dog_CockerSpaniel.jpg","36","1","645"
"2","2","retrieval","old_objects","49","Fork_Fondue.jpg","36","1","709"
"2","2","retrieval","new_objects","50","NewspaperStack.jpg","37","1","783"
"2","2","retrieval","old_objects","51","Window.jpg","36","1","714"
"2","2","retrieval","old_objects","52","Pancakes.jpg","36","1","699"
"2","2","retrieval","new_objects","53","Sign_SpeedLimit25.jpg","37","1","748"
"2","2","retrieval","new_objects","54","PaintSprayer.jpg","0","0","2000"
"2","2","retrieval","new_objects","55","Bolt_WithNut.jpg","37","1","1407"
"2","2","retrieval","new_objects","56","Clamp.jpg","36","0","602"
"2","2","retrieval","old_objects","57","Boat_Row.jpg","36","1","683"
"2","2","retrieval","old_objects","58","Gecko.jpg","37","0","1064"
"2","2","retrieval","new_objects","59","Bottle_Spray.jpg","37","1","766"
"2","2","retrieval","new_objects","60","Chair_Rocking.jpg","36","0","699"
"2","2","retrieval","old_objects","62","Hat_Party.jpg","36","1","680"
"2","2","retrieval","new_objects","63","Tweezers.jpg","37","1","648"
"2","2","retrieval","old_objects","64","Bird_Toucan.jpg","36","1","660"
"2","2","retrieval","old_objects","65","Phone_Public.jpg","36","1","901"
"2","2","retrieval","old_objects","66","Bandage_Wrap.jpg","36","1","593"
"2","2","retrieval","old_objects","67","Lens_ColourFilter.jpg","36","1","544"
"2","2","retrieval","old_objects","68","Spoon_Serving.jpg","37","0","712"
"2","2","retrieval","new_objects","69","Sign_SpeedLimit30.jpg","36","0","569"
"2","2","retrieval","new_objects","70","Sandcastle.jpg","37","1","739"
"2","2","retrieval","old_objects","71","Spoons_MeasuringDetached.jpg","36","1","771"
"2","2","retrieval","new_objects","72","Toy_Witch.jpg","37","1","556"
"2","2","retrieval","old_objects","73","Glass_Martini.jpg","36","1","650"
"2","2","retrieval","new_objects","74","Playdoh.jpg","37","1","575"
"2","2","retrieval","old_objects","75","EnglishMuffin.jpg","36","1","556"
"2","2","retrieval","new_objects","76","HerbsInBag.jpg","37","1","679"
"2","2","retrieval","new_objects","77","Toy_BlocksLetter.jpg","37","1","667"
"2","2","retrieval","old_objects","78","Statue_Man.jpg","36","1","747"
"2","2","retrieval","old_objects","79","Leaf_Clover.jpg","36","1","592"
"2","2","retrieval","new_objects","80","Noisemaker.jpg","37","1","817"
"2","2","retrieval","old_objects","81","Bag_Gym.jpg","36","1","854"
"2","2","retrieval","new_objects","82","Pasta_Fusilli.jpg","37","1","715"
"2","2","retrieval","old_objects","83","Spoon_Baby.jpg","36","1","757"
"2","2","retrieval","new_objects","84","Boat_Trailer.jpg","37","1","695"
"2","2","retrieval","new_objects","85","Drum_Ramadan.jpg","37","1","715"
"2","2","retrieval","old_objects","86","SnowGlobe.jpg","36","1","520"
"2","2","retrieval","old_objects","87","Brace_Neck.jpg","36","1","537"
"2","2","retrieval","new_objects","88","Tube.jpg","37","1","975"
"2","2","retrieval","new_objects","89","Mug_Beer.jpg","37","1","921"
"2","2","retrieval","new_objects","90","GogglesSwim.jpg","37","1","850"
"2","2","retrieval","old_objects","91","ClothRed.jpg","36","1","544"
"2","2","retrieval","old_objects","92","Croissant.jpg","36","1","558"
"2","2","retrieval","new_objects","93","Horn_Hunting.jpg","36","0","836"
"2","2","retrieval","new_objects","94","Boat_Dinghy.jpg","37","1","880"
"2","2","retrieval","old_objects","95","Cord_Ethernet.jpg","36","1","606"
"2","2","retrieval","old_objects","96","Toaster_Antique.jpg","36","1","666"
"2","2","retrieval","old_objects","97","LampPost_ThreeBulbs.jpg","36","1","692"
"2","2","retrieval","old_objects","98","Kiwi.jpg","36","1","569"
"2","2","retrieval","new_objects","99","Bat_Cricket.jpg","37","1","778"
"2","2","retrieval","new_objects","100","TimerKitchen.jpg","37","1","735"
"2","2","retrieval","new_objects","101","Dreidel.jpg","37","1","612"
"2","2","retrieval","new_objects","102","Altar.jpg","36","0","787"
"2","2","retrieval","new_objects","103","Mixer_Cement.jpg","36","0","789"
"2","2","retrieval","new_objects","104","RamAnimal.jpg","37","1","997"
"2","2","retrieval","new_objects","105","Celery.jpg","37","1","753"
"2","2","retrieval","old_objects","106","Milkshake_StrawberryStraw.jpg","36","1","566"
"2","2","retrieval","old_objects","107","Garlic_Clove.jpg","36","1","637"
"2","2","retrieval","new_objects","108","RecorderCassette.jpg","37","1","881"
"2","2","retrieval","new_objects","109","Bed_Hospital.jpg","37","1","1017"
"2","2","retrieval","old_objects","110","Corn_Kernels.jpg","36","1","540"
"2","2","retrieval","new_objects","111","Toy_RockingHorseBeige.jpg","37","1","713"
"2","2","retrieval","new_objects","112","Level.jpg","36","0","854"
"2","2","retrieval","new_objects","113","SoundMixer_White.jpg","36","0","928"
"2","2","retrieval","new_objects","114","BrainSagittal.jpg","37","1","746"
"2","2","retrieval","new_objects","115","Brush_Paint.jpg","36","0","673"
"2","2","retrieval","old_objects","116","FuseBox.jpg","36","1","560"
"2","2","retrieval","new_objects","117","Bus_School.jpg","37","1","637"
"2","2","retrieval","old_objects","118","GasStation.jpg","36","1","643"
"2","2","retrieval","new_objects","119","Tickets_Blank.jpg","37","1","600"
"2","2","retrieval","new_objects","120","Ghost.jpg","37","1","701"
"2","2","retrieval","new_objects","121","Pouch_PotPourri.jpg","37","1","756"
"2","2","retrieval","old_objects","123","Light_Studio.jpg","36","1","767"
"2","2","retrieval","old_objects","124","Projector_Film.jpg","37","0","790"
"2","2","retrieval","old_objects","125","Chair_Student.jpg","36","1","534"
"2","2","retrieval","old_objects","126","Pot_FlowerClay.jpg","36","1","601"
"2","2","retrieval","old_objects","127","Cow.jpg","36","1","555"
"2","2","retrieval","old_objects","128","Nuts_Peanuts.jpg","36","1","786"
"2","2","retrieval","new_objects","129","Ramekin.jpg","36","0","528"
"2","2","retrieval","new_objects","130","ScannerShoplifting.jpg","37","1","702"
"2","2","retrieval","old_objects","131","Toaster_MetalSleek.jpg","36","1","632"
"2","2","retrieval","old_objects","132","Toy_SeeSaw.jpg","36","1","964"
"2","2","retrieval","new_objects","133","Rock_Agate.jpg","37","1","847"
"2","2","retrieval","new_objects","134","FuzzyDice.jpg","37","1","705"
"2","2","retrieval","old_objects","135","Cheesegrater_Handheld.jpg","36","1","573"
"2","2","retrieval","new_objects","136","Chicken_FriedWing.jpg","37","1","646"
"2","2","retrieval","old_objects","137","Phone_Military.jpg","36","1","659"
"2","2","retrieval","old_objects","138","Dynamite.jpg","36","1","607"
"2","2","retrieval","new_objects","139","OnionRings.jpg","37","1","667"
"2","2","retrieval","old_objects","140","Chair_MedicalToilet.jpg","36","1","820"
"2","2","retrieval","old_objects","141","IceCubes.jpg","36","1","682"
"2","2","retrieval","new_objects","142","SpinningWheel.jpg","37","1","1179"
"2","2","retrieval","old_objects","143","Toy_Moose.jpg","36","1","725"
"2","2","retrieval","old_objects","144","DivingBoard.jpg","36","1","907"
"2","2","retrieval","old_objects","145","Fruit_Cactus.jpg","36","1","752"
"2","2","retrieval","new_objects","146","Scoop_Flour.jpg","37","1","717"
"2","2","retrieval","new_objects","147","CoolingFan_Engine2.jpg","36","0","848"
"2","2","retrieval","old_objects","148","Hat_Visor.jpg","37","0","628"
"2","2","retrieval","old_objects","149","Statue_Cat.jpg","36","1","638"
"2","2","retrieval","new_objects","150","Licorice.jpg","37","1","604"
"2","2","retrieval","new_objects","151","DiaperChangingStation.jpg","37","1","896"
"2","2","retrieval","old_objects","152","Bicycle_Kids.jpg","36","1","573"
"2","2","retrieval","new_objects","153","PickupTruck.jpg","37","1","567"
"2","2","retrieval","old_objects","154","Sign_Taxi.jpg","36","1","684"
"2","2","retrieval","new_objects","155","Telephone_TinCan.jpg","37","1","840"
"2","2","retrieval","old_objects","156","Heater_Infrared.jpg","36","1","558"
"2","2","retrieval","new_objects","157","Eraser.jpg","37","1","591"
"2","2","retrieval","old_objects","158","ColoringSet.jpg","36","1","716"
"2","2","retrieval","old_objects","159","Eggplant.jpg","36","1","554"
"2","2","retrieval","old_objects","160","Glass_Bowl.jpg","36","1","531"
"2","2","retrieval","new_objects","161","Grill_Electric.jpg","37","1","838"
"2","2","retrieval","old_objects","162","JukeboxAntique.jpg","36","1","740"
"2","2","retrieval","old_objects","163","Pipe_Drain.jpg","36","1","621"
"2","2","retrieval","old_objects","164","Radio_Vintage.jpg","36","1","569"
"2","2","retrieval","new_objects","165","ButterChurn.jpg","36","0","748"
"2","2","retrieval","new_objects","166","Mug_Travel.jpg","37","1","935"
"2","2","retrieval","new_objects","167","Bottle_Plastic.jpg","37","1","785"
"2","2","retrieval","new_objects","168","Kettle.jpg","37","1","712"
"2","2","retrieval","old_objects","169","BabyMonitor.jpg","36","1","769"
"2","2","retrieval","old_objects","170","DeepFryer.jpg","36","1","605"
"2","2","retrieval","new_objects","171","Grape.jpg","36","0","597"
"2","2","retrieval","new_objects","172","Trowel.jpg","37","1","1061"
"2","2","retrieval","old_objects","173","Makeup_Eyeshadow.jpg","37","0","595"
"2","2","retrieval","old_objects","174","Jug_GallonRed.jpg","36","1","566"
"2","2","retrieval","new_objects","175","Pickle.jpg","37","1","1004"
"2","2","retrieval","new_objects","176","Suit_Women.jpg","37","1","627"
"2","2","retrieval","new_objects","177","VialLab.jpg","37","1","819"
"2","2","retrieval","new_objects","178","Headset.jpg","37","1","805"
"2","2","retrieval","new_objects","179","Hookah.jpg","37","1","793"
"2","2","retrieval","new_objects","180","AirCompressor.jpg","37","1","674"
"2","2","retrieval","old_objects","181","Toy_Alien.jpg","36","1","524"
"2","2","retrieval","old_objects","182","Axe.jpg","36","1","610"
"2","2","retrieval","old_objects","184","Pillow_Heart.jpg","36","1","584"
"2","2","retrieval","new_objects","185","MeatRaw.jpg","37","1","605"
"2","2","retrieval","new_objects","186","Seashell_RoseMurex.jpg","37","1","759"
"2","2","retrieval","old_objects","187","Machine_EKG.jpg","36","1","877"
"2","2","retrieval","new_objects","188","Shoes_Pumps.jpg","37","1","1073"
"2","2","retrieval","new_objects","189","ManholeCover.jpg","37","1","642"
"2","2","retrieval","new_objects","190","Bottle_Blue.jpg","36","0","672"
"2","2","retrieval","new_objects","191","Sign_Wetfloor.jpg","37","1","709"
"2","2","retrieval","old_objects","192","CinderBlock.jpg","37","0","796"
"2","2","retrieval","old_objects","193","Keyhole.jpg","36","1","596"
"2","2","retrieval","old_objects","194","Can_Oblong.jpg","36","1","732"
"2","2","retrieval","old_objects","195","Ostrich.jpg","36","1","1082"
"2","2","retrieval","old_objects","196","Clarinet.jpg","36","1","758"
"2","2","retrieval","new_objects","197","ProcessorFood_Old.jpg","36","0","774"
"2","2","retrieval","old_objects","198","Pliers_NeedleNose.jpg","36","1","673"
"2","2","retrieval","old_objects","199","Hotdog_Weiner.jpg","36","1","870"
"2","2","retrieval","new_objects","200","Sign_HumpBridgeAhead.jpg","37","1","644"
"2","2","retrieval","new_objects","201","KeyHook_Empty.jpg","37","1","829"
"2","2","retrieval","old_objects","202","RollerBlade.jpg","37","0","872"
"2","2","retrieval","old_objects","203","Can_Gas.jpg","36","1","673"
"2","2","retrieval","old_objects","204","Jar_Honey.jpg","36","1","764"
"2","2","retrieval","old_objects","205","Snorkle.jpg","36","1","616"
"2","2","retrieval","old_objects","206","Brush_Toilet.jpg","37","0","690"
"2","2","retrieval","old_objects","207","Swan.jpg","36","1","566"
"2","2","retrieval","old_objects","208","Lectern.jpg","36","1","648"
"2","2","retrieval","old_objects","209","Hook_Fishing.jpg","36","1","554"
"2","2","retrieval","new_objects","210","Bird_CanadianGoose.jpg","36","0","541"
"2","2","retrieval","old_objects","211","Pyramid.jpg","36","1","718"
"2","2","retrieval","old_objects","212","Tree_Fir.jpg","36","1","606"
"2","2","retrieval","old_objects","213","IceCream_Chocolate.jpg","36","1","603"
"2","2","retrieval","old_objects","214","Shirt_SportsJersey.jpg","36","1","603"
"2","2","retrieval","old_objects","215","Ruler_Metal.jpg","36","1","610"
"2","2","retrieval","old_objects","216","Egg_Chocolate.jpg","36","1","602"
"2","2","retrieval","new_objects","217","GPS.jpg","37","1","746"
"2","2","retrieval","new_objects","218","Sculpture_MetalMan.jpg","37","1","725"
"2","2","retrieval","old_objects","219","Egg_Cup.jpg","36","1","645"
"2","2","retrieval","new_objects","220","Skirt_Long.jpg","37","1","831"
"2","2","retrieval","old_objects","221","TubeRing.jpg","37","0","1041"
"2","2","retrieval","new_objects","222","Feet.jpg","37","1","670"
"2","2","retrieval","old_objects","223","BearPolar.jpg","37","0","1041"
"2","2","retrieval","new_objects","224","RemoteControl.jpg","37","1","626"
"2","2","retrieval","new_objects","225","Basket_Bread.jpg","37","1","794"
"2","2","retrieval","old_objects","226","Wardrobe.jpg","36","1","699"
"2","2","retrieval","old_objects","227","Funnel.jpg","36","1","726"
"2","2","retrieval","new_objects","228","Exercise_HandTrainer.jpg","36","0","813"
"2","2","retrieval","new_objects","229","Leek.jpg","37","1","566"
"2","2","retrieval","old_objects","230","DormerWindow.jpg","36","1","630"
"2","2","retrieval","old_objects","231","LetterMail.jpg","36","1","714"
"2","2","retrieval","new_objects","232","Decoration_Chinese.jpg","37","1","883"
"2","2","retrieval","old_objects","233","Battery_AA.jpg","36","1","645"
"2","2","retrieval","new_objects","234","Hotdog_WithBun.jpg","37","1","755"
"2","2","retrieval","old_objects","235","Cage_Bird.jpg","36","1","614"
"2","2","retrieval","new_objects","236","Razor.jpg","36","0","1075"
"2","2","retrieval","new_objects","237","Cup_Styrofoam.jpg","37","1","792"
"2","2","retrieval","new_objects","238","PeasSplit.jpg","36","0","562"
"2","2","retrieval","old_objects","239","Nuts_PeanutsPeeled.jpg","36","1","537"
"2","2","retrieval","old_objects","240","Canister_Oil.jpg","36","1","970"
"2","2","retrieval","old_objects","241","Vase_EarthToned.jpg","36","1","725"
"2","2","retrieval","new_objects","242","PostageStamps.jpg","37","1","666"
"2","2","retrieval","new_objects","243","Shoes_WomenBoots.jpg","37","1","615"
"2","2","retrieval","new_objects","245","Table_Conference.jpg","37","1","715"
"2","2","retrieval","old_objects","246","Seahorse.jpg","36","1","559"
"2","2","retrieval","new_objects","247","DryingMachine.jpg","37","1","566"
"2","2","retrieval","old_objects","248","Bag_Saline.jpg","36","1","755"
"2","2","retrieval","old_objects","249","MetalChain.jpg","36","1","531"
"2","2","retrieval","new_objects","250","Watch.jpg","37","1","584"
"2","2","retrieval","old_objects","251","Flower_Orchid.jpg","36","1","848"
"2","2","retrieval","old_objects","252","Decoration_WallOrnament.jpg","36","1","544"
"2","2","retrieval","new_objects","253","sign_traffic.jpg","37","1","814"
"2","2","retrieval","new_objects","254","Distaff.jpg","37","1","1110"
"2","2","retrieval","new_objects","255","Plate_Wooden.jpg","36","0","520"
"2","2","retrieval","new_objects","256","Fossil.jpg","37","1","828"
"2","2","retrieval","old_objects","257","CartonEggs.jpg","36","1","562"
"2","2","retrieval","old_objects","258","Scorpion.jpg","36","1","846"
"2","2","retrieval","new_objects","259","Steeple.jpg","37","1","646"
"2","2","retrieval","new_objects","260","Toy_DollHomeMade.jpg","37","1","736"
"2","2","retrieval","new_objects","261","LawnMower.jpg","36","0","636"
"2","2","retrieval","new_objects","262","DryRack_Dishes.jpg","37","1","589"
"2","2","retrieval","new_objects","263","Can_Peas.jpg","37","1","727"
"2","2","retrieval","new_objects","264","Man.jpg","37","1","731"
"2","2","retrieval","new_objects","265","Backhoe.jpg","37","1","721"
"2","2","retrieval","old_objects","266","Tiara.jpg","36","1","703"
"2","2","retrieval","new_objects","267","CandleSnuffer.jpg","37","1","818"
"2","2","retrieval","old_objects","268","Hook_Ceiling.jpg","36","1","539"
"2","2","retrieval","old_objects","269","OperaGlasses.jpg","37","0","558"
"2","2","retrieval","new_objects","270","HairBand.jpg","37","1","594"
"2","2","retrieval","old_objects","271","USBKey.jpg","36","1","585"
"2","2","retrieval","new_objects","272","Bag_Groceries.jpg","37","1","640"
"2","2","retrieval","new_objects","273","Staircase_Straight.jpg","37","1","679"
"2","2","retrieval","new_objects","274","OrigamiPaper.jpg","37","1","639"
"2","2","retrieval","old_objects","275","DVDPlayer.jpg","37","0","602"
"2","2","retrieval","old_objects","276","CashRegister_Antique.jpg","36","1","779"
"2","2","retrieval","new_objects","277","Light_Traffic.jpg","37","1","776"
"2","2","retrieval","old_objects","278","Plate_Ceramic.jpg","36","1","552"
"2","2","retrieval","old_objects","279","Door_Blue.jpg","36","1","598"
"2","2","retrieval","new_objects","280","Mat_Door.jpg","37","1","566"
"2","2","retrieval","new_objects","281","SoapBottle.jpg","37","1","689"
"2","2","retrieval","old_objects","282","BicycleHandleGrip.jpg","37","0","583"
"2","2","retrieval","new_objects","283","Sign_Airport.jpg","37","1","564"
"2","2","retrieval","new_objects","284","Umbrella_Classic.jpg","37","1","721"
"2","2","retrieval","old_objects","285","PropellerFan.jpg","36","1","622"
"2","2","retrieval","new_objects","286","WaterColorPaintset.jpg","37","1","617"
"2","2","retrieval","old_objects","287","Sink_Bathroom.jpg","36","1","621"
"2","2","retrieval","old_objects","288","Toy_ElephantPlastic.jpg","36","1","681"
"2","2","retrieval","new_objects","289","Harmonica.jpg","37","1","774"
"2","2","retrieval","new_objects","290","Vest.jpg","37","1","626"
"2","2","retrieval","new_objects","291","Pipe_Pitch.jpg","37","1","649"
"2","2","retrieval","old_objects","292","Jars_PetFood.jpg","36","1","826"
"2","2","retrieval","old_objects","293","Plate_Decorative.jpg","37","0","551"
"2","2","retrieval","new_objects","294","GuineaPig.jpg","37","1","677"
"2","2","retrieval","old_objects","295","PyramidWooden.jpg","36","1","479"
"2","2","retrieval","new_objects","296","Flower_Daisy.jpg","36","0","555"
"2","2","retrieval","old_objects","297","Torpedo.jpg","36","1","678"
"2","2","retrieval","old_objects","298","MeatGrinder.jpg","36","1","541"
"2","2","retrieval","old_objects","299","Potato.jpg","36","1","527"
"2","2","retrieval","old_objects","300","Pencil.jpg","36","1","575"
"2","2","retrieval","old_objects","301","Table_Side.jpg","36","1","574"
"2","2","retrieval","new_objects","302","MannequinBust.jpg","37","1","578"
"2","2","retrieval","new_objects","303","Magnifying_Glass.jpg","37","1","883"
"2","2","retrieval","old_objects","304","MovieSlate.jpg","37","0","616"
"2","2","retrieval","old_objects","306","CuttingBoard.jpg","36","1","549"
"2","2","retrieval","new_objects","307","Shoes_Sneakers.jpg","36","0","927"
"2","2","retrieval","old_objects","308","Hose_Garden.jpg","36","1","643"
"2","2","retrieval","new_objects","309","KnifeHolder.jpg","36","0","617"
"2","2","retrieval","old_objects","310","Bag_Doctor.jpg","36","1","646"
"2","2","retrieval","new_objects","311","CraneMachine.jpg","37","1","711"
"2","2","retrieval","old_objects","312","Stool_Metal.jpg","36","1","755"
"2","2","retrieval","new_objects","313","Bomb.jpg","37","1","950"
"2","2","retrieval","new_objects","314","LampPost_WhiteOrnate.jpg","37","1","845"
"2","2","retrieval","new_objects","315","Television.jpg","37","1","1065"
"2","2","retrieval","old_objects","316","IceCubes copy.jpg","36","1","521"
"2","2","retrieval","old_objects","317","BicycleReflector.jpg","36","1","682"
"2","2","retrieval","new_objects","318","SaltShaker.jpg","37","1","758"
"2","2","retrieval","old_objects","319","Blade_Tablesaw.jpg","36","1","630"
"2","2","retrieval","old_objects","320","PaintRoller.jpg","37","0","650"
"2","2","retrieval","old_objects","321","Syrup_Maple.jpg","36","1","640"
"2","2","retrieval","old_objects","322","Mousetrap.jpg","36","1","722"
"2","2","retrieval","old_objects","323","BicycleSeat.jpg","37","0","783"
"2","2","retrieval","new_objects","324","LeafBlower.jpg","36","0","655"
"2","2","retrieval","old_objects","325","Table_Poker.jpg","36","1","800"
"2","2","retrieval","old_objects","326","Harp.jpg","36","1","657"
"2","2","retrieval","new_objects","327","Dill.jpg","37","1","689"
"2","2","retrieval","old_objects","328","Broom_Long.jpg","36","1","849"
"2","2","retrieval","new_objects","329","Hand.jpg","37","1","669"
"2","2","retrieval","new_objects","330","ElectricSwitchboard.jpg","37","1","918"
"2","2","retrieval","old_objects","331","Hat_Baseball.jpg","37","0","846"
"2","2","retrieval","new_objects","332","Notebook.jpg","37","1","882"
"2","2","retrieval","new_objects","333","Lettuce_Iceberg.jpg","37","1","691"
"2","2","retrieval","old_objects","334","Snowboard.jpg","36","1","708"
"2","2","retrieval","old_objects","335","Keg.jpg","36","1","541"
"2","2","retrieval","new_objects","336","RickShaw.jpg","37","1","772"
"2","2","retrieval","new_objects","337","TowelRack_Metal.jpg","37","1","765"
"2","2","retrieval","new_objects","338","Flask_Metal.jpg","36","0","614"
"2","2","retrieval","old_objects","339","AllTerrain.jpg","37","0","900"
"2","2","retrieval","old_objects","340","Tape_Dispenser.jpg","36","1","746"
"2","2","retrieval","new_objects","341","Goose_Canadian.jpg","37","1","907"
"2","2","retrieval","new_objects","342","Stone_Spa.jpg","37","1","1206"
"2","2","retrieval","old_objects","343","Exercise_Stepper.jpg","37","0","728"
"2","2","retrieval","old_objects","344","Jacks.jpg","36","1","678"
"2","2","retrieval","old_objects","345","Toy_Stroller.jpg","36","1","827"
"2","2","retrieval","new_objects","346","NetButterfly.jpg","37","1","717"
"2","2","retrieval","new_objects","347","Glass_bottle.jpg","36","0","1002"
"2","2","retrieval","old_objects","348","Currants.jpg","36","1","596"
"2","2","retrieval","old_objects","349","Shield_Antique.jpg","37","0","1080"
"2","2","retrieval","new_objects","350","Stove_WithOven.jpg","37","1","663"
"2","2","retrieval","new_objects","351","MonkeyPuppet.jpg","37","1","1173"
"2","2","retrieval","new_objects","352","Steamroller.jpg","37","1","626"
"2","2","retrieval","new_objects","353","MouthGuard.jpg","37","1","877"
"2","2","retrieval","new_objects","354","Cup_Fruits.jpg","37","1","1390"
"2","2","retrieval","new_objects","355","Jar_Cookie.jpg","37","1","544"
"2","2","demographics_block","gender","1","Jar_Cookie.jpg","female","1","15428"
"2","2","demographics_block","age","1","Jar_Cookie.jpg","49","1","15428"
"2","2","demographics_block","education","1","Jar_Cookie.jpg","16","1","15428"
"2","2","demographics_block","left_right_handed","2","Jar_Cookie.jpg","Right","1","8829"
"2","2","demographics_block","raceoption1","2","Jar_Cookie.jpg","","1","8829"
"2","2","demographics_block","raceoption2","2","Jar_Cookie.jpg","","1","8829"
"2","2","demographics_block","raceoption3","2","Jar_Cookie.jpg","","1","8829"
"2","2","demographics_block","raceoption4","2","Jar_Cookie.jpg","","1","8829"
"2","2","demographics_block","raceoption5","2","Jar_Cookie.jpg","","1","8829"
"2","2","demographics_block","raceoption6","2","Jar_Cookie.jpg","","1","8829"
"2","2","demographics_block","raceoption7","2","Jar_Cookie.jpg","6","1","8829"
"2","2","demographics_block","raceoption8","2","Jar_Cookie.jpg","","1","8829"
"2","2","demographics_block","raceoption9","2","Jar_Cookie.jpg","","1","8829"
"2","2","demographics_block","raceother","2","Jar_Cookie.jpg","","1","8829"
"2","2","demographics_block","raceother","2","Jar_Cookie.jpg","","1","8829"
"2","2","demographics_block","english_language","2","Jar_Cookie.jpg","Yes","1","8829"
"2","2","demographics_block","english_languageother","2","Jar_Cookie.jpg","","1","8829"
"2","2","demographics_block","eyesight","3","Jar_Cookie.jpg","Yes","1","10244"
"2","2","demographics_block","colorblind","3","Jar_Cookie.jpg","No","1","10244"
"2","2","worker_id_block","worker_id_textbox","1","Jar_Cookie.jpg","A28J7H4TH29DC3","1","39599"
"3","3","encoding","encoding","1","IceCubes copy.jpg","36","0","1969"
"3","3","encoding","encoding","2","BearPolar.jpg","36","0","1249"
"3","3","encoding","encoding","3","Pot_FlowerClay.jpg","37","0","795"
"3","3","encoding","encoding","4","Spoon_Baby.jpg","37","0","994"
"3","3","encoding","encoding","5","Jars_PetFood.jpg","37","0","1304"
"3","3","encoding","encoding","6","PaintRoller.jpg","37","0","1119"
"3","3","encoding","encoding","7","Tape_Dispenser.jpg","37","0","846"
"3","3","encoding","encoding","8","Ball_Football.jpg","37","0","780"
"3","3","encoding","encoding","9","Door_Blue.jpg","37","0","995"
"3","3","encoding","encoding","10","Cow.jpg","36","0","1033"
"3","3","encoding","encoding","11","Toaster_Antique.jpg","37","0","736"
"3","3","encoding","encoding","12","Toy_SandRake.jpg","37","0","1695"
"3","3","encoding","encoding","13","MeatGrinder.jpg","37","0","801"
"3","3","encoding","encoding","14","Exercise_Stepper.jpg","37","0","947"
"3","3","encoding","encoding","15","Sign_Taxi.jpg","37","0","778"
"3","3","encoding","encoding","16","Tire_Hollow.jpg","37","0","805"
"3","3","encoding","encoding","17","Mousetrap.jpg","37","0","708"
"3","3","encoding","encoding","18","OnionRed.jpg","36","0","674"
"3","3","encoding","encoding","19","MovieSlate.jpg","37","0","808"
"3","3","encoding","encoding","20","Bicycle_Kids.jpg","37","0","735"
"3","3","encoding","encoding","21","Can_Oblong.jpg","37","0","645"
"3","3","encoding","encoding","22","ColoringSet.jpg","37","0","1756"
"3","3","encoding","encoding","23","Toy_ElephantPlastic.jpg","37","0","803"
"3","3","encoding","encoding","24","DivingBoard.jpg","37","0","634"
"3","3","encoding","encoding","25","Jar_Honey.jpg","37","0","1812"
"3","3","encoding","encoding","26","Croissant.jpg","37","0","1235"
"3","3","encoding","encoding","27","Heater_Infrared.jpg","37","0","1045"
"3","3","encoding","encoding","28","EnglishMuffin.jpg","36","0","1396"
"3","3","encoding","encoding","29","Shield_Antique.jpg","37","0","822"
"3","3","encoding","encoding","30","Funnel.jpg","37","0","633"
"3","3","encoding","encoding","31","Stroller.jpg","37","0","620"
"3","3","encoding","encoding","32","Hose_Garden.jpg","37","0","635"
"3","3","encoding","encoding","33","Cucumber.jpg","36","0","746"
"3","3","encoding","encoding","34","Dog_CockerSpaniel.jpg","36","0","1576"
"3","3","encoding","encoding","35","DVDPlayer.jpg","37","0","686"
"3","3","encoding","encoding","36","Blade_Tablesaw.jpg","37","0","653"
"3","3","encoding","encoding","37","Hat_Visor.jpg","37","0","915"
"3","3","encoding","encoding","38","CartonEggs.jpg","36","0","1074"
"3","3","encoding","encoding","39","Sink_Bathroom.jpg","37","0","721"
"3","3","encoding","encoding","40","GasStation.jpg","37","0","784"
"3","3","encoding","encoding","41","Bird_Toucan.jpg","36","0","910"
"3","3","encoding","encoding","42","Table_Poker.jpg","37","0","1037"
"3","3","encoding","encoding","43","Table_Side.jpg","37","0","620"
"3","3","encoding","encoding","44","Frame_Oval.jpg","37","0","650"
"3","3","encoding","encoding","45","BabyMonitor.jpg","37","0","857"
"3","3","encoding","encoding","46","Eggplant.jpg","36","0","680"
"3","3","encoding","encoding","47","Keyhole.jpg","37","0","730"
"3","3","encoding","encoding","48","JukeboxAntique.jpg","37","0","657"
"3","3","encoding","encoding","49","Scorpion.jpg","36","0","903"
"3","3","encoding","encoding","50","Statue_Man.jpg","37","0","766"
"3","3","encoding","encoding","51","BicycleReflector.jpg","37","0","773"
"3","3","encoding","encoding","52","LampPost_ThreeBulbs.jpg","37","0","708"
"3","3","encoding","encoding","53","Jug_GallonRed.jpg","37","0","634"
"3","3","encoding","encoding","54","Stool_Metal.jpg","37","0","713"
"3","3","encoding","encoding","55","Jacks.jpg","37","0","1728"
"3","3","encoding","encoding","56","Egg_Chocolate.jpg","37","0","1814"
"3","3","encoding","encoding","57","Light_Studio.jpg","37","0","761"
"3","3","encoding","encoding","58","Ruler_Triangle.jpg","37","0","688"
"3","3","encoding","encoding","59","BicycleSeat.jpg","37","0","1014"
"3","3","encoding","encoding","60","Statue_Cat.jpg","37","0","573"
"3","3","encoding","encoding","62","ClothRed.jpg","37","0","1181"
"3","3","encoding","encoding","63","Boat_Row.jpg","37","0","691"
"3","3","encoding","encoding","64","Chair_MedicalToilet.jpg","37","0","714"
"3","3","encoding","encoding","65","Peach.jpg","36","0","769"
"3","3","encoding","encoding","66","Snowboard.jpg","37","0","671"
"3","3","encoding","encoding","67","ElectricOutlet.jpg","37","0","550"
"3","3","encoding","encoding","68","Torpedo.jpg","37","0","685"
"3","3","encoding","encoding","69","Can_Gas.jpg","37","0","627"
"3","3","encoding","encoding","70","DormerWindow.jpg","37","0","778"
"3","3","encoding","encoding","71","DeepFryer.jpg","37","0","672"
"3","3","encoding","encoding","72","Barrel_Upright.jpg","37","0","1155"
"3","3","encoding","encoding","73","PyramidWooden.jpg","37","0","1266"
"3","3","encoding","encoding","74","Cage_Bird.jpg","37","0","848"
"3","3","encoding","encoding","75","Fruit_Cactus.jpg","36","0","727"
"3","3","encoding","encoding","76","Gecko.jpg","36","0","870"
"3","3","encoding","encoding","77","Swan.jpg","36","0","1532"
"3","3","encoding","encoding","78","Chairs_Stacked.jpg","37","0","707"
"3","3","encoding","encoding","79","Fence_Wooden.jpg","37","0","842"
"3","3","encoding","encoding","80","Lipstick.jpg","37","0","936"
"3","3","encoding","encoding","81","OperaGlasses.jpg","37","0","991"
"3","3","encoding","encoding","82","Pipe_Drain.jpg","37","0","973"
"3","3","encoding","encoding","83","Phone_Public.jpg","37","0","628"
"3","3","encoding","encoding","84","Toy_Alien.jpg","37","0","479"
"3","3","encoding","encoding","85","Bag_Doctor.jpg","37","0","546"
"3","3","encoding","encoding","86","Skates.jpg","37","0","600"
"3","3","encoding","encoding","87","Leaf_Clover.jpg","36","0","1263"
"3","3","encoding","encoding","88","Garlic_Clove.jpg","36","0","881"
"3","3","encoding","encoding","89","Bandage_Wrap.jpg","37","0","732"
"3","3","encoding","encoding","90","Harp.jpg","37","0","507"
"3","3","encoding","encoding","91","DogToy.jpg","37","0","777"
"3","3","encoding","encoding","92","Toy_Stroller.jpg","37","0","576"
"3","3","encoding","encoding","93","Lectern.jpg","37","0","927"
"3","3","encoding","encoding","94","Pillow_Heart.jpg","37","0","886"
"3","3","encoding","encoding","95","Pliers_NeedleNose.jpg","37","0","948"
"3","3","encoding","encoding","96","Computer_ExpansionCard.jpg","37","0","843"
"3","3","encoding","encoding","97","Battery_AA.jpg","37","0","898"
"3","3","encoding","encoding","98","IceCream_Chocolate.jpg","36","0","1400"
"3","3","encoding","encoding","99","Radio_Vintage.jpg","37","0","907"
"3","3","encoding","encoding","100","Can_GasSpout.jpg","37","0","586"
"3","3","encoding","encoding","101","Syrup_Maple.jpg","36","0","1512"
"3","3","encoding","encoding","102","CinderBlock.jpg","37","0","631"
"3","3","encoding","encoding","103","AmberWithMosquito.jpg","36","0","1533"
"3","3","encoding","encoding","104","IceCubes.jpg","36","0","1228"
"3","3","encoding","encoding","105","Machine_EKG.jpg","37","0","1035"
"3","3","encoding","encoding","106","LetterMail.jpg","37","0","617"
"3","3","encoding","encoding","107","Glass_Martini.jpg","37","0","664"
"3","3","encoding","encoding","108","Bag_Gym.jpg","37","0","567"
"3","3","encoding","encoding","109","Light_Halogen.jpg","37","0","566"
"3","3","encoding","encoding","110","Hotdog_Weiner.jpg","37","0","1777"
"3","3","encoding","encoding","111","Pancakes.jpg","37","0","1776"
"3","3","encoding","encoding","112","Chair_Student.jpg","37","0","1162"
"3","3","encoding","encoding","113","Broom_Long.jpg","37","0","905"
"3","3","encoding","encoding","114","Phone_Military.jpg","37","0","776"
"3","3","encoding","encoding","115","MetalChain.jpg","37","0","734"
"3","3","encoding","encoding","116","Toy_Moose.jpg","37","0","772"
"3","3","encoding","encoding","117","Hat_Baseball.jpg","37","0","659"
"3","3","encoding","encoding","118","Ostrich.jpg","36","0","618"
"3","3","encoding","encoding","119","Decoration_WallOrnament.jpg","36","0","708"
"3","3","encoding","encoding","120","Brace_Neck.jpg","37","0","850"
"3","3","encoding","encoding","121","Spoons_MeasuringDetached.jpg","37","0","761"
"3","3","encoding","encoding","123","AllTerrain.jpg","37","0","786"
"3","3","encoding","encoding","124","Keg.jpg","37","0","785"
"3","3","encoding","encoding","125","Toaster_MetalSleek.jpg","37","0","639"
"3","3","encoding","encoding","126","Nuts_PeanutsPeeled.jpg","36","0","1406"
"3","3","encoding","encoding","127","Window.jpg","37","0","740"
"3","3","encoding","encoding","128","Fork_Fondue.jpg","37","0","867"
"3","3","encoding","encoding","129","Cheesegrater_Handheld.jpg","37","0","761"
"3","3","encoding","encoding","130","Hook_Ceiling.jpg","37","0","736"
"3","3","encoding","encoding","131","Shirt_SportsJersey.jpg","37","0","775"
"3","3","encoding","encoding","132","Axe.jpg","37","0","905"
"3","3","encoding","encoding","133","Currants.jpg","36","0","1008"
"3","3","encoding","encoding","134","CashRegister_Antique.jpg","37","0","751"
"3","3","encoding","encoding","135","Pencil.jpg","37","0","1510"
"3","3","encoding","encoding","136","Potato.jpg","36","0","732"
"3","3","encoding","encoding","137","Milkshake_StrawberryStraw.jpg","37","0","1427"
"3","3","encoding","encoding","138","Hat_Party.jpg","37","0","1009"
"3","3","encoding","encoding","139","Swing_Child.jpg","37","0","959"
"3","3","encoding","encoding","140","Clarinet.jpg","37","0","886"
"3","3","encoding","encoding","141","CarLighter.jpg","37","0","1741"
"3","3","encoding","encoding","142","Spoon_Serving.jpg","37","0","1547"
"3","3","encoding","encoding","143","Nuts_Peanuts.jpg","36","0","913"
"3","3","encoding","encoding","144","Vase_EarthToned.jpg","37","0","876"
"3","3","encoding","encoding","145","FuseBox.jpg","37","0","962"
"3","3","encoding","encoding","146","Brush_Toilet.jpg","37","0","1517"
"3","3","encoding","encoding","147","Bag_Saline.jpg","0","0","2000"
"3","3","encoding","encoding","148","BicycleHandleGrip.jpg","37","0","975"
"3","3","encoding","encoding","149","PropellerFan.jpg","37","0","830"
"3","3","encoding","encoding","150","Pyramid.jpg","37","0","933"
"3","3","encoding","encoding","151","Kiwi.jpg","36","0","955"
"3","3","encoding","encoding","152","Seahorse.jpg","36","0","986"
"3","3","encoding","encoding","153","Dynamite.jpg","37","0","888"
"3","3","encoding","encoding","154","Tiara.jpg","37","0","814"
"3","3","encoding","encoding","155","Flower_Orchid.jpg","36","0","925"
"3","3","encoding","encoding","156","Ruler_Metal.jpg","37","0","908"
"3","3","encoding","encoding","157","Plate_Ceramic.jpg","37","0","730"
"3","3","encoding","encoding","158","Chair_Dining.jpg","37","0","792"
"3","3","encoding","encoding","159","Plate_Decorative.jpg","37","0","611"
"3","3","encoding","encoding","160","Cord_Ethernet.jpg","37","0","694"
"3","3","encoding","encoding","161","Snorkle.jpg","37","0","956"
"3","3","encoding","encoding","162","TubeRing.jpg","37","0","1019"
"3","3","encoding","encoding","163","Hook_Fishing.jpg","37","0","841"
"3","3","encoding","encoding","164","RollerBlade.jpg","37","0","719"
"3","3","encoding","encoding","165","Glass_Bowl.jpg","37","0","766"
"3","3","encoding","encoding","166","Wardrobe.jpg","37","0","756"
"3","3","encoding","encoding","167","Canister_Oil.jpg","37","0","902"
"3","3","encoding","encoding","168","USBKey.jpg","37","0","1077"
"3","3","encoding","encoding","169","Makeup_Eyeshadow.jpg","37","0","1035"
"3","3","encoding","encoding","170","Projector_Film.jpg","37","0","1018"
"3","3","encoding","encoding","171","Tree_Fir.jpg","36","0","672"
"3","3","encoding","encoding","172","Corn_Kernels.jpg","36","0","735"
"3","3","encoding","encoding","173","Toy_SeeSaw.jpg","37","0","662"
"3","3","encoding","encoding","174","SnowGlobe.jpg","37","0","1420"
"3","3","encoding","encoding","175","Egg_Cup.jpg","36","0","1722"
"3","3","encoding","encoding","176","Lens_ColourFilter.jpg","37","0","1089"
"3","3","encoding","encoding","177","CuttingBoard.jpg","37","0","1364"
"3","3","retrieval","old_objects","1","Peach.jpg","37","0","1513"
"3","3","retrieval","old_objects","2","IceCubes copy.jpg","36","1","891"
"3","3","retrieval","old_objects","3","Croissant.jpg","36","1","693"
"3","3","retrieval","new_objects","4","Light_Traffic.jpg","37","1","904"
"3","3","retrieval","new_objects","5","NetButterfly.jpg","36","0","930"
"3","3","retrieval","old_objects","6","DeepFryer.jpg","36","1","732"
"3","3","retrieval","new_objects","7","Stone_Spa.jpg","37","1","821"
"3","3","retrieval","new_objects","8","Sign_Wetfloor.jpg","37","1","1562"
"3","3","retrieval","new_objects","9","Boat_Dinghy.jpg","36","0","1530"
"3","3","retrieval","new_objects","10","DiaperChangingStation.jpg","36","0","964"
"3","3","retrieval","new_objects","11","Ghost.jpg","37","1","1235"
"3","3","retrieval","old_objects","12","DivingBoard.jpg","36","1","961"
"3","3","retrieval","new_objects","13","DentistOverheadLight.jpg","36","0","969"
"3","3","retrieval","old_objects","14","Keg.jpg","36","1","689"
"3","3","retrieval","new_objects","15","Hookah.jpg","36","0","1127"
"3","3","retrieval","old_objects","16","Torpedo.jpg","36","1","793"
"3","3","retrieval","new_objects","17","Thermos_MetalSleek.jpg","36","0","951"
"3","3","retrieval","old_objects","18","Dynamite.jpg","36","1","712"
"3","3","retrieval","old_objects","19","Bag_Gym.jpg","36","1","810"
"3","3","retrieval","old_objects","20","Barrel_Upright.jpg","36","1","784"
"3","3","retrieval","old_objects","21","MovieSlate.jpg","36","1","888"
"3","3","retrieval","new_objects","22","Shrub_Boxwood.jpg","37","1","859"
"3","3","retrieval","new_objects","23","Bag_Groceries.jpg","37","1","966"
"3","3","retrieval","old_objects","24","BearPolar.jpg","36","1","1014"
"3","3","retrieval","old_objects","25","Potato.jpg","36","1","764"
"3","3","retrieval","new_objects","26","Magnifying_Glass.jpg","37","1","1604"
"3","3","retrieval","old_objects","27","ElectricOutlet.jpg","36","1","859"
"3","3","retrieval","new_objects","28","Telephone_TinCan.jpg","36","0","1031"
"3","3","retrieval","new_objects","29","Dreidel.jpg","37","1","1124"
"3","3","retrieval","old_objects","30","Toy_SandRake.jpg","36","1","997"
"3","3","retrieval","new_objects","31","CoolingFan_Engine2.jpg","36","0","956"
"3","3","retrieval","new_objects","32","SoapBottle.jpg","36","0","1304"
"3","3","retrieval","old_objects","33","BicycleHandleGrip.jpg","36","1","947"
"3","3","retrieval","old_objects","34","Cheesegrater_Handheld.jpg","36","1","844"
"3","3","retrieval","new_objects","35","Hotdog_WithBun.jpg","37","1","904"
"3","3","retrieval","old_objects","36","Bird_Toucan.jpg","36","1","827"
"3","3","retrieval","old_objects","37","DVDPlayer.jpg","36","1","1160"
"3","3","retrieval","old_objects","38","Spoon_Serving.jpg","37","0","1480"
"3","3","retrieval","new_objects","39","Otoscope.jpg","36","0","1527"
"3","3","retrieval","new_objects","40","PostageStamps.jpg","37","1","1249"
"3","3","retrieval","new_objects","41","KnifeHolder.jpg","36","0","1174"
"3","3","retrieval","new_objects","42","Toy_Witch.jpg","37","1","885"
"3","3","retrieval","old_objects","43","Eggplant.jpg","36","1","992"
"3","3","retrieval","new_objects","44","Tickets_Blank.jpg","37","1","1071"
"3","3","retrieval","new_objects","45","Sign_Airport.jpg","37","1","770"
"3","3","retrieval","old_objects","46","CinderBlock.jpg","36","1","802"
"3","3","retrieval","old_objects","47","Tiara.jpg","36","1","889"
"3","3","retrieval","old_objects","48","Jug_GallonRed.jpg","36","1","943"
"3","3","retrieval","old_objects","49","Scorpion.jpg","36","1","848"
"3","3","retrieval","new_objects","50","Television.jpg","37","1","1004"
"3","3","retrieval","new_objects","51","Kettle.jpg","37","1","1499"
"3","3","retrieval","new_objects","52","Steamroller.jpg","37","1","838"
"3","3","retrieval","old_objects","53","Jars_PetFood.jpg","36","1","1155"
"3","3","retrieval","old_objects","54","Plate_Ceramic.jpg","36","1","835"
"3","3","retrieval","new_objects","55","Case_WoodenOrnate.jpg","36","0","889"
"3","3","retrieval","new_objects","56","Distaff.jpg","36","0","1083"
"3","3","retrieval","new_objects","57","LampPost_WhiteOrnate.jpg","36","0","895"
"3","3","retrieval","new_objects","58","Condom.jpg","37","1","1241"
"3","3","retrieval","new_objects","59","Chair_Rocking.jpg","36","0","1006"
"3","3","retrieval","old_objects","60","Cage_Bird.jpg","36","1","741"
"3","3","retrieval","new_objects","62","Altar.jpg","37","1","916"
"3","3","retrieval","old_objects","63","Clarinet.jpg","36","1","869"
"3","3","retrieval","new_objects","64","Horn_Hunting.jpg","36","0","1561"
"3","3","retrieval","old_objects","65","Plate_Decorative.jpg","37","0","938"
"3","3","retrieval","new_objects","66","BrainSagittal.jpg","37","1","1290"
"3","3","retrieval","new_objects","67","PickupTruck.jpg","37","1","861"
"3","3","retrieval","old_objects","68","Brace_Neck.jpg","36","1","1177"
"3","3","retrieval","new_objects","69","Eraser.jpg","37","1","972"
"3","3","retrieval","new_objects","70","SaltShaker.jpg","37","1","980"
"3","3","retrieval","old_objects","71","Brush_Toilet.jpg","36","1","859"
"3","3","retrieval","old_objects","72","Mousetrap.jpg","36","1","823"
"3","3","retrieval","old_objects","73","Frame_Oval.jpg","36","1","965"
"3","3","retrieval","new_objects","74","Decoration_Chinese.jpg","37","1","901"
"3","3","retrieval","new_objects","75","MonkeyPuppet.jpg","37","1","1528"
"3","3","retrieval","old_objects","76","DogToy.jpg","36","1","861"
"3","3","retrieval","new_objects","77","Cup_Fruits.jpg","37","1","1685"
"3","3","retrieval","old_objects","78","Chair_Dining.jpg","36","1","1096"
"3","3","retrieval","old_objects","79","Syrup_Maple.jpg","36","1","1075"
"3","3","retrieval","new_objects","80","Brush_Shoe.jpg","37","1","1406"
"3","3","retrieval","new_objects","81","Level.jpg","36","0","1300"
"3","3","retrieval","old_objects","82","Fork_Fondue.jpg","36","1","935"
"3","3","retrieval","old_objects","83","Pipe_Drain.jpg","36","1","808"
"3","3","retrieval","old_objects","84","PyramidWooden.jpg","36","1","782"
"3","3","retrieval","old_objects","85","Chair_MedicalToilet.jpg","37","0","1022"
"3","3","retrieval","new_objects","86","TimerKitchen.jpg","37","1","1227"
"3","3","retrieval","old_objects","87","Hat_Visor.jpg","37","0","1400"
"3","3","retrieval","new_objects","88","Notebook.jpg","37","1","1271"
"3","3","retrieval","new_objects","89","Grape.jpg","36","0","1538"
"3","3","retrieval","new_objects","90","OrigamiPaper.jpg","37","1","1631"
"3","3","retrieval","old_objects","91","Can_Gas.jpg","36","1","824"
"3","3","retrieval","old_objects","92","Chairs_Stacked.jpg","36","1","1290"
"3","3","retrieval","old_objects","93","Cow.jpg","36","1","949"
"3","3","retrieval","new_objects","94","Watch.jpg","37","1","901"
"3","3","retrieval","new_objects","95","Bullet.jpg","37","1","1272"
"3","3","retrieval","new_objects","96","Cup_Styrofoam.jpg","37","1","1587"
"3","3","retrieval","new_objects","97","LeafBlower.jpg","37","1","1386"
"3","3","retrieval","new_objects","98","Bottle_Blue.jpg","36","0","1042"
"3","3","retrieval","old_objects","99","Seahorse.jpg","36","1","710"
"3","3","retrieval","old_objects","100","CuttingBoard.jpg","36","1","1792"
"3","3","retrieval","new_objects","101","Sandcastle.jpg","37","1","1079"
"3","3","retrieval","new_objects","102","SpinningWheel.jpg","36","0","1122"
"3","3","retrieval","old_objects","103","Hat_Party.jpg","36","1","812"
"3","3","retrieval","new_objects","104","RamAnimal.jpg","37","1","833"
"3","3","retrieval","new_objects","105","Sign_HumpBridgeAhead.jpg","37","1","1135"
"3","3","retrieval","old_objects","106","Blade_Tablesaw.jpg","36","1","832"
"3","3","retrieval","old_objects","107","Hook_Fishing.jpg","36","1","782"
"3","3","retrieval","old_objects","108","MeatGrinder.jpg","36","1","925"
"3","3","retrieval","old_objects","109","Bicycle_Kids.jpg","37","0","1774"
"3","3","retrieval","old_objects","110","Gecko.jpg","36","1","930"
"3","3","retrieval","new_objects","111","CandleSnuffer.jpg","37","1","1975"
"3","3","retrieval","old_objects","112","Light_Halogen.jpg","36","1","994"
"3","3","retrieval","old_objects","113","Table_Poker.jpg","36","1","1305"
"3","3","retrieval","old_objects","114","Fence_Wooden.jpg","36","1","1136"
"3","3","retrieval","new_objects","115","Feet.jpg","37","1","885"
"3","3","retrieval","new_objects","116","DryingMachine.jpg","37","1","1256"
"3","3","retrieval","new_objects","117","Shoes_Sneakers.jpg","37","1","828"
"3","3","retrieval","new_objects","118","Harmonica.jpg","37","1","1289"
"3","3","retrieval","old_objects","119","OnionRed.jpg","36","1","653"
"3","3","retrieval","new_objects","120","Playdoh.jpg","37","1","1161"
"3","3","retrieval","new_objects","121","Bird_CanadianGoose.jpg","36","0","761"
"3","3","retrieval","old_objects","123","Ruler_Metal.jpg","36","1","1102"
"3","3","retrieval","new_objects","124","GogglesSwim.jpg","36","0","1401"
"3","3","retrieval","old_objects","125","EnglishMuffin.jpg","36","1","1072"
"3","3","retrieval","new_objects","126","LawnMower.jpg","37","1","859"
"3","3","retrieval","new_objects","127","Bat_Baseball.jpg","37","1","1019"
"3","3","retrieval","new_objects","128","ManholeCover.jpg","37","1","1097"
"3","3","retrieval","new_objects","129","Keychain_Leather.jpg","36","0","1252"
"3","3","retrieval","new_objects","130","AirCompressor.jpg","37","1","908"
"3","3","retrieval","old_objects","131","Phone_Military.jpg","37","0","1558"
"3","3","retrieval","old_objects","132","Radio_Vintage.jpg","36","1","862"
"3","3","retrieval","old_objects","133","Shield_Antique.jpg","36","1","754"
"3","3","retrieval","old_objects","134","Statue_Cat.jpg","36","1","771"
"3","3","retrieval","new_objects","135","HoseNozzle.jpg","36","0","1214"
"3","3","retrieval","old_objects","136","Funnel.jpg","36","1","1488"
"3","3","retrieval","old_objects","137","Computer_ExpansionCard.jpg","0","0","2000"
"3","3","retrieval","old_objects","138","Makeup_Eyeshadow.jpg","36","1","818"
"3","3","retrieval","new_objects","139","Mixer_Cement.jpg","37","1","656"
"3","3","retrieval","new_objects","140","Toy_RockingHorseBeige.jpg","36","0","776"
"3","3","retrieval","new_objects","141","Toys_Lego.jpg","37","1","823"
"3","3","retrieval","old_objects","142","Garlic_Clove.jpg","36","1","1029"
"3","3","retrieval","old_objects","143","Toy_Alien.jpg","36","1","1498"
"3","3","retrieval","new_objects","144","Sign_SpeedLimit30.jpg","37","1","877"
"3","3","retrieval","new_objects","145","KeyHook_Empty.jpg","37","1","1292"
"3","3","retrieval","old_objects","146","OperaGlasses.jpg","36","1","911"
"3","3","retrieval","old_objects","147","Shirt_SportsJersey.jpg","36","1","1057"
"3","3","retrieval","new_objects","148","Leek.jpg","36","0","861"
"3","3","retrieval","old_objects","149","CashRegister_Antique.jpg","36","1","865"
"3","3","retrieval","old_objects","150","PaintRoller.jpg","37","0","965"
"3","3","retrieval","new_objects","151","Noisemaker.jpg","37","1","1125"
"3","3","retrieval","new_objects","152","Suitcase.jpg","37","1","990"
"3","3","retrieval","old_objects","153","BicycleSeat.jpg","36","1","997"
"3","3","retrieval","old_objects","154","Pyramid.jpg","36","1","643"
"3","3","retrieval","new_objects","155","Ship_Model.jpg","36","0","924"
"3","3","retrieval","new_objects","156","ScannerShoplifting.jpg","37","1","901"
"3","3","retrieval","old_objects","157","Egg_Chocolate.jpg","36","1","1152"
"3","3","retrieval","old_objects","158","Leaf_Clover.jpg","36","1","1065"
"3","3","retrieval","old_objects","159","Milkshake_StrawberryStraw.jpg","36","1","957"
"3","3","retrieval","old_objects","160","Glass_Martini.jpg","36","1","829"
"3","3","retrieval","new_objects","161","Pouch_PotPourri.jpg","37","1","842"
"3","3","retrieval","new_objects","162","Sculpture_MetalMan.jpg","36","0","999"
"3","3","retrieval","old_objects","163","Decoration_WallOrnament.jpg","36","1","893"
"3","3","retrieval","new_objects","164","ChainRusty.jpg","37","1","920"
"3","3","retrieval","old_objects","165","LampPost_ThreeBulbs.jpg","36","1","1098"
"3","3","retrieval","old_objects","166","Pillow_Heart.jpg","36","1","1037"
"3","3","retrieval","new_objects","167","Flower_Daisy.jpg","37","1","1317"
"3","3","retrieval","new_objects","168","ProcessorFood_Old.jpg","37","1","1488"
"3","3","retrieval","old_objects","169","Swing_Child.jpg","36","1","883"
"3","3","retrieval","old_objects","170","Heater_Infrared.jpg","36","1","1310"
"3","3","retrieval","new_objects","171","Suit_Women.jpg","37","1","784"
"3","3","retrieval","old_objects","172","TubeRing.jpg","36","1","784"
"3","3","retrieval","new_objects","173","Backhoe.jpg","37","1","1359"
"3","3","retrieval","old_objects","174","Stroller.jpg","36","1","1439"
"3","3","retrieval","new_objects","175","MeatRaw.jpg","37","1","1243"
"3","3","retrieval","new_objects","176","Shoe_Pink.jpg","37","1","744"
"3","3","retrieval","old_objects","177","RollerBlade.jpg","36","1","841"
"3","3","retrieval","old_objects","178","Phone_Public.jpg","36","1","718"
"3","3","retrieval","new_objects","179","Celery.jpg","36","0","664"
"3","3","retrieval","old_objects","180","AmberWithMosquito.jpg","36","1","827"
"3","3","retrieval","new_objects","181","Rock_Agate.jpg","37","1","777"
"3","3","retrieval","new_objects","182","DryRack_Dishes.jpg","37","1","936"
"3","3","retrieval","new_objects","184","Kangaroo.jpg","36","0","1068"
"3","3","retrieval","old_objects","185","Swan.jpg","36","1","664"
"3","3","retrieval","new_objects","186","CraneMachine.jpg","37","1","940"
"3","3","retrieval","old_objects","187","Pliers_NeedleNose.jpg","36","1","937"
"3","3","retrieval","new_objects","188","Dill.jpg","36","0","1050"
"3","3","retrieval","old_objects","189","Light_Studio.jpg","36","1","1174"
"3","3","retrieval","new_objects","190","ButterChurn.jpg","36","0","1134"
"3","3","retrieval","new_objects","191","TowelRack_Metal.jpg","36","0","1063"
"3","3","retrieval","new_objects","192","Glass_bottle.jpg","37","1","779"
"3","3","retrieval","new_objects","193","Staircase_Straight.jpg","37","1","682"
"3","3","retrieval","old_objects","194","Canister_Oil.jpg","36","1","758"
"3","3","retrieval","new_objects","195","HairBand.jpg","36","0","1654"
"3","3","retrieval","old_objects","196","Sink_Bathroom.jpg","36","1","1066"
"3","3","retrieval","new_objects","197","Toy_DonkeyPlastic.jpg","37","1","790"
"3","3","retrieval","new_objects","198","Toy_Shapesorter.jpg","37","1","925"
"3","3","retrieval","new_objects","199","Mug_Beer.jpg","37","1","798"
"3","3","retrieval","old_objects","200","PropellerFan.jpg","36","1","981"
"3","3","retrieval","new_objects","201","Clamp.jpg","36","0","1116"
"3","3","retrieval","old_objects","202","Hat_Baseball.jpg","37","0","782"
"3","3","retrieval","new_objects","203","Bolt_WithNut.jpg","37","1","1150"
"3","3","retrieval","old_objects","204","Bandage_Wrap.jpg","36","1","1098"
"3","3","retrieval","new_objects","205","Tweezers.jpg","37","1","949"
"3","3","retrieval","old_objects","206","Kiwi.jpg","36","1","1165"
"3","3","retrieval","new_objects","207","GuineaPig.jpg","37","1","1246"
"3","3","retrieval","old_objects","208","USBKey.jpg","36","1","1282"
"3","3","retrieval","old_objects","209","Snorkle.jpg","36","1","790"
"3","3","retrieval","old_objects","210","Door_Blue.jpg","36","1","861"
"3","3","retrieval","old_objects","211","ClothRed.jpg","37","0","857"
"3","3","retrieval","new_objects","212","Brush_Paint.jpg","37","1","1373"
"3","3","retrieval","old_objects","213","IceCubes.jpg","36","1","733"
"3","3","retrieval","new_objects","214","Stove_WithOven.jpg","37","1","1766"
"3","3","retrieval","old_objects","215","Lipstick.jpg","36","1","1174"
"3","3","retrieval","new_objects","216","Scoop_Flour.jpg","37","1","1214"
"3","3","retrieval","new_objects","217","HerbsInBag.jpg","36","0","1155"
"3","3","retrieval","old_objects","218","Glass_Bowl.jpg","36","1","1212"
"3","3","retrieval","new_objects","219","Mat_Door.jpg","37","1","785"
"3","3","retrieval","new_objects","220","Tube.jpg","37","1","1324"
"3","3","retrieval","new_objects","221","Man.jpg","37","1","861"
"3","3","retrieval","new_objects","222","Fork_Regular.jpg","36","0","1273"
"3","3","retrieval","old_objects","223","Cucumber.jpg","36","1","773"
"3","3","retrieval","old_objects","224","AllTerrain.jpg","36","1","1396"
"3","3","retrieval","new_objects","225","Flask_Metal.jpg","37","1","1363"
"3","3","retrieval","old_objects","226","Bag_Saline.jpg","36","1","1019"
"3","3","retrieval","old_objects","227","Pot_FlowerClay.jpg","37","0","985"
"3","3","retrieval","old_objects","228","Battery_AA.jpg","36","1","944"
"3","3","retrieval","new_objects","229","Bottle_Spray.jpg","37","1","1409"
"3","3","retrieval","old_objects","230","Window.jpg","37","0","1103"
"3","3","retrieval","old_objects","231","Tree_Fir.jpg","36","1","857"
"3","3","retrieval","old_objects","232","Harp.jpg","36","1","838"
"3","3","retrieval","old_objects","233","Dog_CockerSpaniel.jpg","36","1","1131"
"3","3","retrieval","new_objects","234","Goose_Canadian.jpg","37","1","1448"
"3","3","retrieval","new_objects","235","FuzzyDice.jpg","37","1","1301"
"3","3","retrieval","old_objects","236","Nuts_PeanutsPeeled.jpg","36","1","848"
"3","3","retrieval","new_objects","237","Paratrooper.jpg","37","1","1060"
"3","3","retrieval","new_objects","238","SoundMixer_White.jpg","37","1","1032"
"3","3","retrieval","old_objects","239","Bag_Doctor.jpg","36","1","1126"
"3","3","retrieval","new_objects","240","GPS.jpg","37","1","1575"
"3","3","retrieval","old_objects","241","FuseBox.jpg","36","1","1334"
"3","3","retrieval","old_objects","242","ColoringSet.jpg","36","1","888"
"3","3","retrieval","old_objects","243","Can_Oblong.jpg","36","1","1295"
"3","3","retrieval","new_objects","245","Lettuce_Iceberg.jpg","36","0","1152"
"3","3","retrieval","old_objects","246","Skates.jpg","36","1","1177"
"3","3","retrieval","old_objects","247","Vase_EarthToned.jpg","36","1","992"
"3","3","retrieval","old_objects","248","Ball_Football.jpg","36","1","783"
"3","3","retrieval","old_objects","249","Cord_Ethernet.jpg","36","1","1230"
"3","3","retrieval","old_objects","250","Can_GasSpout.jpg","37","0","1099"
"3","3","retrieval","old_objects","251","CarLighter.jpg","37","0","1262"
"3","3","retrieval","new_objects","252","MannequinBust.jpg","37","1","842"
"3","3","retrieval","new_objects","253","sign_traffic.jpg","37","1","983"
"3","3","retrieval","old_objects","254","Keyhole.jpg","36","1","838"
"3","3","retrieval","old_objects","255","LetterMail.jpg","36","1","876"
"3","3","retrieval","old_objects","256","Axe.jpg","36","1","843"
"3","3","retrieval","new_objects","257","Pickle.jpg","36","0","855"
"3","3","retrieval","new_objects","258","Lychee.jpg","37","1","1108"
"3","3","retrieval","new_objects","259","Bat_Cricket.jpg","37","1","1653"
"3","3","retrieval","new_objects","260","Toy_DollHomeMade.jpg","37","1","1202"
"3","3","retrieval","old_objects","261","Toy_Moose.jpg","37","0","1473"
"3","3","retrieval","old_objects","262","Tape_Dispenser.jpg","36","1","1745"
"3","3","retrieval","new_objects","263","Seashell_RoseMurex.jpg","37","1","841"
"3","3","retrieval","old_objects","264","Boat_Row.jpg","36","1","1598"
"3","3","retrieval","new_objects","265","Chicken_FriedWing.jpg","37","1","965"
"3","3","retrieval","old_objects","266","Corn_Kernels.jpg","36","1","893"
"3","3","retrieval","new_objects","267","Boat_Trailer.jpg","37","1","1351"
"3","3","retrieval","old_objects","268","Currants.jpg","36","1","1112"
"3","3","retrieval","old_objects","269","Hose_Garden.jpg","36","1","802"
"3","3","retrieval","old_objects","270","DormerWindow.jpg","37","0","1313"
"3","3","retrieval","new_objects","271","OnionRings.jpg","37","1","923"
"3","3","retrieval","new_objects","272","Sign_SpeedLimit25.jpg","37","1","892"
"3","3","retrieval","new_objects","273","Pipe_Pitch.jpg","0","0","2000"
"3","3","retrieval","old_objects","274","Jacks.jpg","37","0","22"
"3","3","retrieval","old_objects","275","Nuts_Peanuts.jpg","36","1","683"
"3","3","retrieval","new_objects","276","RecorderCassette.jpg","36","0","1331"
"3","3","retrieval","new_objects","277","Bus_School.jpg","37","1","732"
"3","3","retrieval","new_objects","278","VialLab.jpg","37","1","1062"
"3","3","retrieval","new_objects","279","Toy_BlocksLetter.jpg","37","1","1010"
"3","3","retrieval","old_objects","280","Machine_EKG.jpg","36","1","1424"
"3","3","retrieval","new_objects","281","Pasta_Fusilli.jpg","37","1","1053"
"3","3","retrieval","new_objects","282","Bed_Hospital.jpg","37","1","706"
"3","3","retrieval","old_objects","283","Snowboard.jpg","36","1","1108"
"3","3","retrieval","new_objects","284","RickShaw.jpg","37","1","710"
"3","3","retrieval","new_objects","285","Mug_Travel.jpg","37","1","912"
"3","3","retrieval","old_objects","286","Broom_Long.jpg","36","1","1066"
"3","3","retrieval","old_objects","287","Spoon_Baby.jpg","36","1","822"
"3","3","retrieval","old_objects","288","GasStation.jpg","36","1","896"
"3","3","retrieval","old_objects","289","Jar_Honey.jpg","36","1","1059"
"3","3","retrieval","new_objects","290","Razor.jpg","37","1","767"
"3","3","retrieval","new_objects","291","ElectricSwitchboard.jpg","36","0","1087"
"3","3","retrieval","new_objects","292","Steeple.jpg","37","1","786"
"3","3","retrieval","old_objects","293","Chair_Student.jpg","36","1","770"
"3","3","retrieval","old_objects","294","Stool_Metal.jpg","36","1","801"
"3","3","retrieval","new_objects","295","Hand.jpg","37","1","808"
"3","3","retrieval","new_objects","296","Cooler.jpg","37","1","846"
"3","3","retrieval","old_objects","297","Egg_Cup.jpg","36","1","891"
"3","3","retrieval","new_objects","298","Vest.jpg","37","1","786"
"3","3","retrieval","new_objects","299","Licorice.jpg","37","1","1017"
"3","3","retrieval","new_objects","300","Basket_Bread.jpg","37","1","815"
"3","3","retrieval","old_objects","301","Toy_Stroller.jpg","36","1","1101"
"3","3","retrieval","new_objects","302","Bomb.jpg","37","1","976"
"3","3","retrieval","old_objects","303","Toaster_MetalSleek.jpg","36","1","863"
"3","3","retrieval","old_objects","304","Lens_ColourFilter.jpg","36","1","1243"
"3","3","retrieval","new_objects","306","Skirt_Long.jpg","36","0","508"
"3","3","retrieval","old_objects","307","Tire_Hollow.jpg","36","1","1101"
"3","3","retrieval","old_objects","308","Projector_Film.jpg","36","1","888"
"3","3","retrieval","old_objects","309","Wardrobe.jpg","36","1","1060"
"3","3","retrieval","old_objects","310","Pancakes.jpg","36","1","960"
"3","3","retrieval","new_objects","311","PeasSplit.jpg","37","1","1204"
"3","3","retrieval","old_objects","312","Hotdog_Weiner.jpg","36","1","1090"
"3","3","retrieval","old_objects","313","Sign_Taxi.jpg","37","0","885"
"3","3","retrieval","new_objects","314","Shoes_Pumps.jpg","37","1","968"
"3","3","retrieval","old_objects","315","Hook_Ceiling.jpg","36","1","936"
"3","3","retrieval","new_objects","316","Headset.jpg","37","1","1129"
"3","3","retrieval","old_objects","317","Table_Side.jpg","36","1","923"
"3","3","retrieval","old_objects","318","Pencil.jpg","36","1","749"
"3","3","retrieval","old_objects","319","SnowGlobe.jpg","36","1","805"
"3","3","retrieval","new_objects","320","Plate_Wooden.jpg","37","1","880"
"3","3","retrieval","new_objects","321","RemoteControl.jpg","37","1","931"
"3","3","retrieval","old_objects","322","MetalChain.jpg","36","1","892"
"3","3","retrieval","new_objects","323","Shoes_WomenBoots.jpg","37","1","1231"
"3","3","retrieval","old_objects","324","Ruler_Triangle.jpg","36","1","948"
"3","3","retrieval","new_objects","325","Bottle_Plastic.jpg","37","1","989"
"3","3","retrieval","old_objects","326","BabyMonitor.jpg","37","0","1220"
"3","3","retrieval","new_objects","327","Grill_Electric.jpg","36","0","1931"
"3","3","retrieval","new_objects","328","PaintSprayer.jpg","36","0","1203"
"3","3","retrieval","new_objects","329","Ramekin.jpg","37","1","1162"
"3","3","retrieval","old_objects","330","Spoons_MeasuringDetached.jpg","36","1","978"
"3","3","retrieval","new_objects","331","Fossil.jpg","36","0","1738"
"3","3","retrieval","new_objects","332","WaterColorPaintset.jpg","36","0","1590"
"3","3","retrieval","new_objects","333","Can_Peas.jpg","37","1","969"
"3","3","retrieval","old_objects","334","Toy_ElephantPlastic.jpg","37","0","1185"
"3","3","retrieval","old_objects","335","Flower_Orchid.jpg","37","0","920"
"3","3","retrieval","new_objects","336","Umbrella_Classic.jpg","37","1","862"
"3","3","retrieval","new_objects","337","Igloo.jpg","37","1","874"
"3","3","retrieval","old_objects","338","BicycleReflector.jpg","37","0","957"
"3","3","retrieval","old_objects","339","Toy_SeeSaw.jpg","36","1","901"
"3","3","retrieval","old_objects","340","CartonEggs.jpg","36","1","1016"
"3","3","retrieval","new_objects","341","Drum_Ramadan.jpg","37","1","1094"
"3","3","retrieval","old_objects","342","Fruit_Cactus.jpg","36","1","1121"
"3","3","retrieval","new_objects","343","Jar_Cookie.jpg","37","1","922"
"3","3","retrieval","new_objects","344","Exercise_HandTrainer.jpg","37","1","812"
"3","3","retrieval","old_objects","345","IceCream_Chocolate.jpg","36","1","1081"
"3","3","retrieval","old_objects","346","Exercise_Stepper.jpg","37","0","1565"
"3","3","retrieval","old_objects","347","JukeboxAntique.jpg","36","1","925"
"3","3","retrieval","old_objects","348","Statue_Man.jpg","36","1","806"
"3","3","retrieval","old_objects","349","Lectern.jpg","36","1","901"
"3","3","retrieval","new_objects","350","Table_Conference.jpg","37","1","927"
"3","3","retrieval","new_objects","351","NewspaperStack.jpg","37","1","1065"
"3","3","retrieval","old_objects","352","Toaster_Antique.jpg","37","0","1061"
"3","3","retrieval","new_objects","353","Trowel.jpg","37","1","973"
"3","3","retrieval","new_objects","354","MouthGuard.jpg","36","0","1356"
"3","3","retrieval","old_objects","355","Ostrich.jpg","36","1","821"
"3","3","demographics_block","gender","1","Ostrich.jpg","male","1","16758"
"3","3","demographics_block","age","1","Ostrich.jpg","50","1","16758"
"3","3","demographics_block","education","1","Ostrich.jpg","16","1","16758"
"3","3","demographics_block","left_right_handed","2","Ostrich.jpg","Right","1","7768"
"3","3","demographics_block","raceoption1","2","Ostrich.jpg","0","1","7768"
"3","3","demographics_block","raceoption2","2","Ostrich.jpg","","1","7768"
"3","3","demographics_block","raceoption3","2","Ostrich.jpg","","1","7768"
"3","3","demographics_block","raceoption4","2","Ostrich.jpg","","1","7768"
"3","3","demographics_block","raceoption5","2","Ostrich.jpg","","1","7768"
"3","3","demographics_block","raceoption6","2","Ostrich.jpg","","1","7768"
"3","3","demographics_block","raceoption7","2","Ostrich.jpg","","1","7768"
"3","3","demographics_block","raceoption8","2","Ostrich.jpg","","1","7768"
"3","3","demographics_block","raceoption9","2","Ostrich.jpg","","1","7768"
"3","3","demographics_block","raceother","2","Ostrich.jpg","","1","7768"
"3","3","demographics_block","raceother","2","Ostrich.jpg","","1","7768"
"3","3","demographics_block","english_language","2","Ostrich.jpg","Yes","1","7768"
"3","3","demographics_block","english_languageother","2","Ostrich.jpg","","1","7768"
"3","3","demographics_block","eyesight","3","Ostrich.jpg","Yes","1","7615"
"3","3","demographics_block","colorblind","3","Ostrich.jpg","No","1","7615"
"3","3","worker_id_block","worker_id_textbox","1","Ostrich.jpg","AQOXSP4W3ITSW","1","5314"
"4","4","encoding","encoding","1","Leaf_Clover.jpg","0","0","2000"
"4","4","encoding","encoding","2","Projector_Film.jpg","37","0","799"
"4","4","encoding","encoding","3","Pyramid.jpg","37","0","1004"
"4","4","encoding","encoding","4","Spoon_Baby.jpg","37","0","896"
"4","4","encoding","encoding","5","Keyhole.jpg","37","0","606"
"4","4","encoding","encoding","6","Battery_AA.jpg","37","0","851"
"4","4","encoding","encoding","7","Pliers_NeedleNose.jpg","37","0","820"
"4","4","encoding","encoding","8","Lens_ColourFilter.jpg","37","0","893"
"4","4","encoding","encoding","9","Cow.jpg","36","0","580"
"4","4","encoding","encoding","10","Broom_Long.jpg","37","0","652"
"4","4","encoding","encoding","11","Glass_Martini.jpg","37","0","639"
"4","4","encoding","encoding","12","Pipe_Drain.jpg","37","0","649"
"4","4","encoding","encoding","13","CashRegister_Antique.jpg","37","0","688"
"4","4","encoding","encoding","14","Dog_CockerSpaniel.jpg","36","0","678"
"4","4","encoding","encoding","15","SnowGlobe.jpg","37","0","823"
"4","4","encoding","encoding","16","MeatGrinder.jpg","37","0","942"
"4","4","encoding","encoding","17","Toy_ElephantPlastic.jpg","37","0","681"
"4","4","encoding","encoding","18","Table_Poker.jpg","37","0","631"
"4","4","encoding","encoding","19","Hose_Garden.jpg","37","0","531"
"4","4","encoding","encoding","20","DormerWindow.jpg","37","0","677"
"4","4","encoding","encoding","21","Blade_Tablesaw.jpg","37","0","624"
"4","4","encoding","encoding","22","PyramidWooden.jpg","37","0","573"
"4","4","encoding","encoding","23","Statue_Cat.jpg","37","0","836"
"4","4","encoding","encoding","24","Sign_Taxi.jpg","37","0","988"
"4","4","encoding","encoding","25","LetterMail.jpg","37","0","868"
"4","4","encoding","encoding","26","BicycleReflector.jpg","37","0","1066"
"4","4","encoding","encoding","27","Tree_Fir.jpg","36","0","1208"
"4","4","encoding","encoding","28","Corn_Kernels.jpg","36","0","1018"
"4","4","encoding","encoding","29","FuseBox.jpg","37","0","709"
"4","4","encoding","encoding","30","Snorkle.jpg","37","0","665"
"4","4","encoding","encoding","31","Nuts_Peanuts.jpg","36","0","725"
"4","4","encoding","encoding","32","Egg_Cup.jpg","36","0","770"
"4","4","encoding","encoding","33","EnglishMuffin.jpg","36","0","957"
"4","4","encoding","encoding","34","Chair_Student.jpg","37","0","582"
"4","4","encoding","encoding","35","Flower_Orchid.jpg","36","0","1042"
"4","4","encoding","encoding","36","Cord_Ethernet.jpg","37","0","637"
"4","4","encoding","encoding","37","Bicycle_Kids.jpg","37","0","643"
"4","4","encoding","encoding","38","Boat_Row.jpg","37","0","853"
"4","4","encoding","encoding","39","Can_GasSpout.jpg","37","0","673"
"4","4","encoding","encoding","40","Dynamite.jpg","37","0","670"
"4","4","encoding","encoding","41","Frame_Oval.jpg","37","0","607"
"4","4","encoding","encoding","42","CarLighter.jpg","37","0","767"
"4","4","encoding","encoding","43","Plate_Ceramic.jpg","37","0","995"
"4","4","encoding","encoding","44","IceCubes copy.jpg","36","0","1045"
"4","4","encoding","encoding","45","Bag_Saline.jpg","37","0","782"
"4","4","encoding","encoding","46","Plate_Decorative.jpg","37","0","597"
"4","4","encoding","encoding","47","Gecko.jpg","36","0","700"
"4","4","encoding","encoding","48","Radio_Vintage.jpg","37","0","534"
"4","4","encoding","encoding","49","Barrel_Upright.jpg","37","0","800"
"4","4","encoding","encoding","50","MetalChain.jpg","37","0","960"
"4","4","encoding","encoding","51","Spoons_MeasuringDetached.jpg","37","0","793"
"4","4","encoding","encoding","52","Light_Studio.jpg","37","0","668"
"4","4","encoding","encoding","53","Torpedo.jpg","37","0","660"
"4","4","encoding","encoding","54","Chairs_Stacked.jpg","37","0","605"
"4","4","encoding","encoding","55","DVDPlayer.jpg","37","0","688"
"4","4","encoding","encoding","56","JukeboxAntique.jpg","37","0","614"
"4","4","encoding","encoding","57","Tiara.jpg","37","0","728"
"4","4","encoding","encoding","58","Axe.jpg","37","0","607"
"4","4","encoding","encoding","59","Can_Oblong.jpg","37","0","614"
"4","4","encoding","encoding","60","Hook_Fishing.jpg","37","0","758"
"4","4","encoding","encoding","62","Pencil.jpg","37","0","563"
"4","4","encoding","encoding","63","Canister_Oil.jpg","37","0","536"
"4","4","encoding","encoding","64","Funnel.jpg","37","0","609"
"4","4","encoding","encoding","65","AmberWithMosquito.jpg","37","0","1266"
"4","4","encoding","encoding","66","Stool_Metal.jpg","37","0","661"
"4","4","encoding","encoding","67","Ruler_Metal.jpg","37","0","917"
"4","4","encoding","encoding","68","Kiwi.jpg","36","0","715"
"4","4","encoding","encoding","69","Seahorse.jpg","36","0","819"
"4","4","encoding","encoding","70","OnionRed.jpg","36","0","1654"
"4","4","encoding","encoding","71","OperaGlasses.jpg","37","0","605"
"4","4","encoding","encoding","72","BicycleHandleGrip.jpg","37","0","799"
"4","4","encoding","encoding","73","Toy_SandRake.jpg","37","0","707"
"4","4","encoding","encoding","74","Scorpion.jpg","36","0","806"
"4","4","encoding","encoding","75","Toy_Moose.jpg","37","0","843"
"4","4","encoding","encoding","76","Toy_SeeSaw.jpg","37","0","583"
"4","4","encoding","encoding","77","Lipstick.jpg","37","0","583"
"4","4","encoding","encoding","78","Cage_Bird.jpg","37","0","683"
"4","4","encoding","encoding","79","Jacks.jpg","37","0","577"
"4","4","encoding","encoding","80","ColoringSet.jpg","37","0","767"
"4","4","encoding","encoding","81","Bandage_Wrap.jpg","37","0","763"
"4","4","encoding","encoding","82","Hotdog_Weiner.jpg","36","0","905"
"4","4","encoding","encoding","83","Phone_Public.jpg","37","0","954"
"4","4","encoding","encoding","84","Bag_Gym.jpg","37","0","598"
"4","4","encoding","encoding","85","Table_Side.jpg","37","0","788"
"4","4","encoding","encoding","86","Harp.jpg","37","0","637"
"4","4","encoding","encoding","87","MovieSlate.jpg","37","0","667"
"4","4","encoding","encoding","88","CinderBlock.jpg","37","0","601"
"4","4","encoding","encoding","89","Phone_Military.jpg","37","0","644"
"4","4","encoding","encoding","90","Brush_Toilet.jpg","37","0","600"
"4","4","encoding","encoding","91","Toy_Alien.jpg","37","0","611"
"4","4","encoding","encoding","92","Computer_ExpansionCard.jpg","37","0","1031"
"4","4","encoding","encoding","93","Tape_Dispenser.jpg","37","0","804"
"4","4","encoding","encoding","94","CuttingBoard.jpg","37","0","772"
"4","4","encoding","encoding","95","Croissant.jpg","36","0","927"
"4","4","encoding","encoding","96","Toaster_MetalSleek.jpg","37","0","1421"
"4","4","encoding","encoding","97","Tire_Hollow.jpg","37","0","924"
"4","4","encoding","encoding","98","Hat_Visor.jpg","37","0","574"
"4","4","encoding","encoding","99","DogToy.jpg","37","0","567"
"4","4","encoding","encoding","100","ClothRed.jpg","37","0","690"
"4","4","encoding","encoding","101","Vase_EarthToned.jpg","37","0","696"
"4","4","encoding","encoding","102","CartonEggs.jpg","36","0","1024"
"4","4","encoding","encoding","103","Jug_GallonRed.jpg","37","0","606"
"4","4","encoding","encoding","104","Pancakes.jpg","37","0","1156"
"4","4","encoding","encoding","105","Toy_Stroller.jpg","37","0","630"
"4","4","encoding","encoding","106","Jar_Honey.jpg","36","0","1646"
"4","4","encoding","encoding","107","Fruit_Cactus.jpg","36","0","905"
"4","4","encoding","encoding","108","Stroller.jpg","37","0","680"
"4","4","encoding","encoding","109","Chair_Dining.jpg","37","0","711"
"4","4","encoding","encoding","110","GasStation.jpg","37","0","892"
"4","4","encoding","encoding","111","Machine_EKG.jpg","37","0","1028"
"4","4","encoding","encoding","112","Currants.jpg","36","0","848"
"4","4","encoding","encoding","113","Nuts_PeanutsPeeled.jpg","36","0","907"
"4","4","encoding","encoding","114","Swan.jpg","37","0","1641"
"4","4","encoding","encoding","115","ElectricOutlet.jpg","37","0","759"
"4","4","encoding","encoding","116","Door_Blue.jpg","37","0","695"
"4","4","encoding","encoding","117","Clarinet.jpg","37","0","735"
"4","4","encoding","encoding","118","BearPolar.jpg","36","0","832"
"4","4","encoding","encoding","119","PropellerFan.jpg","37","0","706"
"4","4","encoding","encoding","120","Peach.jpg","36","0","663"
"4","4","encoding","encoding","121","Hook_Ceiling.jpg","37","0","631"
"4","4","encoding","encoding","123","Bag_Doctor.jpg","37","0","557"
"4","4","encoding","encoding","124","Cucumber.jpg","36","0","637"
"4","4","encoding","encoding","125","Fork_Fondue.jpg","37","0","884"
"4","4","encoding","encoding","126","Garlic_Clove.jpg","36","0","838"
"4","4","encoding","encoding","127","Jars_PetFood.jpg","37","0","1308"
"4","4","encoding","encoding","128","BicycleSeat.jpg","37","0","905"
"4","4","encoding","encoding","129","BabyMonitor.jpg","37","0","742"
"4","4","encoding","encoding","130","Ruler_Triangle.jpg","37","0","803"
"4","4","encoding","encoding","131","Lectern.jpg","37","0","682"
"4","4","encoding","encoding","132","Ostrich.jpg","36","0","899"
"4","4","encoding","encoding","133","IceCream_Chocolate.jpg","36","0","954"
"4","4","encoding","encoding","134","USBKey.jpg","37","0","640"
"4","4","encoding","encoding","135","Makeup_Eyeshadow.jpg","37","0","783"
"4","4","encoding","encoding","136","Bird_Toucan.jpg","36","0","810"
"4","4","encoding","encoding","137","PaintRoller.jpg","37","0","720"
"4","4","encoding","encoding","138","LampPost_ThreeBulbs.jpg","37","0","623"
"4","4","encoding","encoding","139","Glass_Bowl.jpg","37","0","720"
"4","4","encoding","encoding","140","Decoration_WallOrnament.jpg","37","0","1249"
"4","4","encoding","encoding","141","Statue_Man.jpg","37","0","578"
"4","4","encoding","encoding","142","Mousetrap.jpg","37","0","614"
"4","4","encoding","encoding","143","Hat_Baseball.jpg","37","0","646"
"4","4","encoding","encoding","144","Potato.jpg","36","0","746"
"4","4","encoding","encoding","145","Pillow_Heart.jpg","37","0","754"
"4","4","encoding","encoding","146","Milkshake_StrawberryStraw.jpg","37","0","1010"
"4","4","encoding","encoding","147","Can_Gas.jpg","37","0","704"
"4","4","encoding","encoding","148","IceCubes.jpg","37","0","1025"
"4","4","encoding","encoding","149","AllTerrain.jpg","37","0","623"
"4","4","encoding","encoding","150","Eggplant.jpg","36","0","603"
"4","4","encoding","encoding","151","Snowboard.jpg","37","0","815"
"4","4","encoding","encoding","152","Cheesegrater_Handheld.jpg","37","0","592"
"4","4","encoding","encoding","153","Wardrobe.jpg","37","0","559"
"4","4","encoding","encoding","154","Sink_Bathroom.jpg","37","0","644"
"4","4","encoding","encoding","155","Skates.jpg","37","0","631"
"4","4","encoding","encoding","156","Chair_MedicalToilet.jpg","37","0","534"
"4","4","encoding","encoding","157","DivingBoard.jpg","37","0","903"
"4","4","encoding","encoding","158","Keg.jpg","37","0","568"
"4","4","encoding","encoding","159","DeepFryer.jpg","37","0","561"
"4","4","encoding","encoding","160","Swing_Child.jpg","37","0","423"
"4","4","encoding","encoding","161","Heater_Infrared.jpg","37","0","513"
"4","4","encoding","encoding","162","RollerBlade.jpg","37","0","529"
"4","4","encoding","encoding","163","Spoon_Serving.jpg","37","0","613"
"4","4","encoding","encoding","164","TubeRing.jpg","37","0","497"
"4","4","encoding","encoding","165","Ball_Football.jpg","37","0","466"
"4","4","encoding","encoding","166","Window.jpg","37","0","542"
"4","4","encoding","encoding","167","Fence_Wooden.jpg","37","0","526"
"4","4","encoding","encoding","168","Exercise_Stepper.jpg","37","0","583"
"4","4","encoding","encoding","169","Toaster_Antique.jpg","37","0","614"
"4","4","encoding","encoding","170","Egg_Chocolate.jpg","36","0","671"
"4","4","encoding","encoding","171","Shield_Antique.jpg","37","0","637"
"4","4","encoding","encoding","172","Hat_Party.jpg","37","0","712"
"4","4","encoding","encoding","173","Syrup_Maple.jpg","37","0","960"
"4","4","encoding","encoding","174","Light_Halogen.jpg","37","0","688"
"4","4","encoding","encoding","175","Shirt_SportsJersey.jpg","37","0","609"
"4","4","encoding","encoding","176","Pot_FlowerClay.jpg","37","0","679"
"4","4","encoding","encoding","177","Brace_Neck.jpg","37","0","779"
"4","4","retrieval","old_objects","1","Jacks.jpg","36","1","1263"
"4","4","retrieval","old_objects","2","Stroller.jpg","36","1","709"
"4","4","retrieval","old_objects","3","Fruit_Cactus.jpg","36","1","884"
"4","4","retrieval","old_objects","4","Hat_Party.jpg","36","1","608"
"4","4","retrieval","new_objects","5","HoseNozzle.jpg","36","0","690"
"4","4","retrieval","new_objects","6","Decoration_Chinese.jpg","37","1","684"
"4","4","retrieval","old_objects","7","Syrup_Maple.jpg","36","1","683"
"4","4","retrieval","old_objects","8","RollerBlade.jpg","36","1","618"
"4","4","retrieval","new_objects","9","Light_Traffic.jpg","36","0","716"
"4","4","retrieval","old_objects","10","Hotdog_Weiner.jpg","36","1","768"
"4","4","retrieval","new_objects","11","Trowel.jpg","36","0","790"
"4","4","retrieval","new_objects","12","Steeple.jpg","37","1","711"
"4","4","retrieval","new_objects","13","Boat_Dinghy.jpg","37","1","706"
"4","4","retrieval","new_objects","14","Bat_Baseball.jpg","37","1","753"
"4","4","retrieval","old_objects","15","Peach.jpg","36","1","597"
"4","4","retrieval","old_objects","16","Egg_Cup.jpg","36","1","722"
"4","4","retrieval","old_objects","17","Toaster_MetalSleek.jpg","36","1","655"
"4","4","retrieval","new_objects","18","Otoscope.jpg","37","1","756"
"4","4","retrieval","old_objects","19","MetalChain.jpg","36","1","764"
"4","4","retrieval","new_objects","20","HairBand.jpg","37","1","665"
"4","4","retrieval","new_objects","21","SaltShaker.jpg","37","1","715"
"4","4","retrieval","new_objects","22","sign_traffic.jpg","37","1","700"
"4","4","retrieval","old_objects","23","Toaster_Antique.jpg","36","1","767"
"4","4","retrieval","new_objects","24","Bottle_Blue.jpg","37","1","794"
"4","4","retrieval","old_objects","25","Barrel_Upright.jpg","36","1","624"
"4","4","retrieval","old_objects","26","USBKey.jpg","36","1","646"
"4","4","retrieval","new_objects","27","Sandcastle.jpg","37","1","605"
"4","4","retrieval","old_objects","28","Funnel.jpg","36","1","636"
"4","4","retrieval","new_objects","29","CoolingFan_Engine2.jpg","36","0","1119"
"4","4","retrieval","old_objects","30","Bag_Saline.jpg","36","1","779"
"4","4","retrieval","new_objects","31","Kettle.jpg","37","1","587"
"4","4","retrieval","new_objects","32","MonkeyPuppet.jpg","36","0","749"
"4","4","retrieval","new_objects","33","SoapBottle.jpg","37","1","791"
"4","4","retrieval","old_objects","34","Glass_Martini.jpg","36","1","636"
"4","4","retrieval","new_objects","35","Brush_Shoe.jpg","37","1","720"
"4","4","retrieval","new_objects","36","Pipe_Pitch.jpg","37","1","579"
"4","4","retrieval","new_objects","37","Clamp.jpg","37","1","699"
"4","4","retrieval","old_objects","38","Toy_Stroller.jpg","37","0","634"
"4","4","retrieval","old_objects","39","OperaGlasses.jpg","37","0","592"
"4","4","retrieval","old_objects","40","Pot_FlowerClay.jpg","36","1","711"
"4","4","retrieval","old_objects","41","JukeboxAntique.jpg","37","0","875"
"4","4","retrieval","new_objects","42","CraneMachine.jpg","37","1","699"
"4","4","retrieval","new_objects","43","PickupTruck.jpg","37","1","699"
"4","4","retrieval","new_objects","44","MeatRaw.jpg","37","1","804"
"4","4","retrieval","new_objects","45","Pasta_Fusilli.jpg","37","1","752"
"4","4","retrieval","old_objects","46","Pyramid.jpg","36","1","716"
"4","4","retrieval","old_objects","47","Can_GasSpout.jpg","36","1","728"
"4","4","retrieval","new_objects","48","Sculpture_MetalMan.jpg","37","1","679"
"4","4","retrieval","old_objects","49","Spoon_Baby.jpg","36","1","666"
"4","4","retrieval","old_objects","50","Pliers_NeedleNose.jpg","36","1","604"
"4","4","retrieval","old_objects","51","Plate_Ceramic.jpg","36","1","645"
"4","4","retrieval","old_objects","52","MeatGrinder.jpg","36","1","695"
"4","4","retrieval","new_objects","53","Glass_bottle.jpg","37","1","724"
"4","4","retrieval","old_objects","54","FuseBox.jpg","36","1","639"
"4","4","retrieval","old_objects","55","AmberWithMosquito.jpg","36","1","667"
"4","4","retrieval","new_objects","56","Television.jpg","37","1","742"
"4","4","retrieval","new_objects","57","Condom.jpg","37","1","726"
"4","4","retrieval","old_objects","58","CuttingBoard.jpg","36","1","702"
"4","4","retrieval","old_objects","59","Sink_Bathroom.jpg","36","1","569"
"4","4","retrieval","old_objects","60","Pancakes.jpg","36","1","715"
"4","4","retrieval","old_objects","62","Ruler_Metal.jpg","36","1","696"
"4","4","retrieval","old_objects","63","Tiara.jpg","36","1","683"
"4","4","retrieval","new_objects","64","Mixer_Cement.jpg","37","1","852"
"4","4","retrieval","old_objects","65","Table_Side.jpg","36","1","693"
"4","4","retrieval","old_objects","66","Croissant.jpg","36","1","591"
"4","4","retrieval","new_objects","67","Cup_Fruits.jpg","37","1","765"
"4","4","retrieval","old_objects","68","Tape_Dispenser.jpg","36","1","733"
"4","4","retrieval","new_objects","69","Vest.jpg","37","1","945"
"4","4","retrieval","old_objects","70","Egg_Chocolate.jpg","36","1","694"
"4","4","retrieval","new_objects","71","KeyHook_Empty.jpg","37","1","787"
"4","4","retrieval","new_objects","72","NetButterfly.jpg","36","0","720"
"4","4","retrieval","new_objects","73","Fork_Regular.jpg","37","1","738"
"4","4","retrieval","new_objects","74","Keychain_Leather.jpg","36","0","922"
"4","4","retrieval","new_objects","75","Exercise_HandTrainer.jpg","37","1","694"
"4","4","retrieval","old_objects","76","EnglishMuffin.jpg","36","1","677"
"4","4","retrieval","old_objects","77","CashRegister_Antique.jpg","36","1","673"
"4","4","retrieval","old_objects","78","Light_Studio.jpg","36","1","733"
"4","4","retrieval","old_objects","79","TubeRing.jpg","37","0","697"
"4","4","retrieval","old_objects","80","Leaf_Clover.jpg","37","0","733"
"4","4","retrieval","old_objects","81","Frame_Oval.jpg","36","1","691"
"4","4","retrieval","old_objects","82","Ostrich.jpg","36","1","644"
"4","4","retrieval","new_objects","83","NewspaperStack.jpg","37","1","713"
"4","4","retrieval","old_objects","84","Phone_Public.jpg","36","1","817"
"4","4","retrieval","old_objects","85","Swing_Child.jpg","37","0","791"
"4","4","retrieval","old_objects","86","Tree_Fir.jpg","36","1","672"
"4","4","retrieval","old_objects","87","Heater_Infrared.jpg","36","1","731"
"4","4","retrieval","new_objects","88","RecorderCassette.jpg","37","1","930"
"4","4","retrieval","new_objects","89","Backhoe.jpg","36","0","865"
"4","4","retrieval","new_objects","90","Steamroller.jpg","37","1","892"
"4","4","retrieval","new_objects","91","Cup_Styrofoam.jpg","37","1","972"
"4","4","retrieval","new_objects","92","MannequinBust.jpg","37","1","732"
"4","4","retrieval","new_objects","93","Table_Conference.jpg","37","1","768"
"4","4","retrieval","new_objects","94","Shoe_Pink.jpg","37","1","766"
"4","4","retrieval","old_objects","95","IceCream_Chocolate.jpg","36","1","691"
"4","4","retrieval","old_objects","96","Bag_Gym.jpg","36","1","720"
"4","4","retrieval","old_objects","97","Hook_Ceiling.jpg","36","1","933"
"4","4","retrieval","old_objects","98","CinderBlock.jpg","36","1","657"
"4","4","retrieval","old_objects","99","Seahorse.jpg","36","1","725"
"4","4","retrieval","new_objects","100","Notebook.jpg","37","1","692"
"4","4","retrieval","old_objects","101","Chair_MedicalToilet.jpg","36","1","822"
"4","4","retrieval","old_objects","102","BicycleReflector.jpg","36","1","907"
"4","4","retrieval","new_objects","103","Dill.jpg","37","1","722"
"4","4","retrieval","old_objects","104","Milkshake_StrawberryStraw.jpg","36","1","807"
"4","4","retrieval","old_objects","105","Table_Poker.jpg","37","0","1228"
"4","4","retrieval","new_objects","106","LampPost_WhiteOrnate.jpg","37","1","901"
"4","4","retrieval","old_objects","107","Cage_Bird.jpg","36","1","708"
"4","4","retrieval","new_objects","108","Bullet.jpg","37","1","1226"
"4","4","retrieval","new_objects","109","Toy_BlocksLetter.jpg","37","1","851"
"4","4","retrieval","new_objects","110","BrainSagittal.jpg","37","1","803"
"4","4","retrieval","new_objects","111","Bus_School.jpg","37","1","829"
"4","4","retrieval","old_objects","112","Keyhole.jpg","36","1","899"
"4","4","retrieval","new_objects","113","RickShaw.jpg","37","1","870"
