"group","subject","blockcode","trialcode","trialnum","values.stimulus","response","correct","latency"
"1","1","encoding","encoding","1","BicycleWheelRusty.jpg","0","0","2001"
"1","1","encoding","encoding","2","Oneholepunch.jpg","0","0","2001"
"1","1","encoding","encoding","3","Bag_Grains.jpg","Ctrl+'Q'","0","0"
"4","4","encoding","encoding","1","Sign_Construction.jpg","0","0","2000"
"4","4","encoding","encoding","2","Bottle_Oil.jpg","37","0","1056"
"4","4","encoding","encoding","3","Box_Staples.jpg","37","0","1813"
"4","4","encoding","encoding","4","Tray_Cafeteria.jpg","37","0","1442"
"4","4","encoding","encoding","5","Sign_NoParking.jpg","37","0","727"
"4","4","encoding","encoding","6","ShoppingCart.jpg","37","0","794"
"4","4","encoding","encoding","7","Chair_Folding.jpg","37","0","620"
"4","4","encoding","encoding","8","Toy_Tractor_1.jpg","37","0","739"
"4","4","encoding","encoding","9","Oneholepunch.jpg","37","0","487"
"4","4","encoding","encoding","10","Instrument_African.jpg","37","0","770"
"4","4","encoding","encoding","11","Shorts_Sports.jpg","37","0","722"
"4","4","encoding","encoding","12","Tomato.jpg","37","0","517"
"4","4","encoding","encoding","13","Handcuffs.jpg","37","0","619"
"4","4","encoding","encoding","14","Barbecue_Gas.jpg","37","0","474"
"4","4","encoding","encoding","15","Apple_Candy.jpg","36","0","693"
"4","4","encoding","encoding","16","PharoahReplica.jpg","37","0","814"
"4","4","encoding","encoding","17","Hockey_Equipment.jpg","37","0","633"
"4","4","encoding","encoding","18","Dropper.jpg","37","0","596"
"4","4","encoding","encoding","19","PizzaCutter.jpg","37","0","649"
"4","4","encoding","encoding","20","Towel.jpg","37","0","621"
"4","4","encoding","encoding","21","ShoulderPads.jpg","37","0","677"
"4","4","encoding","encoding","22","TreeStump.jpg","36","0","1140"
"4","4","encoding","encoding","23","VacuumHose.jpg","37","0","770"
"4","4","encoding","encoding","24","StringBean.jpg","36","0","784"
"4","4","encoding","encoding","25","Shoe_WomenHeals.jpg","37","0","994"
"4","4","encoding","encoding","26","Cake_Wedding.jpg","37","0","983"
"4","4","encoding","encoding","27","Bark.jpg","37","0","1034"
"4","4","encoding","encoding","28","Cassette_Video.jpg","37","0","824"
"4","4","encoding","encoding","29","SoundMixer_Blue.jpg","37","0","671"
"4","4","encoding","encoding","30","Book_Paper.jpg","37","0","744"
"4","4","encoding","encoding","31","Toy_Lighthouse.jpg","37","0","654"
"4","4","encoding","encoding","32","Toy_Truck.jpg","37","0","724"
"4","4","encoding","encoding","33","Garbage_Can.jpg","37","0","997"
"4","4","encoding","encoding","34","Drum_Brazilan.jpg","37","0","882"
"4","4","encoding","encoding","35","Lens_Camera.jpg","37","0","630"
"4","4","encoding","encoding","36","Clip_Paper.jpg","37","0","614"
"4","4","encoding","encoding","37","Toy_MrPotatoHeadjpg.jpg","37","0","625"
"4","4","encoding","encoding","38","Tickets_PrintWords.jpg","37","0","1111"
"4","4","encoding","encoding","39","SewingMachine.jpg","37","0","1081"
"4","4","encoding","encoding","40","ToothPaste.jpg","37","0","759"
"4","4","encoding","encoding","41","Ashtray_Empty.jpg","37","0","532"
"4","4","encoding","encoding","42","Box_Package.jpg","37","0","1191"
"4","4","encoding","encoding","43","PencilSharpener.jpg","37","0","781"
"4","4","encoding","encoding","44","Cage_Hamster.jpg","37","0","846"
"4","4","encoding","encoding","45","Puzzle_Piece.jpg","37","0","1013"
"4","4","encoding","encoding","46","Gauge.jpg","37","0","607"
"4","4","encoding","encoding","47","Mango.jpg","36","0","619"
"4","4","encoding","encoding","48","Radio_Modern.jpg","37","0","791"
"4","4","encoding","encoding","49","BloodpPresureCuff.jpg","37","0","676"
"4","4","encoding","encoding","50","MortarPestle_BlackStone.jpg","37","0","890"
"4","4","encoding","encoding","51","Branch.jpg","36","0","1070"
"4","4","encoding","encoding","52","Crate_Milk.jpg","37","0","656"
"4","4","encoding","encoding","53","Box_JeweleryWooden.jpg","37","0","652"
"4","4","encoding","encoding","54","Jetski.jpg","37","0","654"
"4","4","encoding","encoding","55","TestTube_MultipleAndRack.jpg","37","0","686"
"4","4","encoding","encoding","56","Film_Single.jpg","37","0","1092"
"4","4","encoding","encoding","57","ChiliFlakes.jpg","36","0","1457"
"4","4","encoding","encoding","58","Coatrack.jpg","37","0","1034"
"4","4","encoding","encoding","59","Hippopotamus.jpg","36","0","1201"
"4","4","encoding","encoding","60","ToothbrushHolder.jpg","37","0","624"
"4","4","encoding","encoding","62","Origami_Boat.jpg","37","0","1338"
"4","4","encoding","encoding","63","Lantern_Chinese.jpg","37","0","916"
"4","4","encoding","encoding","64","RiceRaw.jpg","0","0","2000"
"4","4","encoding","encoding","65","Crate_Wine.jpg","37","0","917"
"4","4","encoding","encoding","66","TotemPole.jpg","37","0","1243"
"4","4","encoding","encoding","67","Bench_Park.jpg","37","0","704"
"4","4","encoding","encoding","68","Gloves_Bicycle.jpg","37","0","702"
"4","4","encoding","encoding","69","BicycleGear.jpg","37","0","979"
"4","4","encoding","encoding","70","HandMixer.jpg","37","0","1438"
"4","4","encoding","encoding","71","Defribrillator.jpg","37","0","813"
"4","4","encoding","encoding","72","DusterFeather.jpg","37","0","700"
"4","4","encoding","encoding","73","MalletJudge.jpg","37","0","1414"
"4","4","encoding","encoding","74","Bread_Pita.jpg","37","0","1400"
"4","4","encoding","encoding","75","Stepper.jpg","37","0","827"
"4","4","encoding","encoding","76","Wallet_ClosedBrown.jpg","37","0","1052"
"4","4","encoding","encoding","77","Lantern_Tea.jpg","37","0","1232"
"4","4","encoding","encoding","78","Bell_Hand.jpg","37","0","942"
"4","4","encoding","encoding","79","Generator.jpg","37","0","1759"
"4","4","encoding","encoding","80","Loofa.jpg","0","0","2000"
"4","4","encoding","encoding","81","Chimpanzee.jpg","36","0","1075"
"4","4","encoding","encoding","82","Can_OilSpout.jpg","37","0","901"
"4","4","encoding","encoding","83","Motorcycle.jpg","37","0","965"
"4","4","encoding","encoding","84","Toolbox_RedOpen.jpg","37","0","749"
"4","4","encoding","encoding","85","Guitar_Electric.jpg","37","0","766"
"4","4","encoding","encoding","86","BicycleWheelRusty.jpg","37","0","645"
"4","4","encoding","encoding","87","Ball_Bowling.jpg","37","0","1031"
"4","4","encoding","encoding","88","Bag_Grains.jpg","36","0","1442"
"4","4","encoding","encoding","89","EyeExamDevice.jpg","37","0","1273"
"4","4","encoding","encoding","90","Pitcher.jpg","37","0","702"
"4","4","encoding","encoding","91","Barrel_Wine.jpg","37","0","600"
"4","4","encoding","encoding","92","ChalkboardEraser.jpg","37","0","1694"
"4","4","encoding","encoding","93","Paddle_Canoe.jpg","0","0","2000"
"4","4","encoding","encoding","94","Drink_Cocktail.jpg","37","0","888"
"4","4","encoding","encoding","95","Statue_ManHorse.jpg","37","0","975"
"4","4","encoding","encoding","96","MoneyBill50.jpg","37","0","1059"
"4","4","encoding","encoding","97","Triangle.jpg","37","0","915"
"4","4","encoding","encoding","98","SolderingWire.jpg","37","0","754"
"4","4","encoding","encoding","99","Box_FirstAid.jpg","37","0","907"
"4","4","encoding","encoding","100","Bottle_Specimen.jpg","37","0","1423"
"4","4","encoding","encoding","101","Chair_Bamboo.jpg","37","0","791"
"4","4","encoding","encoding","102","Hedgehog.jpg","37","0","546"
"4","4","encoding","encoding","103","Chinchilla.jpg","36","0","767"
"4","4","encoding","encoding","104","Mirror_Makeup.jpg","37","0","1607"
"4","4","encoding","encoding","105","Toy_BlocksWoodenPlain.jpg","37","0","806"
"4","4","encoding","encoding","106","PencilCase.jpg","37","0","788"
"4","4","encoding","encoding","107","Heater_ElectricPortable.jpg","37","0","829"
"4","4","encoding","encoding","108","Card_QueenSpade.jpg","37","0","744"
"4","4","encoding","encoding","109","Camera_ProfessionalFilm.jpg","37","0","539"
"4","4","encoding","encoding","110","ChariotGold.jpg","37","0","890"
"4","4","encoding","encoding","111","ClothCoaster.jpg","37","0","1543"
"4","4","encoding","encoding","112","StampAndSeal.jpg","37","0","881"
"4","4","encoding","encoding","113","Hoodie.jpg","37","0","991"
"4","4","encoding","encoding","114","Toy_PoliceCar.jpg","37","0","603"
"4","4","encoding","encoding","115","ComputerKeyboard.jpg","37","0","801"
"4","4","encoding","encoding","116","Brush_Makeup.jpg","37","0","539"
"4","4","encoding","encoding","117","Bowtie.jpg","37","0","603"
"4","4","encoding","encoding","118","Leaf_Yellow.jpg","36","0","1258"
"4","4","encoding","encoding","119","Truck_Box.jpg","37","0","596"
"4","4","encoding","encoding","120","KiddiePool.jpg","37","0","683"
"4","4","encoding","encoding","121","CDstack.jpg","37","0","854"
"4","4","encoding","encoding","123","Fan_Ceiling.jpg","37","0","631"
"4","4","encoding","encoding","124","Hammer.jpg","37","0","941"
"4","4","encoding","encoding","125","Rake_Long.jpg","37","0","502"
"4","4","encoding","encoding","126","Cheque.jpg","37","0","730"
"4","4","encoding","encoding","127","PuppetTheatre_WhiteGold.jpg","37","0","604"
"4","4","encoding","encoding","128","TelephoneSwitchboard.jpg","37","0","640"
"4","4","encoding","encoding","129","Scissors.jpg","37","0","587"
"4","4","encoding","encoding","130","CashRegister_Modern.jpg","37","0","717"
"4","4","encoding","encoding","131","Exercise_Bike.jpg","37","0","1183"
"4","4","encoding","encoding","132","Golf_Club.jpg","37","0","645"
"4","4","encoding","encoding","133","BoxTrailer.jpg","37","0","740"
"4","4","encoding","encoding","134","Toblerone.jpg","37","0","1038"
"4","4","encoding","encoding","135","Rag.jpg","37","0","546"
"4","4","encoding","encoding","136","Walker_Silver.jpg","37","0","738"
"4","4","encoding","encoding","137","Seal_Toy.jpg","36","0","1179"
"4","4","encoding","encoding","138","Chair_Car.jpg","37","0","965"
"4","4","encoding","encoding","139","Pants_Jeans.jpg","37","0","718"
"4","4","encoding","encoding","140","Thimble.jpg","37","0","1208"
"4","4","encoding","encoding","141","Box_Vials.jpg","0","0","2000"
"4","4","encoding","encoding","142","Ball_Golf.jpg","37","0","1510"
"4","4","encoding","encoding","143","Brace_Back.jpg","37","0","637"
"4","4","encoding","encoding","144","ConnectorPlug.jpg","37","0","702"
"4","4","encoding","encoding","145","Bucket_Ice.jpg","37","0","486"
"4","4","encoding","encoding","146","Dolly.jpg","37","0","653"
"4","4","encoding","encoding","147","Ball_Tennis.jpg","37","0","713"
"4","4","encoding","encoding","148","DrillBit.jpg","37","0","1447"
"4","4","encoding","encoding","149","Spoon_WoodenLight.jpg","0","0","2000"
"4","4","encoding","encoding","150","Binder.jpg","37","0","646"
"4","4","encoding","encoding","151","Dresser_1.jpg","37","0","1811"
"4","4","encoding","encoding","152","Door_Green.jpg","37","0","648"
"4","4","encoding","encoding","153","CoinRolls.jpg","37","0","667"
"4","4","encoding","encoding","154","Snail.jpg","36","0","1276"
"4","4","encoding","encoding","155","BicycleChain.jpg","37","0","1294"
"4","4","encoding","encoding","156","Perfume.jpg","37","0","1814"
"4","4","encoding","encoding","157","Jar_Money.jpg","37","0","929"
"4","4","encoding","encoding","158","Ball_Squashball.jpg","37","0","800"
"4","4","encoding","encoding","159","Broom_Short.jpg","37","0","676"
"4","4","encoding","encoding","160","FireAlarm.jpg","37","0","615"
"4","4","encoding","encoding","161","Sheep.jpg","0","0","2000"
"4","4","encoding","encoding","162","Match.jpg","37","0","619"
"4","4","encoding","encoding","163","BottleOpener.jpg","37","0","916"
"4","4","encoding","encoding","164","Cork.jpg","37","0","1037"
"4","4","encoding","encoding","165","SnowmanDecor.jpg","37","0","1178"
"4","4","encoding","encoding","166","Stationary.jpg","37","0","929"
"4","4","encoding","encoding","167","Quartz.jpg","37","0","1562"
"4","4","encoding","encoding","168","House_Doll.jpg","37","0","1116"
"4","4","encoding","encoding","169","ShinPads.jpg","37","0","1528"
"4","4","encoding","encoding","170","Lollipop_Rainbow.jpg","0","0","2000"
"4","4","encoding","encoding","171","Toast.jpg","37","0","468"
"4","4","encoding","encoding","172","Tag_Identifier.jpg","37","0","917"
"4","4","encoding","encoding","173","Box_Apples.jpg","37","0","791"
"4","4","encoding","encoding","174","Knife_Hunting.jpg","37","0","994"
"4","4","encoding","encoding","175","Flute_Wooden.jpg","37","0","1217"
"4","4","encoding","encoding","176","Tube_Glue.jpg","37","0","1157"
"4","4","encoding","encoding","177","Lock_Door.jpg","37","0","734"
"4","4","retrieval","old_objects","1","Chimpanzee.jpg","37","0","1814"
"4","4","retrieval","new_objects","2","Origami_Ox.jpg","37","1","1050"
"4","4","retrieval","old_objects","3","Guitar_Electric.jpg","36","1","751"
"4","4","retrieval","new_objects","4","LeatherPuncherTool.jpg","36","0","1099"
"4","4","retrieval","old_objects","5","BicycleChain.jpg","36","1","1067"
"4","4","retrieval","new_objects","6","Drum_Set.jpg","37","1","1035"
"4","4","retrieval","new_objects","7","PotatoMasher_Grate.jpg","37","1","1057"
"4","4","retrieval","new_objects","8","BookShelf.jpg","37","1","1025"
"4","4","retrieval","old_objects","9","Radio_Modern.jpg","36","1","894"
"4","4","retrieval","new_objects","10","Olives.jpg","37","1","1020"
"4","4","retrieval","old_objects","11","Defribrillator.jpg","36","1","1025"
"4","4","retrieval","old_objects","12","Lock_Door.jpg","36","1","815"
"4","4","retrieval","old_objects","13","Hoodie.jpg","36","1","720"
"4","4","retrieval","old_objects","14","Toy_BlocksWoodenPlain.jpg","36","1","623"
"4","4","retrieval","new_objects","15","Bird_Tern.jpg","37","1","707"
"4","4","retrieval","old_objects","16","Brace_Back.jpg","36","1","731"
"4","4","retrieval","old_objects","17","Rag.jpg","36","1","1303"
"4","4","retrieval","old_objects","18","TreeStump.jpg","36","1","691"
"4","4","retrieval","old_objects","19","Lens_Camera.jpg","36","1","670"
"4","4","retrieval","old_objects","20","Perfume.jpg","36","1","611"
"4","4","retrieval","old_objects","21","PharoahReplica.jpg","36","1","656"
"4","4","retrieval","new_objects","22","Stamper.jpg","37","1","921"
"4","4","retrieval","new_objects","23","Statue_Buddha.jpg","37","1","681"
"4","4","retrieval","old_objects","24","Shorts_Sports.jpg","36","1","707"
"4","4","retrieval","old_objects","25","Sheep.jpg","37","0","766"
"4","4","retrieval","new_objects","26","Shoes_Mould.jpg","37","1","757"
"4","4","retrieval","old_objects","27","MortarPestle_BlackStone.jpg","36","1","703"
"4","4","retrieval","old_objects","28","Triangle.jpg","36","1","814"
"4","4","retrieval","old_objects","29","MalletJudge.jpg","36","1","648"
"4","4","retrieval","new_objects","30","Ginger.jpg","37","1","654"
"4","4","retrieval","new_objects","31","Briefcase_Silver.jpg","36","0","1119"
"4","4","retrieval","new_objects","32","Toy_LambPlushie.jpg","37","1","822"
"4","4","retrieval","old_objects","33","Bench_Park.jpg","36","1","822"
"4","4","retrieval","old_objects","34","CashRegister_Modern.jpg","36","1","766"
"4","4","retrieval","old_objects","35","ChariotGold.jpg","36","1","676"
"4","4","retrieval","old_objects","36","MoneyBill50.jpg","36","1","801"
"4","4","retrieval","old_objects","37","Cork.jpg","36","1","671"
"4","4","retrieval","old_objects","38","Box_Staples.jpg","36","1","740"
"4","4","retrieval","old_objects","39","BloodpPresureCuff.jpg","36","1","794"
"4","4","retrieval","old_objects","40","Camera_ProfessionalFilm.jpg","36","1","697"
"4","4","retrieval","old_objects","41","Ball_Tennis.jpg","36","1","562"
"4","4","retrieval","new_objects","42","AnsweringMachine.jpg","37","1","955"
"4","4","retrieval","new_objects","43","Iguana.jpg","37","1","742"
"4","4","retrieval","new_objects","44","Barbecue_Charcoal.jpg","37","1","1306"
"4","4","retrieval","new_objects","45","Noisemaker_Streamers.jpg","37","1","928"
"4","4","retrieval","old_objects","46","Fan_Ceiling.jpg","36","1","713"
"4","4","retrieval","new_objects","47","Button.jpg","36","0","938"
"4","4","retrieval","old_objects","48","Coatrack.jpg","36","1","886"
"4","4","retrieval","old_objects","49","SoundMixer_Blue.jpg","37","0","1741"
"4","4","retrieval","new_objects","50","Lobster.jpg","37","1","761"
"4","4","retrieval","old_objects","51","Lantern_Chinese.jpg","36","1","744"
"4","4","retrieval","new_objects","52","Backpack_Suitcase.jpg","37","1","872"
"4","4","retrieval","old_objects","53","StringBean.jpg","36","1","736"
"4","4","retrieval","new_objects","54","FlipFlop_PairBlue.jpg","37","1","817"
"4","4","retrieval","old_objects","55","ChiliFlakes.jpg","36","1","805"
"4","4","retrieval","new_objects","56","Candleholder_LampShaped.jpg","37","1","1149"
"4","4","retrieval","old_objects","57","EyeExamDevice.jpg","36","1","896"
"4","4","retrieval","old_objects","58","PencilSharpener.jpg","36","1","958"
"4","4","retrieval","old_objects","59","SewingMachine.jpg","36","1","745"
"4","4","retrieval","old_objects","60","Lantern_Tea.jpg","36","1","1628"
"4","4","retrieval","old_objects","62","CoinRolls.jpg","36","1","690"
"4","4","retrieval","new_objects","63","Clothespin_Beige.jpg","37","1","1456"
"4","4","retrieval","old_objects","64","Toy_PoliceCar.jpg","37","0","635"
"4","4","retrieval","new_objects","65","Cranberry.jpg","37","1","872"
"4","4","retrieval","new_objects","66","Grenade.jpg","37","1","897"
"4","4","retrieval","old_objects","67","Ball_Bowling.jpg","36","1","585"
"4","4","retrieval","old_objects","68","Pants_Jeans.jpg","36","1","696"
"4","4","retrieval","old_objects","69","Box_JeweleryWooden.jpg","36","1","676"
"4","4","retrieval","new_objects","70","Gun_Bazooka.jpg","37","1","1099"
"4","4","retrieval","old_objects","71","Crate_Milk.jpg","36","1","1027"
"4","4","retrieval","old_objects","72","Thimble.jpg","36","1","696"
"4","4","retrieval","old_objects","73","Sign_Construction.jpg","36","1","596"
"4","4","retrieval","new_objects","74","Bugle.jpg","37","1","1072"
"4","4","retrieval","new_objects","75","TelescopeSpacecraft.jpg","37","1","1655"
"4","4","retrieval","old_objects","76","Ball_Golf.jpg","36","1","733"
"4","4","retrieval","new_objects","77","BumperCar.jpg","37","1","1238"
"4","4","retrieval","new_objects","78","Lilypad.jpg","37","1","896"
"4","4","retrieval","old_objects","79","Box_FirstAid.jpg","36","1","941"
"4","4","retrieval","new_objects","80","Box_FirstAidOpen.jpg","37","1","986"
"4","4","retrieval","old_objects","81","RiceRaw.jpg","36","1","723"
"4","4","retrieval","new_objects","82","Hat_Feather.jpg","37","1","851"
"4","4","retrieval","new_objects","83","ReindeerHeadband.jpg","37","1","1232"
"4","4","retrieval","new_objects","84","Bellows.jpg","37","1","1046"
"4","4","retrieval","old_objects","85","Bark.jpg","36","1","926"
"4","4","retrieval","old_objects","86","Broom_Short.jpg","36","1","899"
"4","4","retrieval","new_objects","87","Film_Roll.jpg","37","1","1262"
"4","4","retrieval","old_objects","88","Drum_Brazilan.jpg","36","1","772"
"4","4","retrieval","new_objects","89","Rope_Manila.jpg","37","1","983"
"4","4","retrieval","old_objects","90","Golf_Club.jpg","36","1","911"
"4","4","retrieval","old_objects","91","Brush_Makeup.jpg","36","1","736"
"4","4","retrieval","old_objects","92","Barrel_Wine.jpg","37","0","1344"
"4","4","retrieval","new_objects","93","TelephoneJack.jpg","37","1","871"
"4","4","retrieval","new_objects","94","Steamer.jpg","37","1","813"
"4","4","retrieval","new_objects","95","Candle_Blue.jpg","36","0","1188"
"4","4","retrieval","old_objects","96","Bread_Pita.jpg","36","1","671"
"4","4","retrieval","old_objects","97","SnowmanDecor.jpg","36","1","783"
"4","4","retrieval","old_objects","98","PencilCase.jpg","36","1","972"
"4","4","retrieval","old_objects","99","Seal_Toy.jpg","36","1","883"
"4","4","retrieval","new_objects","100","Chainsaw.jpg","37","1","1290"
"4","4","retrieval","new_objects","101","Gun_Nerf.jpg","37","1","1438"
"4","4","retrieval","new_objects","102","Autocreeper.jpg","37","1","1166"
"4","4","retrieval","old_objects","103","Clip_Paper.jpg","36","1","675"
"4","4","retrieval","new_objects","104","Boardgame_Checkers.jpg","37","1","1378"
"4","4","retrieval","new_objects","105","Bench_Wooden.jpg","36","0","1617"
"4","4","retrieval","old_objects","106","Loofa.jpg","0","0","2000"
"4","4","retrieval","old_objects","107","Snail.jpg","37","0","641"
"4","4","retrieval","new_objects","108","Lips_Real.jpg","37","1","847"
"4","4","retrieval","new_objects","109","Drum_Bongos.jpg","37","1","1111"
"4","4","retrieval","old_objects","110","Film_Single.jpg","36","1","659"
"4","4","retrieval","new_objects","111","Golf_Bag.jpg","37","1","735"
"4","4","retrieval","old_objects","112","Tickets_PrintWords.jpg","36","1","607"
"4","4","retrieval","old_objects","113","Gloves_Bicycle.jpg","36","1","801"
"4","4","retrieval","old_objects","114","Dresser_1.jpg","36","1","664"
"4","4","retrieval","old_objects","115","Garbage_Can.jpg","36","1","641"
"4","4","retrieval","old_objects","116","Tag_Identifier.jpg","36","1","758"
"4","4","retrieval","old_objects","117","Cassette_Video.jpg","36","1","780"
"4","4","retrieval","old_objects","118","Toolbox_RedOpen.jpg","37","0","1260"
"4","4","retrieval","new_objects","119","Clock_Digital.jpg","37","1","834"
"4","4","retrieval","new_objects","120","Toy_BearBlackPlastic.jpg","37","1","1441"
"4","4","retrieval","old_objects","121","ToothbrushHolder.jpg","0","0","2000"
"4","4","retrieval","new_objects","123","Tricycle.jpg","37","1","696"
"4","4","retrieval","new_objects","124","Boat_Colourful.jpg","37","1","649"
"4","4","retrieval","new_objects","125","Glove_Baseball.jpg","37","1","854"
"4","4","retrieval","old_objects","126","ConnectorPlug.jpg","36","1","669"
"4","4","retrieval","new_objects","127","Table_Saw.jpg","36","0","1030"
"4","4","retrieval","old_objects","128","KiddiePool.jpg","36","1","764"
"4","4","retrieval","old_objects","129","Stationary.jpg","37","0","1397"
"4","4","retrieval","old_objects","130","Binder.jpg","36","1","1271"
"4","4","retrieval","new_objects","131","Outhouse.jpg","37","1","828"
"4","4","retrieval","old_objects","132","DrillBit.jpg","37","0","765"
"4","4","retrieval","new_objects","133","ToothPick.jpg","37","1","788"
"4","4","retrieval","old_objects","134","Match.jpg","36","1","1603"
"4","4","retrieval","new_objects","135","Milkshake_Chocolate.jpg","37","1","1279"
"4","4","retrieval","new_objects","136","Desk_White.jpg","36","0","1700"
"4","4","retrieval","old_objects","137","Sign_NoParking.jpg","37","0","977"
"4","4","retrieval","old_objects","138","Tube_Glue.jpg","36","1","1016"
"4","4","retrieval","new_objects","139","Abacus.jpg","37","1","1098"
"4","4","retrieval","new_objects","140","Bag_String.jpg","0","0","2000"
"4","4","retrieval","old_objects","141","Puzzle_Piece.jpg","36","1","925"
"4","4","retrieval","old_objects","142","Box_Apples.jpg","36","1","957"
"4","4","retrieval","old_objects","143","Dolly.jpg","36","1","1182"
"4","4","retrieval","old_objects","144","Crate_Wine.jpg","36","1","926"
"4","4","retrieval","new_objects","145","Cornucopia.jpg","37","1","702"
"4","4","retrieval","new_objects","146","Maraca.jpg","36","0","1163"
"4","4","retrieval","old_objects","147","Hippopotamus.jpg","36","1","794"
"4","4","retrieval","new_objects","148","Can_Olives.jpg","37","1","1496"
"4","4","retrieval","new_objects","149","Suspenders.jpg","37","1","830"
"4","4","retrieval","old_objects","150","ClothCoaster.jpg","36","1","707"
"4","4","retrieval","old_objects","151","ShoppingCart.jpg","36","1","703"
"4","4","retrieval","old_objects","152","Door_Green.jpg","37","0","1073"
"4","4","retrieval","new_objects","153","Mask_VenetianLongNose.jpg","37","1","1559"
"4","4","retrieval","new_objects","154","Waffle.jpg","37","1","1072"
"4","4","retrieval","old_objects","155","Hedgehog.jpg","36","1","795"
"4","4","retrieval","old_objects","156","Towel.jpg","36","1","761"
"4","4","retrieval","old_objects","157","Apple_Candy.jpg","36","1","754"
"4","4","retrieval","new_objects","158","Arch_Triomphe.jpg","37","1","682"
"4","4","retrieval","new_objects","159","PersonWooden.jpg","37","1","661"
"4","4","retrieval","old_objects","160","ComputerKeyboard.jpg","36","1","636"
"4","4","retrieval","new_objects","161","Bucket_Halloween.jpg","37","1","866"
"4","4","retrieval","new_objects","162","Loveseat.jpg","37","1","782"
"4","4","retrieval","new_objects","163","Locomotive.jpg","37","1","1015"
"4","4","retrieval","old_objects","164","Pitcher.jpg","37","0","975"
"4","4","retrieval","old_objects","165","Heater_ElectricPortable.jpg","37","0","802"
"4","4","retrieval","new_objects","166","Tuxedo.jpg","37","1","750"
"4","4","retrieval","old_objects","167","Toy_MrPotatoHeadjpg.jpg","37","0","710"
"4","4","retrieval","new_objects","168","Truck_Army.jpg","37","1","596"
"4","4","retrieval","new_objects","169","Helicopter.jpg","37","1","547"
"4","4","retrieval","new_objects","170","Toad.jpg","37","1","724"
"4","4","retrieval","old_objects","171","Ball_Squashball.jpg","36","1","1168"
"4","4","retrieval","new_objects","172","FlintIgniter.jpg","37","1","1057"
"4","4","retrieval","old_objects","173","Tomato.jpg","36","1","1002"
"4","4","retrieval","old_objects","174","Bowtie.jpg","36","1","757"
"4","4","retrieval","new_objects","175","FlipFlop_SingleRed.jpg","0","0","2000"
"4","4","retrieval","new_objects","176","BicycleWheel.jpg","37","1","883"
"4","4","retrieval","new_objects","177","WaterGun.jpg","37","1","868"
"4","4","retrieval","new_objects","178","IceCreamCone.jpg","36","0","1347"
"4","4","retrieval","old_objects","179","Cage_Hamster.jpg","37","0","1002"
"4","4","retrieval","new_objects","180","TreeHouse.jpg","37","1","773"
"4","4","retrieval","new_objects","181","LintRemover.jpg","36","0","1087"
"4","4","retrieval","old_objects","182","Oneholepunch.jpg","36","1","669"
"4","4","retrieval","new_objects","184","LumiereBeautyBeast.jpg","37","1","1115"
"4","4","retrieval","old_objects","185","Generator.jpg","36","1","1168"
"4","4","retrieval","old_objects","186","TotemPole.jpg","36","1","706"
"4","4","retrieval","new_objects","187","Camera_Video.jpg","36","0","689"
"4","4","retrieval","old_objects","188","Toblerone.jpg","36","1","829"
"4","4","retrieval","new_objects","189","Cherry.jpg","37","1","812"
"4","4","retrieval","old_objects","190","TestTube_MultipleAndRack.jpg","36","1","825"
"4","4","retrieval","old_objects","191","Drink_Cocktail.jpg","0","0","2000"
"4","4","retrieval","new_objects","192","Arm.jpg","37","1","937"
"4","4","retrieval","new_objects","193","House_Rural.jpg","37","1","1508"
"4","4","retrieval","new_objects","194","ChocolateBar_HalfUnwrapped.jpg","37","1","1375"
"4","4","retrieval","new_objects","195","EyeDrops.jpg","0","0","2000"
"4","4","retrieval","old_objects","196","Box_Package.jpg","36","1","882"
"4","4","retrieval","old_objects","197","Jar_Money.jpg","36","1","1022"
"4","4","retrieval","new_objects","198","Helmet_Motorcycle.jpg","37","1","1357"
"4","4","retrieval","new_objects","199","Staircase_Curving.jpg","37","1","1188"
"4","4","retrieval","old_objects","200","Flute_Wooden.jpg","36","1","948"
"4","4","retrieval","old_objects","201","BicycleWheelRusty.jpg","36","1","1171"
"4","4","retrieval","old_objects","202","Toy_Tractor_1.jpg","36","1","942"
"4","4","retrieval","old_objects","203","BicycleGear.jpg","36","1","841"
"4","4","retrieval","new_objects","204","Dog_SaintBernard.jpg","37","1","1317"
"4","4","retrieval","old_objects","205","FireAlarm.jpg","36","1","885"
"4","4","retrieval","old_objects","206","Mirror_Makeup.jpg","36","1","1006"
"4","4","retrieval","old_objects","207","VacuumHose.jpg","36","1","699"
"4","4","retrieval","new_objects","208","Toy_WinnieThePooh.jpg","37","1","899"
"4","4","retrieval","new_objects","209","OrangeBlood.jpg","37","1","760"
"4","4","retrieval","old_objects","210","Spoon_WoodenLight.jpg","37","0","1352"
"4","4","retrieval","new_objects","211","Makeup_Compact.jpg","37","1","913"
"4","4","retrieval","new_objects","212","DogLeash.jpg","37","1","770"
"4","4","retrieval","new_objects","213","Cymbals.jpg","37","1","1393"
"4","4","retrieval","new_objects","214","Thermostat_Digital.jpg","37","1","645"
"4","4","retrieval","new_objects","215","Fence_ChainLink.jpg","37","1","921"
"4","4","retrieval","old_objects","216","Toy_Lighthouse.jpg","37","0","1413"
"4","4","retrieval","old_objects","217","Bottle_Specimen.jpg","36","1","1571"
"4","4","retrieval","old_objects","218","Statue_ManHorse.jpg","36","1","1745"
"4","4","retrieval","new_objects","219","Earth_Planet.jpg","37","1","1481"
"4","4","retrieval","new_objects","220","BasketballHoop.jpg","37","1","1609"
"4","4","retrieval","old_objects","221","Bucket_Ice.jpg","36","1","1185"
"4","4","retrieval","old_objects","222","Cake_Wedding.jpg","36","1","838"
"4","4","retrieval","new_objects","223","RiceCooker.jpg","37","1","728"
"4","4","retrieval","old_objects","224","Instrument_African.jpg","36","1","1210"
"4","4","retrieval","new_objects","225","Ashtray_Cigarettes.jpg","37","1","927"
"4","4","retrieval","new_objects","226","Van.jpg","37","1","1141"
"4","4","retrieval","old_objects","227","Gauge.jpg","37","0","968"
"4","4","retrieval","new_objects","228","Hat_Beret.jpg","37","1","1495"
"4","4","retrieval","new_objects","229","Chair_Office.jpg","36","0","913"
"4","4","retrieval","old_objects","230","Book_Paper.jpg","37","0","608"
"4","4","retrieval","old_objects","231","Bell_Hand.jpg","36","1","670"
"4","4","retrieval","old_objects","232","Toy_Truck.jpg","36","1","595"
"4","4","retrieval","new_objects","233","Toy_BearBrownPlushie.jpg","37","1","743"
"4","4","retrieval","new_objects","234","ToothBrush.jpg","37","1","818"
"4","4","retrieval","new_objects","235","Beaker.jpg","37","1","1085"
"4","4","retrieval","new_objects","236","House_Stone.jpg","37","1","797"
"4","4","retrieval","new_objects","237","Awning.jpg","37","1","889"
"4","4","retrieval","old_objects","238","Toast.jpg","36","1","770"
"4","4","retrieval","old_objects","239","Scissors.jpg","36","1","568"
"4","4","retrieval","old_objects","240","Knife_Hunting.jpg","36","1","667"
"4","4","retrieval","old_objects","241","House_Doll.jpg","36","1","956"
"4","4","retrieval","old_objects","242","Can_OilSpout.jpg","36","1","935"
"4","4","retrieval","old_objects","243","Paddle_Canoe.jpg","37","0","1239"
"4","4","retrieval","new_objects","245","Can_Milk.jpg","37","1","676"
"4","4","retrieval","new_objects","246","Mug_Ceramic.jpg","37","1","811"
"4","4","retrieval","new_objects","247","Tetrahedron.jpg","37","1","1089"
"4","4","retrieval","new_objects","248","Taco.jpg","37","1","1109"
"4","4","retrieval","old_objects","249","Lollipop_Rainbow.jpg","36","1","1040"
"4","4","retrieval","new_objects","250","Shoe_Men.jpg","37","1","845"
"4","4","retrieval","old_objects","251","BottleOpener.jpg","36","1","920"
"4","4","retrieval","new_objects","252","Cracker_Saltine.jpg","37","1","846"
"4","4","retrieval","old_objects","253","Handcuffs.jpg","37","0","845"
"4","4","retrieval","new_objects","254","Glove_Rubber.jpg","37","1","888"
"4","4","retrieval","old_objects","255","ShoulderPads.jpg","36","1","1041"
"4","4","retrieval","old_objects","256","CDstack.jpg","0","0","2000"
"4","4","retrieval","old_objects","257","Leaf_Yellow.jpg","36","1","610"
"4","4","retrieval","new_objects","258","Toy_Rooster.jpg","37","1","638"
"4","4","retrieval","new_objects","259","Bottle_Baby.jpg","37","1","865"
"4","4","retrieval","new_objects","260","Wheel_Steering.jpg","37","1","951"
"4","4","retrieval","new_objects","261","Monitor.jpg","37","1","751"
"4","4","retrieval","new_objects","262","Pot_Crock.jpg","37","1","659"
"4","4","retrieval","old_objects","263","Stepper.jpg","37","0","836"
"4","4","retrieval","new_objects","264","Bib.jpg","37","1","665"
"4","4","retrieval","new_objects","265","BicycleBrake.jpg","37","1","618"
"4","4","retrieval","new_objects","266","Bowl_Sugar.jpg","37","1","655"
"4","4","retrieval","old_objects","267","PizzaCutter.jpg","37","0","670"
"4","4","retrieval","new_objects","268","Birdhouse.jpg","37","1","780"
"4","4","retrieval","old_objects","269","Chair_Bamboo.jpg","36","1","820"
"4","4","retrieval","new_objects","270","Guacamole.jpg","37","1","981"
"4","4","retrieval","new_objects","271","Slide.jpg","37","1","1081"
"4","4","retrieval","new_objects","272","Bag_Computer.jpg","37","1","1357"
"4","4","retrieval","new_objects","273","PanCooking.jpg","37","1","1212"
"4","4","retrieval","new_objects","274","Light_Fixtures.jpg","0","0","2000"
"4","4","retrieval","new_objects","275","Stove_Portable.jpg","37","1","779"
"4","4","retrieval","new_objects","276","Bread_Melon.jpg","37","1","1051"
"4","4","retrieval","new_objects","277","EspressoMachine.jpg","37","1","1365"
"4","4","retrieval","old_objects","278","Quartz.jpg","37","0","602"
"4","4","retrieval","new_objects","279","Mixer_Hand.jpg","37","1","849"
"4","4","retrieval","old_objects","280","DusterFeather.jpg","36","1","1140"
"4","4","retrieval","old_objects","281","Tray_Cafeteria.jpg","36","1","1096"
"4","4","retrieval","new_objects","282","Mitt_Oven.jpg","37","1","841"
"4","4","retrieval","new_objects","283","Mattress.jpg","37","1","801"
"4","4","retrieval","new_objects","284","Cannister_GasVintage.jpg","37","1","840"
"4","4","retrieval","new_objects","285","ShakerShekere.jpg","37","1","1317"
"4","4","retrieval","old_objects","286","ChalkboardEraser.jpg","36","1","1138"
"4","4","retrieval","new_objects","287","PuppetTheatre_BlueRed.jpg","37","1","830"
"4","4","retrieval","old_objects","288","Jetski.jpg","37","0","1253"
"4","4","retrieval","new_objects","289","Candy_Lozenge.jpg","37","1","819"
"4","4","retrieval","old_objects","290","Card_QueenSpade.jpg","0","0","2000"
"4","4","retrieval","new_objects","291","Bolt.jpg","36","0","902"
"4","4","retrieval","old_objects","292","StampAndSeal.jpg","36","1","691"
"4","4","retrieval","new_objects","293","Clip_Binder.jpg","37","1","854"
"4","4","retrieval","new_objects","294","Bowl_Lemons.jpg","37","1","1029"
"4","4","retrieval","new_objects","295","Cane_Wooden.jpg","37","1","1080"
"4","4","retrieval","new_objects","296","Brush_Windshield.jpg","37","1","810"
"4","4","retrieval","old_objects","297","Cheque.jpg","36","1","822"
"4","4","retrieval","old_objects","298","Rake_Long.jpg","36","1","795"
"4","4","retrieval","new_objects","299","Playard.jpg","37","1","722"
"4","4","retrieval","new_objects","300","Ladybug.jpg","36","0","958"
"4","4","retrieval","old_objects","301","Wallet_ClosedBrown.jpg","36","1","694"
"4","4","retrieval","old_objects","302","PuppetTheatre_WhiteGold.jpg","36","1","782"
"4","4","retrieval","old_objects","303","Shoe_WomenHeals.jpg","36","1","742"
"4","4","retrieval","new_objects","304","Staples.jpg","37","1","896"
"4","4","retrieval","old_objects","306","SolderingWire.jpg","36","1","734"
"4","4","retrieval","old_objects","307","Hammer.jpg","37","0","817"
"4","4","retrieval","old_objects","308","Motorcycle.jpg","36","1","903"
"4","4","retrieval","new_objects","309","KitchenCloth.jpg","37","1","899"
"4","4","retrieval","new_objects","310","Sushi.jpg","37","1","1166"
"4","4","retrieval","old_objects","311","Exercise_Bike.jpg","37","0","1315"
"4","4","retrieval","new_objects","312","Seal_animal.jpg","37","1","996"
"4","4","retrieval","old_objects","313","BoxTrailer.jpg","37","0","803"
"4","4","retrieval","new_objects","314","Bucket_WoodenLight.jpg","37","1","1410"
"4","4","retrieval","old_objects","315","HandMixer.jpg","37","0","1069"
"4","4","retrieval","old_objects","316","Walker_Silver.jpg","36","1","816"
"4","4","retrieval","new_objects","317","Toy_Car.jpg","0","0","2000"
"4","4","retrieval","old_objects","318","TelephoneSwitchboard.jpg","36","1","1297"
"4","4","retrieval","old_objects","319","Origami_Boat.jpg","37","0","1538"
"4","4","retrieval","old_objects","320","Ashtray_Empty.jpg","36","1","1052"
"4","4","retrieval","old_objects","321","Hockey_Equipment.jpg","36","1","1328"
"4","4","retrieval","new_objects","322","PaperCutter.jpg","37","1","971"
"4","4","retrieval","old_objects","323","Barbecue_Gas.jpg","0","0","2000"
"4","4","retrieval","new_objects","324","Helmet_Bicycle.jpg","37","1","758"
"4","4","retrieval","old_objects","325","Bag_Grains.jpg","36","1","806"
"4","4","retrieval","new_objects","326","HumanSkull.jpg","37","1","911"
"4","4","retrieval","new_objects","327","ProjectorScreen.jpg","0","0","2000"
"4","4","retrieval","new_objects","328","Stool_Camping.jpg","37","1","811"
"4","4","retrieval","new_objects","329","Cart_Janitor.jpg","37","1","1147"
"4","4","retrieval","new_objects","330","Machine_Bread.jpg","37","1","1108"
"4","4","retrieval","new_objects","331","Embosser.jpg","37","1","812"
"4","4","retrieval","new_objects","332","Hook_Fish.jpg","37","1","867"
"4","4","retrieval","new_objects","333","Foam_Accoustic.jpg","37","1","961"
"4","4","retrieval","old_objects","334","Box_Vials.jpg","36","1","1601"
"4","4","retrieval","old_objects","335","Branch.jpg","37","0","1733"
"4","4","retrieval","new_objects","336","Toy_Chicken.jpg","37","1","998"
"4","4","retrieval","old_objects","337","Mango.jpg","36","1","793"
"4","4","retrieval","old_objects","338","Chair_Car.jpg","37","0","977"
"4","4","retrieval","new_objects","339","Knee.jpg","37","1","971"
"4","4","retrieval","old_objects","340","Truck_Box.jpg","36","1","1097"
"4","4","retrieval","new_objects","341","AlcoholBar.jpg","37","1","1191"
"4","4","retrieval","new_objects","342","Protractor.jpg","37","1","1323"
"4","4","retrieval","new_objects","343","Caribou.jpg","0","0","2000"
"4","4","retrieval","new_objects","344","ChessPiece_Bishop.jpg","36","0","832"
"4","4","retrieval","old_objects","345","ToothPaste.jpg","36","1","758"
"4","4","retrieval","old_objects","346","Chinchilla.jpg","37","0","713"
"4","4","retrieval","new_objects","347","Milkshake_Strawberry.jpg","37","1","720"
"4","4","retrieval","old_objects","348","ShinPads.jpg","37","0","1103"
"4","4","retrieval","new_objects","349","HedgeShears.jpg","36","0","1286"
"4","4","retrieval","old_objects","350","Bottle_Oil.jpg","36","1","771"
"4","4","retrieval","new_objects","351","Snowpea.jpg","37","1","791"
"4","4","retrieval","old_objects","352","Dropper.jpg","36","1","1059"
"4","4","retrieval","old_objects","353","Chair_Folding.jpg","36","1","1431"
"4","4","retrieval","new_objects","354","Cup_sippy.jpg","37","1","790"
"4","4","retrieval","new_objects","355","Lock_Bike.jpg","37","1","1336"
"4","4","demographics_block","gender","1","Lock_Bike.jpg","Male","1","17680"
"4","4","demographics_block","age","1","Lock_Bike.jpg","36","1","17680"
"4","4","demographics_block","education","1","Lock_Bike.jpg","Master","1","17680"
"4","4","demographics_block","left_right_handed","2","Lock_Bike.jpg","Right","1","8147"
"4","4","demographics_block","raceoption1","2","Lock_Bike.jpg","0","1","8147"
"4","4","demographics_block","raceoption2","2","Lock_Bike.jpg","","1","8147"
"4","4","demographics_block","raceoption3","2","Lock_Bike.jpg","","1","8147"
"4","4","demographics_block","raceoption4","2","Lock_Bike.jpg","","1","8147"
"4","4","demographics_block","raceoption5","2","Lock_Bike.jpg","","1","8147"
"4","4","demographics_block","raceoption6","2","Lock_Bike.jpg","","1","8147"
"4","4","demographics_block","raceoption7","2","Lock_Bike.jpg","","1","8147"
"4","4","demographics_block","raceoption8","2","Lock_Bike.jpg","","1","8147"
"4","4","demographics_block","raceoption9","2","Lock_Bike.jpg","","1","8147"
"4","4","demographics_block","raceother","2","Lock_Bike.jpg","","1","8147"
"4","4","demographics_block","raceother","2","Lock_Bike.jpg","","1","8147"
"4","4","demographics_block","english_language","2","Lock_Bike.jpg","Yes","1","8147"
"4","4","demographics_block","english_languageother","2","Lock_Bike.jpg","","1","8147"
"4","4","demographics_block","eyesight","3","Lock_Bike.jpg","Yes","1","10586"
"4","4","demographics_block","colorblind","3","Lock_Bike.jpg","No","1","10586"
"4","4","worker_id_block","worker_id_textbox","1","Lock_Bike.jpg","A2AH0FADJ9PCES","1","51969"
"6","6","encoding","encoding","1","Leaf_Yellow.jpg","36","0","704"
"6","6","encoding","encoding","2","Dropper.jpg","37","0","607"
"6","6","encoding","encoding","3","Jar_Money.jpg","37","0","583"
"6","6","encoding","encoding","4","Mango.jpg","36","0","605"
"6","6","encoding","encoding","5","Lantern_Chinese.jpg","37","0","709"
"6","6","encoding","encoding","6","Wallet_ClosedBrown.jpg","37","0","525"
"6","6","encoding","encoding","7","Toy_Truck.jpg","37","0","524"
"6","6","encoding","encoding","8","ChariotGold.jpg","37","0","571"
"6","6","encoding","encoding","9","Cheque.jpg","37","0","714"
"6","6","encoding","encoding","10","ChalkboardEraser.jpg","37","0","666"
"6","6","encoding","encoding","11","Tray_Cafeteria.jpg","37","0","473"
"6","6","encoding","encoding","12","Binder.jpg","37","0","545"
"6","6","encoding","encoding","13","Quartz.jpg","36","0","743"
"6","6","encoding","encoding","14","SnowmanDecor.jpg","37","0","583"
"6","6","encoding","encoding","15","Exercise_Bike.jpg","37","0","542"
"6","6","encoding","encoding","16","ShinPads.jpg","37","0","734"
"6","6","encoding","encoding","17","BicycleGear.jpg","37","0","757"
"6","6","encoding","encoding","18","Box_Package.jpg","37","0","588"
"6","6","encoding","encoding","19","MalletJudge.jpg","37","0","452"
"6","6","encoding","encoding","20","Puzzle_Piece.jpg","37","0","787"
"6","6","encoding","encoding","21","Garbage_Can.jpg","37","0","482"
"6","6","encoding","encoding","22","Thimble.jpg","37","0","521"
"6","6","encoding","encoding","23","KiddiePool.jpg","37","0","592"
"6","6","encoding","encoding","24","Instrument_African.jpg","37","0","648"
"6","6","encoding","encoding","25","ShoulderPads.jpg","37","0","784"
"6","6","encoding","encoding","26","Chair_Bamboo.jpg","37","0","519"
"6","6","encoding","encoding","27","Toblerone.jpg","37","0","582"
"6","6","encoding","encoding","28","Generator.jpg","37","0","501"
"6","6","encoding","encoding","29","Cage_Hamster.jpg","37","0","693"
"6","6","encoding","encoding","30","Crate_Wine.jpg","37","0","716"
"6","6","encoding","encoding","31","Gloves_Bicycle.jpg","37","0","715"
"6","6","encoding","encoding","32","Bowtie.jpg","37","0","802"
"6","6","encoding","encoding","33","PharoahReplica.jpg","37","0","834"
"6","6","encoding","encoding","34","Match.jpg","37","0","689"
"6","6","encoding","encoding","35","Shorts_Sports.jpg","37","0","664"
"6","6","encoding","encoding","36","Sign_NoParking.jpg","37","0","552"
"6","6","encoding","encoding","37","SoundMixer_Blue.jpg","37","0","687"
"6","6","encoding","encoding","38","Toolbox_RedOpen.jpg","37","0","574"
"6","6","encoding","encoding","39","Knife_Hunting.jpg","37","0","494"
"6","6","encoding","encoding","40","Radio_Modern.jpg","37","0","445"
"6","6","encoding","encoding","41","TestTube_MultipleAndRack.jpg","37","0","581"
"6","6","encoding","encoding","42","Cassette_Video.jpg","37","0","564"
"6","6","encoding","encoding","43","DusterFeather.jpg","37","0","523"
"6","6","encoding","encoding","44","Motorcycle.jpg","37","0","538"
"6","6","encoding","encoding","45","Ball_Bowling.jpg","37","0","618"
"6","6","encoding","encoding","46","VacuumHose.jpg","37","0","481"
"6","6","encoding","encoding","47","Dresser_1.jpg","37","0","568"
"6","6","encoding","encoding","48","Chair_Car.jpg","37","0","479"
"6","6","encoding","encoding","49","Bench_Park.jpg","37","0","560"
"6","6","encoding","encoding","50","Camera_ProfessionalFilm.jpg","37","0","470"
"6","6","encoding","encoding","51","Walker_Silver.jpg","37","0","446"
"6","6","encoding","encoding","52","ChiliFlakes.jpg","37","0","829"
"6","6","encoding","encoding","53","DrillBit.jpg","37","0","420"
"6","6","encoding","encoding","54","Lock_Door.jpg","37","0","500"
"6","6","encoding","encoding","55","PizzaCutter.jpg","37","0","619"
"6","6","encoding","encoding","56","Apple_Candy.jpg","37","0","714"
"6","6","encoding","encoding","57","Tag_Identifier.jpg","37","0","609"
"6","6","encoding","encoding","58","Brush_Makeup.jpg","37","0","649"
"6","6","encoding","encoding","59","PencilCase.jpg","37","0","544"
"6","6","encoding","encoding","60","Handcuffs.jpg","37","0","471"
"6","6","encoding","encoding","62","Defribrillator.jpg","37","0","441"
"6","6","encoding","encoding","63","Sheep.jpg","36","0","537"
"6","6","encoding","encoding","64","SewingMachine.jpg","37","0","480"
"6","6","encoding","encoding","65","Chinchilla.jpg","36","0","631"
"6","6","encoding","encoding","66","Hammer.jpg","37","0","511"
"6","6","encoding","encoding","67","Hedgehog.jpg","36","0","558"
"6","6","encoding","encoding","68","Ashtray_Empty.jpg","37","0","509"
"6","6","encoding","encoding","69","Ball_Golf.jpg","37","0","660"
"6","6","encoding","encoding","70","ShoppingCart.jpg","37","0","484"
"6","6","encoding","encoding","71","Bell_Hand.jpg","37","0","499"
"6","6","encoding","encoding","72","Guitar_Electric.jpg","37","0","498"
"6","6","encoding","encoding","73","ComputerKeyboard.jpg","37","0","546"
"6","6","encoding","encoding","74","EyeExamDevice.jpg","37","0","641"
"6","6","encoding","encoding","75","Drum_Brazilan.jpg","37","0","664"
"6","6","encoding","encoding","76","Box_FirstAid.jpg","37","0","551"
"6","6","encoding","encoding","77","Box_Apples.jpg","37","0","927"
"6","6","encoding","encoding","78","BoxTrailer.jpg","37","0","527"
"6","6","encoding","encoding","79","MortarPestle_BlackStone.jpg","37","0","598"
"6","6","encoding","encoding","80","Book_Paper.jpg","37","0","901"
"6","6","encoding","encoding","81","Tube_Glue.jpg","37","0","1612"
"6","6","encoding","encoding","82","Cake_Wedding.jpg","37","0","939"
"6","6","encoding","encoding","83","BottleOpener.jpg","37","0","507"
"6","6","encoding","encoding","84","Jetski.jpg","37","0","530"
"6","6","encoding","encoding","85","Toy_Tractor_1.jpg","37","0","745"
"6","6","encoding","encoding","86","MoneyBill50.jpg","37","0","529"
"6","6","encoding","encoding","87","Golf_Club.jpg","37","0","584"
"6","6","encoding","encoding","88","Scissors.jpg","37","0","440"
"6","6","encoding","encoding","89","Bag_Grains.jpg","37","0","823"
"6","6","encoding","encoding","90","Snail.jpg","36","0","1054"
"6","6","encoding","encoding","91","Oneholepunch.jpg","37","0","998"
"6","6","encoding","encoding","92","Flute_Wooden.jpg","37","0","901"
"6","6","encoding","encoding","93","Tickets_PrintWords.jpg","37","0","732"
"6","6","encoding","encoding","94","BicycleChain.jpg","37","0","547"
"6","6","encoding","encoding","95","Can_OilSpout.jpg","37","0","514"
"6","6","encoding","encoding","96","ToothPaste.jpg","37","0","426"
"6","6","encoding","encoding","97","BicycleWheelRusty.jpg","37","0","497"
"6","6","encoding","encoding","98","CoinRolls.jpg","37","0","601"
"6","6","encoding","encoding","99","Crate_Milk.jpg","37","0","552"
"6","6","encoding","encoding","100","Tomato.jpg","36","0","575"
"6","6","encoding","encoding","101","Origami_Boat.jpg","37","0","551"
"6","6","encoding","encoding","102","HandMixer.jpg","37","0","446"
"6","6","encoding","encoding","103","Seal_Toy.jpg","36","0","669"
"6","6","encoding","encoding","104","Dolly.jpg","37","0","492"
"6","6","encoding","encoding","105","Bucket_Ice.jpg","37","0","532"
"6","6","encoding","encoding","106","ClothCoaster.jpg","37","0","595"
"6","6","encoding","encoding","107","RiceRaw.jpg","37","0","922"
"6","6","encoding","encoding","108","Pitcher.jpg","37","0","538"
"6","6","encoding","encoding","109","Stepper.jpg","37","0","489"
"6","6","encoding","encoding","110","Bark.jpg","37","0","696"
"6","6","encoding","encoding","111","CDstack.jpg","37","0","512"
"6","6","encoding","encoding","112","FireAlarm.jpg","37","0","535"
"6","6","encoding","encoding","113","Ball_Tennis.jpg","37","0","542"
"6","6","encoding","encoding","114","Door_Green.jpg","37","0","486"
"6","6","encoding","encoding","115","Branch.jpg","36","0","557"
"6","6","encoding","encoding","116","Lantern_Tea.jpg","37","0","524"
"6","6","encoding","encoding","117","Ball_Squashball.jpg","37","0","835"
"6","6","encoding","encoding","118","Perfume.jpg","37","0","507"
"6","6","encoding","encoding","119","Rag.jpg","37","0","650"
"6","6","encoding","encoding","120","Fan_Ceiling.jpg","37","0","786"
"6","6","encoding","encoding","121","Hockey_Equipment.jpg","37","0","585"
"6","6","encoding","encoding","123","TelephoneSwitchboard.jpg","37","0","544"
"6","6","encoding","encoding","124","Hoodie.jpg","37","0","567"
"6","6","encoding","encoding","125","ConnectorPlug.jpg","37","0","479"
"6","6","encoding","encoding","126","Triangle.jpg","37","0","438"
"6","6","encoding","encoding","127","Cork.jpg","37","0","614"
"6","6","encoding","encoding","128","Box_Vials.jpg","37","0","516"
"6","6","encoding","encoding","129","Toy_MrPotatoHeadjpg.jpg","37","0","436"
"6","6","encoding","encoding","130","Broom_Short.jpg","37","0","747"
"6","6","encoding","encoding","131","Heater_ElectricPortable.jpg","37","0","458"
"6","6","encoding","encoding","132","Clip_Paper.jpg","37","0","426"
"6","6","encoding","encoding","133","Toy_Lighthouse.jpg","37","0","505"
"6","6","encoding","encoding","134","SolderingWire.jpg","37","0","472"
"6","6","encoding","encoding","135","Truck_Box.jpg","37","0","488"
"6","6","encoding","encoding","136","Gauge.jpg","37","0","407"
"6","6","encoding","encoding","137","Barrel_Wine.jpg","37","0","470"
"6","6","encoding","encoding","138","Spoon_WoodenLight.jpg","37","0","518"
"6","6","encoding","encoding","139","Rake_Long.jpg","37","0","453"
"6","6","encoding","encoding","140","Box_JeweleryWooden.jpg","37","0","565"
"6","6","encoding","encoding","141","Toy_BlocksWoodenPlain.jpg","37","0","540"
"6","6","encoding","encoding","142","Sign_Construction.jpg","37","0","515"
"6","6","encoding","encoding","143","Card_QueenSpade.jpg","37","0","634"
"6","6","encoding","encoding","144","PencilSharpener.jpg","37","0","1042"
"6","6","encoding","encoding","145","Pants_Jeans.jpg","37","0","489"
"6","6","encoding","encoding","146","CashRegister_Modern.jpg","37","0","680"
"6","6","encoding","encoding","147","StringBean.jpg","36","0","1039"
"6","6","encoding","encoding","148","Film_Single.jpg","37","0","711"
"6","6","encoding","encoding","149","Hippopotamus.jpg","36","0","702"
"6","6","encoding","encoding","150","Stationary.jpg","37","0","517"
"6","6","encoding","encoding","151","Bread_Pita.jpg","37","0","1197"
"6","6","encoding","encoding","152","Bottle_Specimen.jpg","37","0","588"
"6","6","encoding","encoding","153","House_Doll.jpg","37","0","531"
"6","6","encoding","encoding","154","StampAndSeal.jpg","37","0","499"
"6","6","encoding","encoding","155","ToothbrushHolder.jpg","37","0","474"
"6","6","encoding","encoding","156","Toy_PoliceCar.jpg","37","0","577"
"6","6","encoding","encoding","157","Drink_Cocktail.jpg","37","0","705"
"6","6","encoding","encoding","158","Lollipop_Rainbow.jpg","37","0","600"
"6","6","encoding","encoding","159","TreeStump.jpg","36","0","1000"
"6","6","encoding","encoding","160","Bottle_Oil.jpg","37","0","886"
"6","6","encoding","encoding","161","Toast.jpg","37","0","814"
"6","6","encoding","encoding","162","Chimpanzee.jpg","36","0","885"
"6","6","encoding","encoding","163","PuppetTheatre_WhiteGold.jpg","37","0","525"
"6","6","encoding","encoding","164","BloodpPresureCuff.jpg","37","0","492"
"6","6","encoding","encoding","165","Barbecue_Gas.jpg","37","0","603"
"6","6","encoding","encoding","166","TotemPole.jpg","37","0","515"
"6","6","encoding","encoding","167","Paddle_Canoe.jpg","37","0","490"
"6","6","encoding","encoding","168","Loofa.jpg","37","0","1289"
"6","6","encoding","encoding","169","Mirror_Makeup.jpg","37","0","520"
"6","6","encoding","encoding","170","Shoe_WomenHeals.jpg","37","0","480"
"6","6","encoding","encoding","171","Brace_Back.jpg","37","0","519"
"6","6","encoding","encoding","172","Coatrack.jpg","37","0","494"
"6","6","encoding","encoding","173","Lens_Camera.jpg","37","0","478"
"6","6","encoding","encoding","174","Box_Staples.jpg","37","0","573"
"6","6","encoding","encoding","175","Statue_ManHorse.jpg","37","0","572"
"6","6","encoding","encoding","176","Towel.jpg","37","0","620"
"6","6","encoding","encoding","177","Chair_Folding.jpg","37","0","419"
"6","6","retrieval","old_objects","1","Box_Staples.jpg","36","1","843"
"6","6","retrieval","new_objects","2","Autocreeper.jpg","37","1","616"
"6","6","retrieval","old_objects","3","VacuumHose.jpg","37","0","718"
"6","6","retrieval","old_objects","4","TreeStump.jpg","36","1","664"
"6","6","retrieval","new_objects","5","Milkshake_Chocolate.jpg","37","1","788"
"6","6","retrieval","new_objects","6","Can_Olives.jpg","37","1","627"
"6","6","retrieval","new_objects","7","Button.jpg","37","1","1144"
"6","6","retrieval","old_objects","8","Chinchilla.jpg","36","1","849"
"6","6","retrieval","old_objects","9","Barbecue_Gas.jpg","37","0","718"
"6","6","retrieval","old_objects","10","Tube_Glue.jpg","36","1","880"
"6","6","retrieval","old_objects","11","Leaf_Yellow.jpg","37","0","659"
"6","6","retrieval","new_objects","12","Knee.jpg","37","1","1097"
"6","6","retrieval","old_objects","13","Door_Green.jpg","36","1","747"
"6","6","retrieval","new_objects","14","ToothBrush.jpg","37","1","1011"
"6","6","retrieval","old_objects","15","Bell_Hand.jpg","36","1","1402"
"6","6","retrieval","old_objects","16","EyeExamDevice.jpg","36","1","729"
"6","6","retrieval","new_objects","17","Olives.jpg","37","1","834"
"6","6","retrieval","new_objects","18","Helmet_Bicycle.jpg","37","1","823"
"6","6","retrieval","new_objects","19","AlcoholBar.jpg","37","1","821"
"6","6","retrieval","new_objects","20","Stamper.jpg","37","1","827"
"6","6","retrieval","old_objects","21","Bowtie.jpg","36","1","929"
"6","6","retrieval","new_objects","22","Machine_Bread.jpg","37","1","731"
"6","6","retrieval","new_objects","23","Clothespin_Beige.jpg","37","1","644"
"6","6","retrieval","old_objects","24","ToothPaste.jpg","36","1","857"
"6","6","retrieval","old_objects","25","PharoahReplica.jpg","36","1","758"
"6","6","retrieval","new_objects","26","Pot_Crock.jpg","37","1","647"
"6","6","retrieval","new_objects","27","Steamer.jpg","37","1","787"
"6","6","retrieval","old_objects","28","Cake_Wedding.jpg","36","1","739"
"6","6","retrieval","old_objects","29","Guitar_Electric.jpg","36","1","868"
"6","6","retrieval","old_objects","30","Box_FirstAid.jpg","36","1","792"
"6","6","retrieval","old_objects","31","Toy_MrPotatoHeadjpg.jpg","36","1","696"
"6","6","retrieval","new_objects","32","Earth_Planet.jpg","37","1","786"
"6","6","retrieval","old_objects","33","CoinRolls.jpg","36","1","705"
"6","6","retrieval","old_objects","34","Knife_Hunting.jpg","37","0","700"
"6","6","retrieval","new_objects","35","House_Stone.jpg","37","1","639"
"6","6","retrieval","old_objects","36","Drum_Brazilan.jpg","37","0","732"
"6","6","retrieval","new_objects","37","Drum_Set.jpg","37","1","702"
"6","6","retrieval","new_objects","38","Table_Saw.jpg","37","1","736"
"6","6","retrieval","old_objects","39","ShinPads.jpg","36","1","809"
"6","6","retrieval","new_objects","40","Tetrahedron.jpg","37","1","736"
"6","6","retrieval","old_objects","41","Dropper.jpg","36","1","857"
"6","6","retrieval","new_objects","42","Mask_VenetianLongNose.jpg","37","1","726"
"6","6","retrieval","new_objects","43","IceCreamCone.jpg","37","1","712"
"6","6","retrieval","old_objects","44","Toy_Tractor_1.jpg","36","1","795"
"6","6","retrieval","old_objects","45","Jetski.jpg","36","1","906"
"6","6","retrieval","new_objects","46","Beaker.jpg","37","1","556"
"6","6","retrieval","old_objects","47","ToothbrushHolder.jpg","37","0","525"
"6","6","retrieval","new_objects","48","Cane_Wooden.jpg","37","1","991"
"6","6","retrieval","new_objects","49","Backpack_Suitcase.jpg","37","1","727"
"6","6","retrieval","new_objects","50","Bench_Wooden.jpg","37","1","656"
"6","6","retrieval","old_objects","51","Lantern_Tea.jpg","37","0","893"
"6","6","retrieval","old_objects","52","Hoodie.jpg","37","0","616"
"6","6","retrieval","old_objects","53","MalletJudge.jpg","37","0","662"
"6","6","retrieval","old_objects","54","Ashtray_Empty.jpg","36","1","707"
"6","6","retrieval","new_objects","55","Toy_Rooster.jpg","37","1","582"
"6","6","retrieval","old_objects","56","Pants_Jeans.jpg","37","0","629"
"6","6","retrieval","old_objects","57","ClothCoaster.jpg","37","0","1355"
"6","6","retrieval","old_objects","58","SewingMachine.jpg","36","1","795"
"6","6","retrieval","new_objects","59","Candleholder_LampShaped.jpg","37","1","1330"
"6","6","retrieval","old_objects","60","Cassette_Video.jpg","36","1","1851"
"6","6","retrieval","old_objects","62","Handcuffs.jpg","36","1","848"
"6","6","retrieval","old_objects","63","ChiliFlakes.jpg","36","1","1230"
"6","6","retrieval","new_objects","64","BicycleWheel.jpg","37","1","691"
"6","6","retrieval","old_objects","65","Exercise_Bike.jpg","36","1","798"
"6","6","retrieval","old_objects","66","Binder.jpg","36","1","781"
"6","6","retrieval","old_objects","67","Wallet_ClosedBrown.jpg","36","1","724"
"6","6","retrieval","old_objects","68","Bread_Pita.jpg","36","1","662"
"6","6","retrieval","old_objects","69","Lantern_Chinese.jpg","36","1","659"
"6","6","retrieval","new_objects","70","Caribou.jpg","37","1","759"
"6","6","retrieval","new_objects","71","Clip_Binder.jpg","37","1","752"
"6","6","retrieval","new_objects","72","Staples.jpg","37","1","777"
"6","6","retrieval","new_objects","73","Protractor.jpg","37","1","585"
"6","6","retrieval","old_objects","74","Flute_Wooden.jpg","36","1","992"
"6","6","retrieval","old_objects","75","Toy_Truck.jpg","37","0","943"
"6","6","retrieval","old_objects","76","Perfume.jpg","37","0","961"
"6","6","retrieval","new_objects","77","TelescopeSpacecraft.jpg","37","1","817"
"6","6","retrieval","new_objects","78","LumiereBeautyBeast.jpg","37","1","679"
"6","6","retrieval","old_objects","79","House_Doll.jpg","37","0","714"
"6","6","retrieval","new_objects","80","PersonWooden.jpg","37","1","813"
"6","6","retrieval","new_objects","81","Locomotive.jpg","37","1","1218"
"6","6","retrieval","new_objects","82","Bowl_Sugar.jpg","37","1","1017"
"6","6","retrieval","new_objects","83","Cannister_GasVintage.jpg","37","1","519"
"6","6","retrieval","old_objects","84","Mango.jpg","36","1","729"
"6","6","retrieval","old_objects","85","Ball_Bowling.jpg","37","0","882"
"6","6","retrieval","new_objects","86","Makeup_Compact.jpg","37","1","822"
"6","6","retrieval","old_objects","87","Jar_Money.jpg","36","1","828"
"6","6","retrieval","new_objects","88","PotatoMasher_Grate.jpg","37","1","745"
"6","6","retrieval","old_objects","89","TotemPole.jpg","36","1","754"
"6","6","retrieval","new_objects","90","Stool_Camping.jpg","37","1","771"
"6","6","retrieval","new_objects","91","Shoes_Mould.jpg","37","1","771"
"6","6","retrieval","new_objects","92","Lips_Real.jpg","37","1","635"
"6","6","retrieval","new_objects","93","Arm.jpg","37","1","656"
"6","6","retrieval","new_objects","94","Dog_SaintBernard.jpg","37","1","653"
"6","6","retrieval","old_objects","95","Thimble.jpg","36","1","770"
"6","6","retrieval","new_objects","96","ToothPick.jpg","37","1","634"
"6","6","retrieval","old_objects","97","DrillBit.jpg","36","1","736"
"6","6","retrieval","new_objects","98","Toy_Chicken.jpg","37","1","680"
"6","6","retrieval","old_objects","99","SnowmanDecor.jpg","36","1","636"
"6","6","retrieval","new_objects","100","Milkshake_Strawberry.jpg","36","0","673"
"6","6","retrieval","old_objects","101","Drink_Cocktail.jpg","36","1","877"
"6","6","retrieval","new_objects","102","Film_Roll.jpg","37","1","617"
"6","6","retrieval","new_objects","103","Wheel_Steering.jpg","37","1","687"
"6","6","retrieval","old_objects","104","Heater_ElectricPortable.jpg","37","0","1002"
"6","6","retrieval","new_objects","105","Awning.jpg","37","1","769"
"6","6","retrieval","old_objects","106","BottleOpener.jpg","0","0","2000"
"6","6","retrieval","new_objects","107","Fence_ChainLink.jpg","37","1","591"
"6","6","retrieval","new_objects","108","Golf_Bag.jpg","37","1","647"
"6","6","retrieval","old_objects","109","ComputerKeyboard.jpg","37","0","571"
"6","6","retrieval","old_objects","110","Hippopotamus.jpg","36","1","587"
"6","6","retrieval","old_objects","111","Card_QueenSpade.jpg","36","1","803"
"6","6","retrieval","old_objects","112","Box_Package.jpg","36","1","753"
"6","6","retrieval","old_objects","113","Crate_Wine.jpg","36","1","602"
"6","6","retrieval","new_objects","114","Toy_BearBlackPlastic.jpg","37","1","665"
"6","6","retrieval","old_objects","115","Bucket_Ice.jpg","37","0","565"
"6","6","retrieval","new_objects","116","OrangeBlood.jpg","37","1","565"
"6","6","retrieval","new_objects","117","Van.jpg","37","1","557"
"6","6","retrieval","old_objects","118","Cage_Hamster.jpg","36","1","701"
"6","6","retrieval","new_objects","119","Boat_Colourful.jpg","37","1","720"
"6","6","retrieval","old_objects","120","Cheque.jpg","37","0","722"
"6","6","retrieval","new_objects","121","FlipFlop_SingleRed.jpg","37","1","548"
"6","6","retrieval","old_objects","123","MortarPestle_BlackStone.jpg","36","1","738"
"6","6","retrieval","new_objects","124","Bird_Tern.jpg","37","1","596"
"6","6","retrieval","new_objects","125","Briefcase_Silver.jpg","37","1","578"
"6","6","retrieval","new_objects","126","Lilypad.jpg","37","1","609"
"6","6","retrieval","new_objects","127","Mitt_Oven.jpg","37","1","552"
"6","6","retrieval","old_objects","128","MoneyBill50.jpg","37","0","649"
"6","6","retrieval","old_objects","129","Apple_Candy.jpg","37","0","661"
"6","6","retrieval","new_objects","130","Bucket_Halloween.jpg","37","1","609"
"6","6","retrieval","old_objects","131","PuppetTheatre_WhiteGold.jpg","36","1","632"
"6","6","retrieval","old_objects","132","Generator.jpg","36","1","677"
"6","6","retrieval","old_objects","133","BicycleGear.jpg","36","1","649"
"6","6","retrieval","old_objects","134","Tag_Identifier.jpg","37","0","702"
"6","6","retrieval","new_objects","135","Monitor.jpg","37","1","704"
"6","6","retrieval","old_objects","136","Garbage_Can.jpg","37","0","555"
"6","6","retrieval","old_objects","137","Film_Single.jpg","36","1","540"
"6","6","retrieval","new_objects","138","Toy_WinnieThePooh.jpg","37","1","654"
"6","6","retrieval","old_objects","139","Bark.jpg","36","1","602"
"6","6","retrieval","old_objects","140","Camera_ProfessionalFilm.jpg","37","0","721"
"6","6","retrieval","new_objects","141","Stove_Portable.jpg","36","0","690"
"6","6","retrieval","new_objects","142","Toad.jpg","37","1","606"
"6","6","retrieval","old_objects","143","ChalkboardEraser.jpg","36","1","621"
"6","6","retrieval","new_objects","144","Chair_Office.jpg","37","1","658"
"6","6","retrieval","old_objects","145","TestTube_MultipleAndRack.jpg","36","1","759"
"6","6","retrieval","old_objects","146","Stepper.jpg","36","1","816"
"6","6","retrieval","old_objects","147","Tray_Cafeteria.jpg","36","1","654"
"6","6","retrieval","new_objects","148","Loveseat.jpg","37","1","603"
"6","6","retrieval","old_objects","149","Radio_Modern.jpg","37","0","489"
"6","6","retrieval","old_objects","150","Hockey_Equipment.jpg","37","0","500"
"6","6","retrieval","new_objects","151","Glove_Baseball.jpg","37","1","615"
"6","6","retrieval","old_objects","152","TelephoneSwitchboard.jpg","36","1","685"
"6","6","retrieval","old_objects","153","Lollipop_Rainbow.jpg","36","1","568"
"6","6","retrieval","old_objects","154","Defribrillator.jpg","36","1","656"
"6","6","retrieval","old_objects","155","Paddle_Canoe.jpg","36","1","573"
"6","6","retrieval","new_objects","156","Chainsaw.jpg","37","1","709"
"6","6","retrieval","old_objects","157","Stationary.jpg","36","1","632"
"6","6","retrieval","new_objects","158","BumperCar.jpg","37","1","741"
"6","6","retrieval","old_objects","159","ChariotGold.jpg","36","1","679"
"6","6","retrieval","old_objects","160","BicycleWheelRusty.jpg","36","1","594"
"6","6","retrieval","old_objects","161","ConnectorPlug.jpg","36","1","682"
"6","6","retrieval","old_objects","162","Spoon_WoodenLight.jpg","36","1","605"
"6","6","retrieval","old_objects","163","StampAndSeal.jpg","36","1","660"
"6","6","retrieval","new_objects","164","Maraca.jpg","36","0","584"
"6","6","retrieval","old_objects","165","Ball_Golf.jpg","36","1","568"
"6","6","retrieval","old_objects","166","Towel.jpg","37","0","544"
"6","6","retrieval","new_objects","167","EspressoMachine.jpg","37","1","736"
"6","6","retrieval","new_objects","168","AnsweringMachine.jpg","37","1","609"
"6","6","retrieval","new_objects","169","Cherry.jpg","36","0","520"
"6","6","retrieval","old_objects","170","Bottle_Oil.jpg","37","0","642"
"6","6","retrieval","old_objects","171","BoxTrailer.jpg","36","1","671"
"6","6","retrieval","old_objects","172","Hammer.jpg","37","0","675"
"6","6","retrieval","old_objects","173","Box_JeweleryWooden.jpg","37","0","1168"
"6","6","retrieval","new_objects","174","Toy_BearBrownPlushie.jpg","37","1","703"
"6","6","retrieval","new_objects","175","Hat_Beret.jpg","37","1","562"
"6","6","retrieval","new_objects","176","ReindeerHeadband.jpg","37","1","562"
"6","6","retrieval","new_objects","177","Abacus.jpg","37","1","810"
"6","6","retrieval","old_objects","178","ShoulderPads.jpg","36","1","697"
"6","6","retrieval","new_objects","179","TelephoneJack.jpg","37","1","587"
"6","6","retrieval","new_objects","180","Slide.jpg","37","1","667"
"6","6","retrieval","new_objects","181","Waffle.jpg","36","0","567"
"6","6","retrieval","old_objects","182","Gauge.jpg","37","0","575"
"6","6","retrieval","new_objects","184","DogLeash.jpg","37","1","558"
"6","6","retrieval","new_objects","185","Mattress.jpg","37","1","543"
"6","6","retrieval","old_objects","186","Ball_Squashball.jpg","37","0","416"
"6","6","retrieval","old_objects","187","Toast.jpg","37","0","558"
"6","6","retrieval","new_objects","188","Arch_Triomphe.jpg","37","1","687"
"6","6","retrieval","new_objects","189","RiceCooker.jpg","37","1","522"
"6","6","retrieval","new_objects","190","Mug_Ceramic.jpg","37","1","588"
"6","6","retrieval","old_objects","191","Shorts_Sports.jpg","37","0","739"
"6","6","retrieval","new_objects","192","BookShelf.jpg","37","1","525"
"6","6","retrieval","old_objects","193","Instrument_African.jpg","37","0","542"
"6","6","retrieval","old_objects","194","Barrel_Wine.jpg","37","0","536"
"6","6","retrieval","new_objects","195","ChessPiece_Bishop.jpg","37","1","473"
"6","6","retrieval","old_objects","196","Motorcycle.jpg","37","0","469"
"6","6","retrieval","new_objects","197","Cranberry.jpg","37","1","601"
"6","6","retrieval","old_objects","198","Brush_Makeup.jpg","37","0","480"
"6","6","retrieval","new_objects","199","Sushi.jpg","37","1","707"
"6","6","retrieval","old_objects","200","Hedgehog.jpg","36","1","566"
"6","6","retrieval","old_objects","201","Toy_BlocksWoodenPlain.jpg","37","0","694"
"6","6","retrieval","new_objects","202","Toy_Car.jpg","37","1","488"
"6","6","retrieval","new_objects","203","Can_Milk.jpg","37","1","621"
"6","6","retrieval","old_objects","204","HandMixer.jpg","37","0","530"
"6","6","retrieval","old_objects","205","RiceRaw.jpg","36","1","579"
"6","6","retrieval","old_objects","206","Sheep.jpg","36","1","571"
"6","6","retrieval","old_objects","207","Cork.jpg","36","1","659"
"6","6","retrieval","old_objects","208","BicycleChain.jpg","36","1","632"
"6","6","retrieval","old_objects","209","Rake_Long.jpg","36","1","565"
"6","6","retrieval","new_objects","210","PaperCutter.jpg","37","1","613"
"6","6","retrieval","new_objects","211","Light_Fixtures.jpg","37","1","659"
"6","6","retrieval","new_objects","212","Ginger.jpg","37","1","616"
"6","6","retrieval","old_objects","213","Fan_Ceiling.jpg","37","0","494"
"6","6","retrieval","old_objects","214","Broom_Short.jpg","36","1","729"
"6","6","retrieval","old_objects","215","Chair_Bamboo.jpg","36","1","595"
"6","6","retrieval","new_objects","216","Iguana.jpg","37","1","586"
"6","6","retrieval","new_objects","217","Toy_LambPlushie.jpg","37","1","705"
"6","6","retrieval","new_objects","218","House_Rural.jpg","37","1","588"
"6","6","retrieval","new_objects","219","Playard.jpg","37","1","587"
"6","6","retrieval","old_objects","220","DusterFeather.jpg","37","0","514"
"6","6","retrieval","old_objects","221","Match.jpg","36","1","1252"
"6","6","retrieval","old_objects","222","Pitcher.jpg","36","1","697"
"6","6","retrieval","old_objects","223","Ball_Tennis.jpg","36","1","572"
"6","6","retrieval","new_objects","224","Birdhouse.jpg","37","1","580"
"6","6","retrieval","new_objects","225","Foam_Accoustic.jpg","37","1","635"
"6","6","retrieval","new_objects","226","PanCooking.jpg","37","1","760"
"6","6","retrieval","old_objects","227","Seal_Toy.jpg","37","0","505"
"6","6","retrieval","new_objects","228","Candy_Lozenge.jpg","37","1","572"
"6","6","retrieval","new_objects","229","Snowpea.jpg","36","0","604"
"6","6","retrieval","new_objects","230","Cup_sippy.jpg","37","1","626"
"6","6","retrieval","old_objects","231","Lock_Door.jpg","37","0","512"
"6","6","retrieval","new_objects","232","Cart_Janitor.jpg","37","1","530"
"6","6","retrieval","new_objects","233","Gun_Bazooka.jpg","37","1","500"
"6","6","retrieval","old_objects","234","Dresser_1.jpg","37","0","590"
"6","6","retrieval","old_objects","235","StringBean.jpg","36","1","534"
"6","6","retrieval","old_objects","236","Toy_PoliceCar.jpg","37","0","511"
"6","6","retrieval","new_objects","237","Brush_Windshield.jpg","37","1","729"
"6","6","retrieval","new_objects","238","BasketballHoop.jpg","37","1","506"
"6","6","retrieval","old_objects","239","KiddiePool.jpg","37","0","541"
"6","6","retrieval","new_objects","240","Helicopter.jpg","37","1","550"
"6","6","retrieval","new_objects","241","Hook_Fish.jpg","37","1","607"
"6","6","retrieval","old_objects","242","Snail.jpg","36","1","630"
"6","6","retrieval","old_objects","243","SoundMixer_Blue.jpg","37","0","579"
"6","6","retrieval","old_objects","245","Box_Apples.jpg","36","1","849"
"6","6","retrieval","old_objects","246","Tickets_PrintWords.jpg","36","1","597"
"6","6","retrieval","old_objects","247","Bag_Grains.jpg","36","1","628"
"6","6","retrieval","old_objects","248","Shoe_WomenHeals.jpg","37","0","514"
"6","6","retrieval","new_objects","249","KitchenCloth.jpg","37","1","660"
"6","6","retrieval","old_objects","250","Box_Vials.jpg","37","0","617"
"6","6","retrieval","new_objects","251","FlipFlop_PairBlue.jpg","36","0","519"
"6","6","retrieval","new_objects","252","Outhouse.jpg","37","1","560"
"6","6","retrieval","new_objects","253","Barbecue_Charcoal.jpg","37","1","488"
"6","6","retrieval","old_objects","254","CashRegister_Modern.jpg","37","0","524"
"6","6","retrieval","new_objects","255","Lobster.jpg","37","1","598"
"6","6","retrieval","new_objects","256","Cornucopia.jpg","37","1","581"
"6","6","retrieval","new_objects","257","Taco.jpg","37","1","613"
"6","6","retrieval","new_objects","258","Bowl_Lemons.jpg","37","1","554"
"6","6","retrieval","old_objects","259","Loofa.jpg","36","1","603"
"6","6","retrieval","new_objects","260","Glove_Rubber.jpg","37","1","593"
"6","6","retrieval","old_objects","261","Tomato.jpg","36","1","601"
"6","6","retrieval","new_objects","262","Truck_Army.jpg","37","1","519"
"6","6","retrieval","old_objects","263","Origami_Boat.jpg","37","0","714"
"6","6","retrieval","new_objects","264","ShakerShekere.jpg","37","1","580"
"6","6","retrieval","old_objects","265","Dolly.jpg","37","0","1674"
"6","6","retrieval","new_objects","266","Ashtray_Cigarettes.jpg","37","1","1206"
"6","6","retrieval","old_objects","267","Walker_Silver.jpg","37","0","501"
"6","6","retrieval","new_objects","268","Camera_Video.jpg","37","1","504"
"6","6","retrieval","new_objects","269","Bottle_Baby.jpg","37","1","442"
"6","6","retrieval","old_objects","270","Toy_Lighthouse.jpg","37","0","440"
"6","6","retrieval","old_objects","271","FireAlarm.jpg","37","0","565"
"6","6","retrieval","new_objects","272","Candle_Blue.jpg","37","1","493"
"6","6","retrieval","new_objects","273","Lock_Bike.jpg","37","1","528"
"6","6","retrieval","old_objects","274","Book_Paper.jpg","37","0","442"
"6","6","retrieval","old_objects","275","Brace_Back.jpg","37","0","527"
"6","6","retrieval","old_objects","276","Bench_Park.jpg","36","1","641"
"6","6","retrieval","new_objects","277","Clock_Digital.jpg","37","1","462"
"6","6","retrieval","old_objects","278","ShoppingCart.jpg","36","1","507"
"6","6","retrieval","new_objects","279","TreeHouse.jpg","37","1","502"
"6","6","retrieval","new_objects","280","Grenade.jpg","37","1","584"
"6","6","retrieval","new_objects","281","Embosser.jpg","37","1","472"
"6","6","retrieval","new_objects","282","Desk_White.jpg","37","1","476"
"6","6","retrieval","old_objects","283","Sign_Construction.jpg","36","1","528"
"6","6","retrieval","new_objects","284","ProjectorScreen.jpg","37","1","465"
"6","6","retrieval","old_objects","285","Chair_Car.jpg","37","0","533"
"6","6","retrieval","new_objects","286","Bucket_WoodenLight.jpg","37","1","438"
"6","6","retrieval","new_objects","287","Hat_Feather.jpg","37","1","548"
"6","6","retrieval","new_objects","288","Ladybug.jpg","37","1","565"
"6","6","retrieval","old_objects","289","Toblerone.jpg","37","0","596"
"6","6","retrieval","new_objects","290","Bread_Melon.jpg","36","0","675"
"6","6","retrieval","new_objects","291","Suspenders.jpg","37","1","503"
"6","6","retrieval","new_objects","292","Statue_Buddha.jpg","37","1","553"
"6","6","retrieval","old_objects","293","Lens_Camera.jpg","37","0","514"
"6","6","retrieval","new_objects","294","Rope_Manila.jpg","37","1","540"
"6","6","retrieval","new_objects","295","FlintIgniter.jpg","37","1","574"
"6","6","retrieval","new_objects","296","WaterGun.jpg","37","1","566"
"6","6","retrieval","new_objects","297","Mixer_Hand.jpg","37","1","493"
"6","6","retrieval","new_objects","298","Seal_animal.jpg","37","1","528"
"6","6","retrieval","new_objects","299","Noisemaker_Streamers.jpg","37","1","553"
"6","6","retrieval","new_objects","300","LeatherPuncherTool.jpg","37","1","554"
"6","6","retrieval","new_objects","301","Shoe_Men.jpg","37","1","435"
"6","6","retrieval","old_objects","302","Toolbox_RedOpen.jpg","37","0","480"
"6","6","retrieval","new_objects","303","Drum_Bongos.jpg","37","1","659"
"6","6","retrieval","new_objects","304","Bolt.jpg","37","1","448"
"6","6","retrieval","old_objects","306","Chair_Folding.jpg","37","0","497"
"6","6","retrieval","new_objects","307","HumanSkull.jpg","37","1","524"
"6","6","retrieval","new_objects","308","Bugle.jpg","37","1","470"
"6","6","retrieval","old_objects","309","Clip_Paper.jpg","37","0","450"
"6","6","retrieval","new_objects","310","PuppetTheatre_BlueRed.jpg","36","0","575"
"6","6","retrieval","old_objects","311","Coatrack.jpg","37","0","543"
"6","6","retrieval","old_objects","312","Rag.jpg","37","0","640"
"6","6","retrieval","old_objects","313","Quartz.jpg","36","1","645"
"6","6","retrieval","new_objects","314","Thermostat_Digital.jpg","36","0","666"
"6","6","retrieval","old_objects","315","Puzzle_Piece.jpg","37","0","462"
"6","6","retrieval","new_objects","316","Cracker_Saltine.jpg","36","0","642"
"6","6","retrieval","new_objects","317","Bag_String.jpg","37","1","647"
"6","6","retrieval","new_objects","318","ChocolateBar_HalfUnwrapped.jpg","0","0","2000"
"6","6","retrieval","old_objects","319","Scissors.jpg","37","0","499"
"6","6","retrieval","old_objects","320","Golf_Club.jpg","37","0","389"
"6","6","retrieval","old_objects","321","CDstack.jpg","37","0","509"
"6","6","retrieval","new_objects","322","Origami_Ox.jpg","37","1","504"
"6","6","retrieval","old_objects","323","Triangle.jpg","37","0","458"
"6","6","retrieval","new_objects","324","Tuxedo.jpg","37","1","439"
"6","6","retrieval","new_objects","325","HedgeShears.jpg","37","1","412"
"6","6","retrieval","old_objects","326","Chimpanzee.jpg","37","0","482"
"6","6","retrieval","new_objects","327","Boardgame_Checkers.jpg","37","1","582"
"6","6","retrieval","new_objects","328","Tricycle.jpg","37","1","462"
"6","6","retrieval","old_objects","329","PencilSharpener.jpg","37","0","394"
"6","6","retrieval","old_objects","330","Sign_NoParking.jpg","37","0","457"
"6","6","retrieval","old_objects","331","BloodpPresureCuff.jpg","37","0","470"
"6","6","retrieval","new_objects","332","Staircase_Curving.jpg","37","1","530"
"6","6","retrieval","new_objects","333","Bag_Computer.jpg","37","1","467"
"6","6","retrieval","old_objects","334","SolderingWire.jpg","37","0","479"
"6","6","retrieval","old_objects","335","Bottle_Specimen.jpg","37","0","539"
"6","6","retrieval","old_objects","336","PencilCase.jpg","37","0","532"
"6","6","retrieval","old_objects","337","Mirror_Makeup.jpg","37","0","541"
"6","6","retrieval","new_objects","338","Cymbals.jpg","37","1","839"
"6","6","retrieval","new_objects","339","Bellows.jpg","37","1","836"
"6","6","retrieval","old_objects","340","Oneholepunch.jpg","37","0","970"
"6","6","retrieval","old_objects","341","Gloves_Bicycle.jpg","37","0","522"
"6","6","retrieval","old_objects","342","Branch.jpg","36","1","676"
"6","6","retrieval","new_objects","343","Bib.jpg","37","1","472"
"6","6","retrieval","new_objects","344","BicycleBrake.jpg","37","1","532"
"6","6","retrieval","old_objects","345","PizzaCutter.jpg","36","1","701"
"6","6","retrieval","old_objects","346","Crate_Milk.jpg","37","0","576"
"6","6","retrieval","old_objects","347","Can_OilSpout.jpg","37","0","615"
"6","6","retrieval","new_objects","348","Box_FirstAidOpen.jpg","37","1","638"
"6","6","retrieval","new_objects","349","Helmet_Motorcycle.jpg","37","1","579"
"6","6","retrieval","old_objects","350","Statue_ManHorse.jpg","37","0","555"
"6","6","retrieval","new_objects","351","Gun_Nerf.jpg","37","1","755"
"6","6","retrieval","old_objects","352","Truck_Box.jpg","37","0","468"
"6","6","retrieval","new_objects","353","Guacamole.jpg","37","1","560"
"6","6","retrieval","new_objects","354","EyeDrops.jpg","37","1","464"
"6","6","retrieval","new_objects","355","LintRemover.jpg","37","1","549"
"6","6","demographics_block","gender","1","LintRemover.jpg","male","1","7828"
"6","6","demographics_block","age","1","LintRemover.jpg","35","1","7828"
"6","6","demographics_block","education","1","LintRemover.jpg","16","1","7828"
"6","6","demographics_block","left_right_handed","2","LintRemover.jpg","Right","1","4398"
"6","6","demographics_block","raceoption1","2","LintRemover.jpg","0","1","4398"
"6","6","demographics_block","raceoption2","2","LintRemover.jpg","","1","4398"
"6","6","demographics_block","raceoption3","2","LintRemover.jpg","","1","4398"
"6","6","demographics_block","raceoption4","2","LintRemover.jpg","","1","4398"
"6","6","demographics_block","raceoption5","2","LintRemover.jpg","","1","4398"
"6","6","demographics_block","raceoption6","2","LintRemover.jpg","","1","4398"
"6","6","demographics_block","raceoption7","2","LintRemover.jpg","","1","4398"
"6","6","demographics_block","raceoption8","2","LintRemover.jpg","","1","4398"
"6","6","demographics_block","raceoption9","2","LintRemover.jpg","","1","4398"
"6","6","demographics_block","raceother","2","LintRemover.jpg","","1","4398"
"6","6","demographics_block","raceother","2","LintRemover.jpg","","1","4398"
"6","6","demographics_block","english_language","2","LintRemover.jpg","Yes","1","4398"
"6","6","demographics_block","english_languageother","2","LintRemover.jpg","","1","4398"
"6","6","demographics_block","eyesight","3","LintRemover.jpg","Yes","1","3549"
"6","6","demographics_block","colorblind","3","LintRemover.jpg","No","1","3549"
"6","6","worker_id_block","worker_id_textbox","1","LintRemover.jpg","A2E3TO92MCQ9XU","1","2188"
"7","7","encoding","encoding","1","Chair_Car.jpg","37","0","974"
"7","7","encoding","encoding","2","PharoahReplica.jpg","37","0","1312"
"7","7","encoding","encoding","3","TotemPole.jpg","37","0","1376"
"7","7","encoding","encoding","4","Bucket_Ice.jpg","37","0","780"
"7","7","encoding","encoding","5","Bowtie.jpg","37","0","1019"
"7","7","encoding","encoding","6","Lens_Camera.jpg","37","0","634"
"7","7","encoding","encoding","7","Ball_Bowling.jpg","37","0","880"
"7","7","encoding","encoding","8","Flute_Wooden.jpg","37","0","690"
"7","7","encoding","encoding","9","Toolbox_RedOpen.jpg","37","0","628"
"7","7","encoding","encoding","10","Toy_Truck.jpg","37","0","542"
"7","7","encoding","encoding","11","Handcuffs.jpg","37","0","679"
"7","7","encoding","encoding","12","Tomato.jpg","36","0","702"
"7","7","encoding","encoding","13","Golf_Club.jpg","37","0","506"
"7","7","encoding","encoding","14","Ashtray_Empty.jpg","37","0","698"
"7","7","encoding","encoding","15","Bell_Hand.jpg","37","0","551"
"7","7","encoding","encoding","16","Cork.jpg","37","0","810"
"7","7","encoding","encoding","17","Bread_Pita.jpg","37","0","1180"
"7","7","encoding","encoding","18","Drink_Cocktail.jpg","37","0","825"
"7","7","encoding","encoding","19","Jetski.jpg","37","0","651"
"7","7","encoding","encoding","20","Towel.jpg","37","0","737"
"7","7","encoding","encoding","21","Spoon_WoodenLight.jpg","37","0","947"
"7","7","encoding","encoding","22","Barbecue_Gas.jpg","37","0","562"
"7","7","encoding","encoding","23","Lollipop_Rainbow.jpg","37","0","1380"
"7","7","encoding","encoding","24","Can_OilSpout.jpg","37","0","788"
"7","7","encoding","encoding","25","Ball_Squashball.jpg","37","0","922"
"7","7","encoding","encoding","26","Mango.jpg","36","0","813"
"7","7","encoding","encoding","27","Mirror_Makeup.jpg","37","0","571"
"7","7","encoding","encoding","28","Jar_Money.jpg","37","0","613"
"7","7","encoding","encoding","29","Chinchilla.jpg","36","0","711"
"7","7","encoding","encoding","30","SewingMachine.jpg","37","0","695"
"7","7","encoding","encoding","31","Walker_Silver.jpg","37","0","638"
"7","7","encoding","encoding","32","Box_Apples.jpg","36","0","640"
"7","7","encoding","encoding","33","Box_Staples.jpg","37","0","713"
"7","7","encoding","encoding","34","Thimble.jpg","37","0","1090"
"7","7","encoding","encoding","35","CashRegister_Modern.jpg","37","0","588"
"7","7","encoding","encoding","36","SnowmanDecor.jpg","37","0","984"
"7","7","encoding","encoding","37","Chimpanzee.jpg","37","0","578"
"7","7","encoding","encoding","38","Tickets_PrintWords.jpg","37","0","740"
"7","7","encoding","encoding","39","Bag_Grains.jpg","36","0","1186"
"7","7","encoding","encoding","40","Tray_Cafeteria.jpg","37","0","589"
"7","7","encoding","encoding","41","Puzzle_Piece.jpg","37","0","662"
"7","7","encoding","encoding","42","Binder.jpg","37","0","643"
"7","7","encoding","encoding","43","DusterFeather.jpg","37","0","771"
"7","7","encoding","encoding","44","Pants_Jeans.jpg","37","0","760"
"7","7","encoding","encoding","45","Gauge.jpg","37","0","619"
"7","7","encoding","encoding","46","BicycleChain.jpg","37","0","639"
"7","7","encoding","encoding","47","Stationary.jpg","37","0","600"
"7","7","encoding","encoding","48","Triangle.jpg","37","0","553"
"7","7","encoding","encoding","49","Motorcycle.jpg","37","0","590"
"7","7","encoding","encoding","50","Crate_Wine.jpg","37","0","975"
"7","7","encoding","encoding","51","Door_Green.jpg","37","0","617"
"7","7","encoding","encoding","52","Shoe_WomenHeals.jpg","37","0","620"
"7","7","encoding","encoding","53","Toy_Lighthouse.jpg","37","0","692"
"7","7","encoding","encoding","54","Toblerone.jpg","37","0","782"
"7","7","encoding","encoding","55","Instrument_African.jpg","37","0","903"
"7","7","encoding","encoding","56","Drum_Brazilan.jpg","37","0","705"
"7","7","encoding","encoding","57","StringBean.jpg","36","0","615"
"7","7","encoding","encoding","58","Lantern_Tea.jpg","37","0","559"
"7","7","encoding","encoding","59","BicycleGear.jpg","37","0","608"
"7","7","encoding","encoding","60","BoxTrailer.jpg","37","0","655"
"7","7","encoding","encoding","62","Pitcher.jpg","37","0","805"
"7","7","encoding","encoding","63","SolderingWire.jpg","37","0","690"
"7","7","encoding","encoding","64","Hammer.jpg","37","0","559"
"7","7","encoding","encoding","65","MoneyBill50.jpg","37","0","761"
"7","7","encoding","encoding","66","DrillBit.jpg","37","0","592"
"7","7","encoding","encoding","67","ShoulderPads.jpg","37","0","628"
"7","7","encoding","encoding","68","Camera_ProfessionalFilm.jpg","37","0","661"
"7","7","encoding","encoding","69","PizzaCutter.jpg","37","0","561"
"7","7","encoding","encoding","70","Truck_Box.jpg","37","0","590"
"7","7","encoding","encoding","71","BicycleWheelRusty.jpg","37","0","556"
"7","7","encoding","encoding","72","FireAlarm.jpg","37","0","629"
"7","7","encoding","encoding","73","Cassette_Video.jpg","37","0","651"
"7","7","encoding","encoding","74","Toy_PoliceCar.jpg","37","0","717"
"7","7","encoding","encoding","75","Statue_ManHorse.jpg","37","0","623"
"7","7","encoding","encoding","76","Crate_Milk.jpg","37","0","510"
"7","7","encoding","encoding","77","Stepper.jpg","37","0","609"
"7","7","encoding","encoding","78","Toast.jpg","37","0","1132"
"7","7","encoding","encoding","79","Loofa.jpg","36","0","1604"
"7","7","encoding","encoding","80","Dropper.jpg","37","0","700"
"7","7","encoding","encoding","81","CoinRolls.jpg","37","0","767"
"7","7","encoding","encoding","82","Box_Vials.jpg","37","0","568"
"7","7","encoding","encoding","83","Paddle_Canoe.jpg","37","0","988"
"7","7","encoding","encoding","84","Lantern_Chinese.jpg","37","0","613"
"7","7","encoding","encoding","85","CDstack.jpg","37","0","488"
"7","7","encoding","encoding","86","Toy_MrPotatoHeadjpg.jpg","37","0","735"
"7","7","encoding","encoding","87","Hippopotamus.jpg","37","0","894"
"7","7","encoding","encoding","88","EyeExamDevice.jpg","37","0","653"
"7","7","encoding","encoding","89","Ball_Golf.jpg","37","0","478"
"7","7","encoding","encoding","90","Toy_BlocksWoodenPlain.jpg","37","0","1682"
"7","7","encoding","encoding","91","Book_Paper.jpg","37","0","876"
"7","7","encoding","encoding","92","Box_Package.jpg","37","0","828"
"7","7","encoding","encoding","93","Quartz.jpg","36","0","1854"
"7","7","encoding","encoding","94","Knife_Hunting.jpg","37","0","756"
"7","7","encoding","encoding","95","House_Doll.jpg","37","0","737"
"7","7","encoding","encoding","96","Sign_Construction.jpg","37","0","781"
"7","7","encoding","encoding","97","RiceRaw.jpg","36","0","849"
"7","7","encoding","encoding","98","StampAndSeal.jpg","37","0","660"
"7","7","encoding","encoding","99","ShoppingCart.jpg","37","0","595"
"7","7","encoding","encoding","100","ClothCoaster.jpg","37","0","699"
"7","7","encoding","encoding","101","Hoodie.jpg","37","0","590"
"7","7","encoding","encoding","102","Chair_Folding.jpg","37","0","570"
"7","7","encoding","encoding","103","Ball_Tennis.jpg","37","0","588"
"7","7","encoding","encoding","104","ChiliFlakes.jpg","36","0","947"
"7","7","encoding","encoding","105","Perfume.jpg","37","0","645"
"7","7","encoding","encoding","106","ComputerKeyboard.jpg","37","0","535"
"7","7","encoding","encoding","107","Branch.jpg","36","0","1439"
"7","7","encoding","encoding","108","ToothbrushHolder.jpg","37","0","718"
"7","7","encoding","encoding","109","Clip_Paper.jpg","37","0","703"
"7","7","encoding","encoding","110","MalletJudge.jpg","37","0","578"
"7","7","encoding","encoding","111","Dresser_1.jpg","37","0","925"
"7","7","encoding","encoding","112","Bench_Park.jpg","37","0","514"
"7","7","encoding","encoding","113","Fan_Ceiling.jpg","37","0","561"
"7","7","encoding","encoding","114","Leaf_Yellow.jpg","36","0","726"
"7","7","encoding","encoding","115","Origami_Boat.jpg","37","0","594"
"7","7","encoding","encoding","116","Hedgehog.jpg","36","0","737"
"7","7","encoding","encoding","117","Guitar_Electric.jpg","37","0","526"
"7","7","encoding","encoding","118","Wallet_ClosedBrown.jpg","37","0","593"
"7","7","encoding","encoding","119","Defribrillator.jpg","37","0","572"
"7","7","encoding","encoding","120","TelephoneSwitchboard.jpg","37","0","582"
"7","7","encoding","encoding","121","Film_Single.jpg","37","0","795"
"7","7","encoding","encoding","123","Apple_Candy.jpg","37","0","956"
"7","7","encoding","encoding","124","Seal_Toy.jpg","37","0","1325"
"7","7","encoding","encoding","125","SoundMixer_Blue.jpg","37","0","560"
"7","7","encoding","encoding","126","ChariotGold.jpg","37","0","651"
"7","7","encoding","encoding","127","TreeStump.jpg","37","0","1825"
"7","7","encoding","encoding","128","Generator.jpg","37","0","623"
"7","7","encoding","encoding","129","Lock_Door.jpg","37","0","519"
"7","7","encoding","encoding","130","Brace_Back.jpg","37","0","549"
"7","7","encoding","encoding","131","Box_JeweleryWooden.jpg","37","0","465"
"7","7","encoding","encoding","132","Tag_Identifier.jpg","37","0","557"
"7","7","encoding","encoding","133","Bottle_Specimen.jpg","37","0","580"
"7","7","encoding","encoding","134","Card_QueenSpade.jpg","37","0","498"
"7","7","encoding","encoding","135","Heater_ElectricPortable.jpg","37","0","595"
"7","7","encoding","encoding","136","Radio_Modern.jpg","37","0","580"
"7","7","encoding","encoding","137","Brush_Makeup.jpg","37","0","516"
"7","7","encoding","encoding","138","BottleOpener.jpg","37","0","535"
"7","7","encoding","encoding","139","KiddiePool.jpg","37","0","528"
"7","7","encoding","encoding","140","Barrel_Wine.jpg","37","0","596"
"7","7","encoding","encoding","141","Oneholepunch.jpg","37","0","502"
"7","7","encoding","encoding","142","Box_FirstAid.jpg","37","0","490"
"7","7","encoding","encoding","143","Bottle_Oil.jpg","37","0","582"
"7","7","encoding","encoding","144","Dolly.jpg","37","0","492"
"7","7","encoding","encoding","145","ShinPads.jpg","37","0","502"
"7","7","encoding","encoding","146","Snail.jpg","36","0","1241"
"7","7","encoding","encoding","147","PuppetTheatre_WhiteGold.jpg","37","0","594"
"7","7","encoding","encoding","148","PencilSharpener.jpg","37","0","698"
"7","7","encoding","encoding","149","Cheque.jpg","37","0","639"
"7","7","encoding","encoding","150","VacuumHose.jpg","37","0","554"
"7","7","encoding","encoding","151","Broom_Short.jpg","37","0","634"
"7","7","encoding","encoding","152","Bark.jpg","36","0","1397"
"7","7","encoding","encoding","153","Match.jpg","37","0","753"
"7","7","encoding","encoding","154","Tube_Glue.jpg","37","0","583"
"7","7","encoding","encoding","155","Coatrack.jpg","37","0","637"
"7","7","encoding","encoding","156","Scissors.jpg","37","0","489"
"7","7","encoding","encoding","157","TestTube_MultipleAndRack.jpg","37","0","492"
"7","7","encoding","encoding","158","ChalkboardEraser.jpg","37","0","628"
"7","7","encoding","encoding","159","Sign_NoParking.jpg","37","0","483"
"7","7","encoding","encoding","160","Shorts_Sports.jpg","37","0","558"
"7","7","encoding","encoding","161","Hockey_Equipment.jpg","37","0","534"
"7","7","encoding","encoding","162","PencilCase.jpg","37","0","514"
"7","7","encoding","encoding","163","BloodpPresureCuff.jpg","37","0","545"
"7","7","encoding","encoding","164","Chair_Bamboo.jpg","37","0","543"
"7","7","encoding","encoding","165","Cage_Hamster.jpg","37","0","593"
"7","7","encoding","encoding","166","ToothPaste.jpg","37","0","652"
"7","7","encoding","encoding","167","Garbage_Can.jpg","37","0","562"
"7","7","encoding","encoding","168","Rake_Long.jpg","37","0","486"
"7","7","encoding","encoding","169","HandMixer.jpg","37","0","500"
"7","7","encoding","encoding","170","MortarPestle_BlackStone.jpg","37","0","520"
"7","7","encoding","encoding","171","Gloves_Bicycle.jpg","37","0","481"
"7","7","encoding","encoding","172","ConnectorPlug.jpg","37","0","675"
"7","7","encoding","encoding","173","Sheep.jpg","36","0","813"
"7","7","encoding","encoding","174","Rag.jpg","37","0","837"
"7","7","encoding","encoding","175","Exercise_Bike.jpg","37","0","525"
"7","7","encoding","encoding","176","Cake_Wedding.jpg","37","0","484"
"7","7","encoding","encoding","177","Toy_Tractor_1.jpg","37","0","549"
"7","7","retrieval","old_objects","1","Box_Staples.jpg","36","1","712"
"7","7","retrieval","old_objects","2","PizzaCutter.jpg","36","1","617"
"7","7","retrieval","old_objects","3","Lollipop_Rainbow.jpg","36","1","657"
"7","7","retrieval","old_objects","4","Origami_Boat.jpg","36","1","723"
"7","7","retrieval","new_objects","5","Tuxedo.jpg","37","1","848"
"7","7","retrieval","old_objects","6","Bowtie.jpg","36","1","927"
"7","7","retrieval","old_objects","7","Cassette_Video.jpg","36","1","904"
"7","7","retrieval","old_objects","8","Sign_Construction.jpg","36","1","1244"
"7","7","retrieval","old_objects","9","Tag_Identifier.jpg","36","1","756"
"7","7","retrieval","old_objects","10","ToothPaste.jpg","37","0","1183"
"7","7","retrieval","new_objects","11","Grenade.jpg","37","1","927"
"7","7","retrieval","old_objects","12","MortarPestle_BlackStone.jpg","36","1","906"
"7","7","retrieval","new_objects","13","EyeDrops.jpg","37","1","779"
"7","7","retrieval","old_objects","14","Paddle_Canoe.jpg","36","1","692"
"7","7","retrieval","old_objects","15","ShoulderPads.jpg","36","1","846"
"7","7","retrieval","new_objects","16","Protractor.jpg","37","1","723"
"7","7","retrieval","new_objects","17","Gun_Nerf.jpg","37","1","1007"
"7","7","retrieval","old_objects","18","Defribrillator.jpg","36","1","896"
"7","7","retrieval","old_objects","19","Crate_Wine.jpg","36","1","758"
"7","7","retrieval","new_objects","20","Tricycle.jpg","37","1","1108"
"7","7","retrieval","new_objects","21","ReindeerHeadband.jpg","37","1","802"
"7","7","retrieval","new_objects","22","Makeup_Compact.jpg","37","1","1313"
"7","7","retrieval","old_objects","23","Gloves_Bicycle.jpg","36","1","702"
"7","7","retrieval","old_objects","24","PharoahReplica.jpg","36","1","765"
"7","7","retrieval","old_objects","25","ComputerKeyboard.jpg","36","1","902"
"7","7","retrieval","new_objects","26","Box_FirstAidOpen.jpg","36","0","1249"
"7","7","retrieval","new_objects","27","PersonWooden.jpg","37","1","741"
"7","7","retrieval","new_objects","28","Stove_Portable.jpg","37","1","974"
"7","7","retrieval","new_objects","29","Taco.jpg","37","1","722"
"7","7","retrieval","old_objects","30","ChalkboardEraser.jpg","36","1","680"
"7","7","retrieval","old_objects","31","Instrument_African.jpg","36","1","803"
"7","7","retrieval","new_objects","32","Helmet_Bicycle.jpg","37","1","1192"
"7","7","retrieval","new_objects","33","ToothBrush.jpg","37","1","1056"
"7","7","retrieval","new_objects","34","PanCooking.jpg","36","0","1007"
"7","7","retrieval","old_objects","35","Box_Vials.jpg","37","0","1268"
"7","7","retrieval","new_objects","36","Golf_Bag.jpg","36","0","1703"
"7","7","retrieval","new_objects","37","Machine_Bread.jpg","37","1","1407"
"7","7","retrieval","new_objects","38","Bag_Computer.jpg","37","1","923"
"7","7","retrieval","old_objects","39","Tomato.jpg","36","1","678"
"7","7","retrieval","old_objects","40","Toy_MrPotatoHeadjpg.jpg","36","1","648"
"7","7","retrieval","old_objects","41","Snail.jpg","36","1","672"
"7","7","retrieval","old_objects","42","Quartz.jpg","36","1","652"
"7","7","retrieval","old_objects","43","Drink_Cocktail.jpg","36","1","674"
"7","7","retrieval","old_objects","44","Puzzle_Piece.jpg","36","1","1455"
"7","7","retrieval","old_objects","45","Box_FirstAid.jpg","36","1","669"
"7","7","retrieval","new_objects","46","Knee.jpg","37","1","817"
"7","7","retrieval","old_objects","47","TreeStump.jpg","36","1","833"
"7","7","retrieval","new_objects","48","Toy_Rooster.jpg","37","1","850"
"7","7","retrieval","new_objects","49","Stool_Camping.jpg","37","1","1304"
"7","7","retrieval","old_objects","50","Stationary.jpg","36","1","731"
"7","7","retrieval","old_objects","51","Radio_Modern.jpg","36","1","690"
"7","7","retrieval","new_objects","52","Chair_Office.jpg","37","1","1288"
"7","7","retrieval","old_objects","53","DrillBit.jpg","36","1","675"
"7","7","retrieval","new_objects","54","Brush_Windshield.jpg","37","1","1199"
"7","7","retrieval","new_objects","55","Toad.jpg","37","1","756"
"7","7","retrieval","old_objects","56","Dolly.jpg","36","1","750"
"7","7","retrieval","new_objects","57","Barbecue_Charcoal.jpg","37","1","851"
"7","7","retrieval","new_objects","58","Cherry.jpg","37","1","1025"
"7","7","retrieval","old_objects","59","Box_Apples.jpg","36","1","729"
"7","7","retrieval","old_objects","60","Jar_Money.jpg","36","1","648"
"7","7","retrieval","new_objects","62","Hook_Fish.jpg","37","1","831"
"7","7","retrieval","old_objects","63","Bark.jpg","36","1","612"
"7","7","retrieval","new_objects","64","Toy_WinnieThePooh.jpg","37","1","709"
"7","7","retrieval","new_objects","65","Shoes_Mould.jpg","37","1","889"
"7","7","retrieval","old_objects","66","Ball_Golf.jpg","36","1","673"
"7","7","retrieval","old_objects","67","Mango.jpg","36","1","660"
"7","7","retrieval","old_objects","68","Bottle_Specimen.jpg","37","0","723"
"7","7","retrieval","new_objects","69","Foam_Accoustic.jpg","37","1","757"
"7","7","retrieval","new_objects","70","Ashtray_Cigarettes.jpg","37","1","711"
"7","7","retrieval","new_objects","71","Bucket_WoodenLight.jpg","37","1","1202"
"7","7","retrieval","old_objects","72","Box_JeweleryWooden.jpg","37","0","1037"
"7","7","retrieval","new_objects","73","Mattress.jpg","37","1","856"
"7","7","retrieval","old_objects","74","Gauge.jpg","36","1","646"
"7","7","retrieval","new_objects","75","LumiereBeautyBeast.jpg","36","0","1453"
"7","7","retrieval","old_objects","76","Truck_Box.jpg","36","1","709"
"7","7","retrieval","new_objects","77","Cart_Janitor.jpg","37","1","1631"
"7","7","retrieval","new_objects","78","Statue_Buddha.jpg","37","1","1034"
"7","7","retrieval","old_objects","79","Mirror_Makeup.jpg","36","1","703"
"7","7","retrieval","new_objects","80","House_Stone.jpg","37","1","924"
"7","7","retrieval","new_objects","81","Van.jpg","37","1","945"
"7","7","retrieval","old_objects","82","BottleOpener.jpg","36","1","1012"
"7","7","retrieval","new_objects","83","PuppetTheatre_BlueRed.jpg","37","1","827"
"7","7","retrieval","new_objects","84","ChocolateBar_HalfUnwrapped.jpg","37","1","718"
"7","7","retrieval","new_objects","85","Lilypad.jpg","37","1","731"
"7","7","retrieval","new_objects","86","Glove_Rubber.jpg","37","1","673"
"7","7","retrieval","new_objects","87","Candy_Lozenge.jpg","37","1","799"
"7","7","retrieval","old_objects","88","ShinPads.jpg","36","1","889"
"7","7","retrieval","new_objects","89","Monitor.jpg","37","1","861"
"7","7","retrieval","new_objects","90","Bowl_Sugar.jpg","36","0","1746"
"7","7","retrieval","new_objects","91","Suspenders.jpg","37","1","769"
"7","7","retrieval","new_objects","92","Rope_Manila.jpg","37","1","741"
"7","7","retrieval","old_objects","93","MoneyBill50.jpg","36","1","735"
"7","7","retrieval","new_objects","94","Playard.jpg","37","1","1047"
"7","7","retrieval","new_objects","95","BicycleWheel.jpg","37","1","799"
"7","7","retrieval","old_objects","96","Ashtray_Empty.jpg","37","0","1378"
"7","7","retrieval","old_objects","97","Generator.jpg","36","1","1316"
"7","7","retrieval","new_objects","98","Can_Olives.jpg","37","1","818"
"7","7","retrieval","new_objects","99","Arm.jpg","37","1","651"
"7","7","retrieval","old_objects","100","Golf_Club.jpg","36","1","650"
"7","7","retrieval","old_objects","101","CashRegister_Modern.jpg","36","1","788"
"7","7","retrieval","old_objects","102","Door_Green.jpg","36","1","681"
"7","7","retrieval","old_objects","103","TelephoneSwitchboard.jpg","36","1","687"
"7","7","retrieval","old_objects","104","StampAndSeal.jpg","36","1","730"
"7","7","retrieval","new_objects","105","Mitt_Oven.jpg","36","0","1410"
"7","7","retrieval","new_objects","106","Cannister_GasVintage.jpg","36","0","1461"
"7","7","retrieval","new_objects","107","Milkshake_Chocolate.jpg","37","1","849"
