"group","subject","blockcode","trialcode","trialnum","values.stimulus","response","correct","latency"
"1","1","encoding","encoding","1","Photocopier.jpg","0","0","2001"
"1","1","encoding","encoding","2","RamAnimal.jpg","0","0","2001"
"1","1","encoding","encoding","3","Camera_ProfessionalFilm.jpg","0","0","2001"
"1","1","encoding","encoding","4","ServiceBell.jpg","Ctrl+'B'","0","0"
"1","1","retrieval","new_objects","1","Bag_String.jpg","Ctrl+'B'","1","885"
"1","1","demographics_block","gender","1","Bag_String.jpg","","1","1559"
"1","1","demographics_block","age","1","Bag_String.jpg","","1","1559"
"1","1","demographics_block","education","1","Bag_String.jpg","","1","1559"
"2","2","encoding","encoding","1","Glasses_Sun.jpg","37","0","1245"
"2","2","encoding","encoding","2","Makeup_Compact.jpg","37","0","640"
"2","2","encoding","encoding","3","Shovel_Sandbox.jpg","36","0","1105"
"2","2","encoding","encoding","4","Stepper.jpg","36","0","674"
"2","2","encoding","encoding","5","FloppyDisk.jpg","37","0","691"
"2","2","encoding","encoding","6","Bottle_Oil.jpg","36","0","609"
"2","2","encoding","encoding","7","Can_Milk.jpg","37","0","606"
"2","2","encoding","encoding","8","DryingMachine.jpg","36","0","682"
"2","2","encoding","encoding","9","Pipe_Pitch.jpg","37","0","650"
"2","2","encoding","encoding","10","Statue_Horse.jpg","37","0","966"
"2","2","encoding","encoding","11","Thumbtack.jpg","37","0","744"
"2","2","encoding","encoding","12","Card_TwoSpade.jpg","37","0","741"
"2","2","encoding","encoding","13","Hulahoop.jpg","36","0","987"
"2","2","encoding","encoding","14","OrigamiPaper.jpg","37","0","825"
"2","2","encoding","encoding","15","BoxTrailer.jpg","36","0","783"
"2","2","encoding","encoding","16","Carbiner_Ascender.jpg","37","0","800"
"2","2","encoding","encoding","17","Instrument_Nyckelharpa.jpg","36","0","788"
"2","2","encoding","encoding","18","RibbonSpool.jpg","37","0","886"
"2","2","encoding","encoding","19","ProcessorFood_Modern.jpg","36","0","773"
"2","2","encoding","encoding","20","PaperShredder.jpg","36","0","611"
"2","2","encoding","encoding","21","Castle_Model.jpg","36","0","1037"
"2","2","encoding","encoding","22","CanOpener.jpg","37","0","855"
"2","2","encoding","encoding","23","MannequinHead.jpg","36","0","1142"
"2","2","encoding","encoding","24","SolderingIron.jpg","36","0","1110"
"2","2","encoding","encoding","25","MusicSheet.jpg","37","0","1128"
"2","2","encoding","encoding","26","GrillRack.jpg","36","0","896"
"2","2","encoding","encoding","27","Strainer_Tea.jpg","37","0","884"
"2","2","encoding","encoding","28","Camera_ProfessionalFilm.jpg","36","0","703"
"2","2","encoding","encoding","29","Boombox.jpg","36","0","611"
"2","2","encoding","encoding","30","Nametag.jpg","37","0","988"
"2","2","encoding","encoding","31","RiceCooker.jpg","36","0","717"
"2","2","encoding","encoding","32","Case_Pencil.jpg","37","0","934"
"2","2","encoding","encoding","33","NetButterfly.jpg","36","0","773"
"2","2","encoding","encoding","34","Hoverboard.jpg","36","0","1080"
"2","2","encoding","encoding","35","Hangar.jpg","36","0","1038"
"2","2","encoding","encoding","36","Pasta_Fettuccine.jpg","37","0","867"
"2","2","encoding","encoding","37","DiaperChangingStation.jpg","36","0","776"
"2","2","encoding","encoding","38","Playdoh.jpg","37","0","814"
"2","2","encoding","encoding","39","WalkieTalkie_Red.jpg","37","0","1041"
"2","2","encoding","encoding","40","Hourglass.jpg","36","0","1040"
"2","2","encoding","encoding","41","Boot_Rain.jpg","36","0","470"
"2","2","encoding","encoding","42","TelescopeSpacecraft.jpg","36","0","788"
"2","2","encoding","encoding","43","Toy_BearBlackPlastic.jpg","37","0","1036"
"2","2","encoding","encoding","44","Lettuce_Romaine.jpg","36","0","1194"
"2","2","encoding","encoding","45","Snorkle.jpg","36","0","924"
"2","2","encoding","encoding","46","Snake_Cobra.jpg","37","0","1027"
"2","2","encoding","encoding","47","Toy_Drill.jpg","37","0","717"
"2","2","encoding","encoding","48","PowderProtein.jpg","36","0","966"
"2","2","encoding","encoding","49","Clock_Radioalarm.jpg","36","0","1164"
"2","2","encoding","encoding","50","Playard.jpg","36","0","535"
"2","2","encoding","encoding","51","Hat_Feather.jpg","36","0","853"
"2","2","encoding","encoding","52","Crib_Standard.jpg","36","0","483"
"2","2","encoding","encoding","53","Flashlight.jpg","37","0","841"
"2","2","encoding","encoding","54","Carousel copy.jpg","37","0","890"
"2","2","encoding","encoding","55","PharoahReplica.jpg","36","0","979"
"2","2","encoding","encoding","56","Ashtray_Empty.jpg","37","0","819"
"2","2","encoding","encoding","57","Abacus.jpg","36","0","808"
"2","2","encoding","encoding","58","Noisemaker.jpg","37","0","689"
"2","2","encoding","encoding","59","Bat_Cricket.jpg","36","0","608"
"2","2","encoding","encoding","60","Bat_Baseball.jpg","36","0","608"
"2","2","encoding","encoding","62","Exercise_Bike.jpg","36","0","703"
"2","2","encoding","encoding","63","Ghost.jpg","37","0","662"
"2","2","encoding","encoding","64","TestTube_Single.jpg","37","0","677"
"2","2","encoding","encoding","65","Crossbow.jpg","36","0","597"
"2","2","encoding","encoding","66","Gazebo.jpg","36","0","467"
"2","2","encoding","encoding","67","Camera_Digital.jpg","36","0","706"
"2","2","encoding","encoding","68","Cane_Metal.jpg","36","0","536"
"2","2","encoding","encoding","69","Toy_RaceTrack.jpg","36","0","1084"
"2","2","encoding","encoding","70","PlayerFootball.jpg","36","0","735"
"2","2","encoding","encoding","71","RamAnimal.jpg","36","0","735"
"2","2","encoding","encoding","72","Horn_Hunting.jpg","37","0","815"
"2","2","encoding","encoding","73","Centrifuge.jpg","36","0","1114"
"2","2","encoding","encoding","74","Cannister_GasVintage.jpg","36","0","595"
"2","2","encoding","encoding","75","Photocopier.jpg","36","0","565"
"2","2","encoding","encoding","76","Tortilla.jpg","36","0","974"
"2","2","encoding","encoding","77","Microscope.jpg","36","0","645"
"2","2","encoding","encoding","78","StreetSweeper.jpg","36","0","695"
"2","2","encoding","encoding","79","NeedlesAcupuncture.jpg","37","0","895"
"2","2","encoding","encoding","80","RollingPin.jpg","36","0","825"
"2","2","encoding","encoding","81","Doll_Rag.jpg","37","0","696"
"2","2","encoding","encoding","82","Squid_Pink.jpg","37","0","805"
"2","2","encoding","encoding","83","Toy_BlocksWoodenPlain.jpg","37","0","786"
"2","2","encoding","encoding","84","PaintBrushAndPallette.jpg","36","0","1334"
"2","2","encoding","encoding","85","Bird_Hen.jpg","36","0","1165"
"2","2","encoding","encoding","86","SiloGrain.jpg","36","0","737"
"2","2","encoding","encoding","87","Brush_Toilet.jpg","37","0","967"
"2","2","encoding","encoding","88","Pillar.jpg","36","0","679"
"2","2","encoding","encoding","89","Megaphone.jpg","36","0","839"
"2","2","encoding","encoding","90","Broom_Short.jpg","36","0","1168"
"2","2","encoding","encoding","91","Thimble.jpg","37","0","680"
"2","2","encoding","encoding","92","SpinningWheel.jpg","36","0","581"
"2","2","encoding","encoding","93","Mug_Beer.jpg","37","0","632"
"2","2","encoding","encoding","94","Drum_Tall.jpg","36","0","842"
"2","2","encoding","encoding","95","BicycleSeat.jpg","37","0","1201"
"2","2","encoding","encoding","96","CompassCardinal.jpg","37","0","893"
"2","2","encoding","encoding","97","Scorpion.jpg","37","0","724"
"2","2","encoding","encoding","98","Chair_Barber.jpg","36","0","685"
"2","2","encoding","encoding","99","Keg.jpg","36","0","974"
"2","2","encoding","encoding","100","Toblerone.jpg","37","0","1752"
"2","2","encoding","encoding","101","Toy_Chameleon.jpg","36","0","99"
"2","2","encoding","encoding","102","Egg_Chocolate.jpg","37","0","897"
"2","2","encoding","encoding","103","ServiceBell.jpg","37","0","699"
"2","2","encoding","encoding","104","Tap.jpg","37","0","898"
"2","2","encoding","encoding","105","Radio_Vintage.jpg","36","0","1049"
"2","2","encoding","encoding","106","Box_Vials.jpg","36","0","1428"
"2","2","encoding","encoding","107","Archery_Arrows.jpg","36","0","861"
"2","2","encoding","encoding","108","Pliers_SlipJoint.jpg","37","0","822"
"2","2","encoding","encoding","109","TreeHouse.jpg","36","0","614"
"2","2","encoding","encoding","110","Cannon.jpg","36","0","755"
"2","2","encoding","encoding","111","ChariotGold.jpg","36","0","1304"
"2","2","encoding","encoding","112","Statue_Man.jpg","36","0","796"
"2","2","encoding","encoding","113","Teapot.jpg","37","0","798"
"2","2","encoding","encoding","114","WalkieTalkie_Yellow.jpg","37","0","629"
"2","2","encoding","encoding","115","Tray_Metal.jpg","36","0","550"
"2","2","encoding","encoding","116","Tiara.jpg","36","0","949"
"2","2","encoding","encoding","117","Grenade.jpg","37","0","810"
"2","2","encoding","encoding","118","Shorts_Plaid.jpg","36","0","1210"
"2","2","encoding","encoding","119","Flamingo_Real.jpg","36","0","753"
"2","2","encoding","encoding","120","DentalFloss.jpg","37","0","1053"
"2","2","encoding","encoding","121","PassionFruit.jpg","37","0","775"
"2","2","encoding","encoding","123","Barometer.jpg","37","0","1009"
"2","2","encoding","encoding","124","Potato.jpg","37","0","790"
"2","2","encoding","encoding","125","Toy_Shark.jpg","36","0","941"
"2","2","encoding","encoding","126","Cranberry.jpg","37","0","903"
"2","2","encoding","encoding","127","Pepperoni.jpg","37","0","784"
"2","2","encoding","encoding","128","Diode.jpg","36","0","835"
"2","2","encoding","encoding","129","Skates.jpg","37","0","1006"
"2","2","encoding","encoding","130","FuseBox.jpg","36","0","758"
"2","2","encoding","encoding","131","Goose_Canadian.jpg","36","0","639"
"2","2","encoding","encoding","132","Wire_Soldering.jpg","37","0","910"
"2","2","encoding","encoding","133","Fuse.jpg","37","0","861"
"2","2","encoding","encoding","134","Honeydew_Green.jpg","36","0","1312"
"2","2","encoding","encoding","135","NintendoWii.jpg","36","0","917"
"2","2","encoding","encoding","136","ScaleWeighing.jpg","36","0","727"
"2","2","encoding","encoding","137","TowelRack_Metal.jpg","36","0","1057"
"2","2","encoding","encoding","138","DrinkShaker.jpg","37","0","909"
"2","2","encoding","encoding","139","TestTube_MultipleAndRack.jpg","37","0","1031"
"2","2","encoding","encoding","140","Crown.jpg","37","0","1301"
"2","2","encoding","encoding","141","ComputerMouse.jpg","37","0","745"
"2","2","encoding","encoding","142","Golf_Club.jpg","36","0","716"
"2","2","encoding","encoding","143","Bird_Duck.jpg","36","0","788"
"2","2","encoding","encoding","144","Axe.jpg","36","0","779"
"2","2","encoding","encoding","145","GuineaPig.jpg","37","0","761"
"2","2","encoding","encoding","146","OnionRings.jpg","37","0","902"
"2","2","encoding","encoding","147","MeterElectric.jpg","37","0","794"
"2","2","encoding","encoding","148","Bag_Saline.jpg","37","0","1145"
"2","2","encoding","encoding","149","Sashimi.jpg","37","0","948"
"2","2","encoding","encoding","150","Frame_Oval.jpg","37","0","1059"
"2","2","encoding","encoding","151","Basket_Straw.jpg","36","0","603"
"2","2","encoding","encoding","152","Chainsaw.jpg","36","0","684"
"2","2","encoding","encoding","153","BowlingPin.jpg","36","0","727"
"2","2","encoding","encoding","154","ConnectorPlug.jpg","37","0","788"
"2","2","encoding","encoding","155","BearPolar.jpg","36","0","800"
"2","2","encoding","encoding","156","Nuts_Peanuts.jpg","37","0","942"
"2","2","encoding","encoding","157","Archery_ArrowsBows.jpg","36","0","745"
"2","2","encoding","encoding","158","Toy_MerryGoRound.jpg","37","0","837"
"2","2","encoding","encoding","159","Banana.jpg","37","0","924"
"2","2","encoding","encoding","160","Syringe_Needle.jpg","37","0","816"
"2","2","encoding","encoding","161","Staples.jpg","37","0","1008"
"2","2","encoding","encoding","162","Ruler_Triangle.jpg","37","0","731"
"2","2","encoding","encoding","163","Pasta_Penne.jpg","37","0","733"
"2","2","encoding","encoding","164","Backpack_Suitcase.jpg","36","0","815"
"2","2","encoding","encoding","165","PatioHeater.jpg","36","0","698"
"2","2","encoding","encoding","166","Qtip_Multiple.jpg","37","0","691"
"2","2","encoding","encoding","167","Pliers_NeedleNose.jpg","37","0","723"
"2","2","encoding","encoding","168","BicycleHandleGrip.jpg","37","0","865"
"2","2","encoding","encoding","169","Mug_Ceramic.jpg","37","0","718"
"2","2","encoding","encoding","170","Gloves_Bicycle.jpg","37","0","830"
"2","2","encoding","encoding","171","Stapler_Regular.jpg","37","0","702"
"2","2","encoding","encoding","172","Clamp.jpg","37","0","994"
"2","2","encoding","encoding","173","Mask_African.jpg","36","0","957"
"2","2","encoding","encoding","174","GingerbreadMan.jpg","37","0","710"
"2","2","encoding","encoding","175","Candy_GummyBear.jpg","37","0","613"
"2","2","encoding","encoding","176","MobilityScooter.jpg","36","0","1049"
"2","2","encoding","encoding","177","Truck_Box.jpg","36","0","692"
"2","2","retrieval","new_objects","1","Box_Floral.jpg","37","1","1040"
"2","2","retrieval","old_objects","2","Truck_Box.jpg","36","1","857"
"2","2","retrieval","old_objects","3","Bird_Hen.jpg","36","1","659"
"2","2","retrieval","old_objects","4","Cannister_GasVintage.jpg","36","1","692"
"2","2","retrieval","new_objects","5","Cantaloupe.jpg","37","1","725"
"2","2","retrieval","new_objects","6","Lectern.jpg","36","0","763"
"2","2","retrieval","old_objects","7","Shorts_Plaid.jpg","36","1","596"
"2","2","retrieval","old_objects","8","DentalFloss.jpg","36","1","678"
"2","2","retrieval","old_objects","9","Flashlight.jpg","36","1","726"
"2","2","retrieval","old_objects","10","CanOpener.jpg","36","1","894"
"2","2","retrieval","new_objects","11","PhoneJack.jpg","37","1","965"
"2","2","retrieval","new_objects","12","Clarinet.jpg","37","1","681"
"2","2","retrieval","new_objects","13","SewingPin_Single.jpg","36","0","701"
"2","2","retrieval","old_objects","14","MannequinHead.jpg","36","1","773"
"2","2","retrieval","new_objects","15","Distaff.jpg","36","0","631"
"2","2","retrieval","new_objects","16","Guitarcase.jpg","37","1","699"
"2","2","retrieval","old_objects","17","Abacus.jpg","36","1","722"
"2","2","retrieval","new_objects","18","Knife_Camping.jpg","37","1","729"
"2","2","retrieval","new_objects","19","Boardgame_Checkers.jpg","37","1","577"
"2","2","retrieval","new_objects","20","Seashell_BayScallop.jpg","37","1","476"
"2","2","retrieval","old_objects","21","Frame_Oval.jpg","36","1","634"
"2","2","retrieval","old_objects","22","Gloves_Bicycle.jpg","36","1","642"
"2","2","retrieval","old_objects","23","Pillar.jpg","36","1","696"
"2","2","retrieval","old_objects","24","Tortilla.jpg","36","1","549"
"2","2","retrieval","new_objects","25","BikiniTop.jpg","37","1","562"
"2","2","retrieval","old_objects","26","PassionFruit.jpg","37","0","556"
"2","2","retrieval","new_objects","27","Tray_Wooden.jpg","36","0","879"
"2","2","retrieval","new_objects","28","TreeStump.jpg","37","1","557"
"2","2","retrieval","old_objects","29","Bird_Duck.jpg","36","1","590"
"2","2","retrieval","old_objects","30","Pepperoni.jpg","36","1","514"
"2","2","retrieval","new_objects","31","WindshieldWasherFluid.jpg","37","1","672"
"2","2","retrieval","new_objects","32","Toolbox_Red.jpg","37","1","601"
"2","2","retrieval","old_objects","33","Banana.jpg","36","1","534"
"2","2","retrieval","new_objects","34","Cassette_Video.jpg","37","1","613"
"2","2","retrieval","old_objects","35","Ashtray_Empty.jpg","36","1","601"
"2","2","retrieval","old_objects","36","Toblerone.jpg","36","1","645"
"2","2","retrieval","new_objects","37","Egg_Cup.jpg","37","1","548"
"2","2","retrieval","new_objects","38","Dog_SaintBernard.jpg","37","1","582"
"2","2","retrieval","new_objects","39","Bag_Gym.jpg","36","0","740"
"2","2","retrieval","new_objects","40","Can_MilkAntique.jpg","37","1","703"
"2","2","retrieval","new_objects","41","Pear_Green.jpg","37","1","646"
"2","2","retrieval","new_objects","42","Tofu.jpg","37","1","549"
"2","2","retrieval","old_objects","43","Toy_Shark.jpg","36","1","733"
"2","2","retrieval","old_objects","44","Gazebo.jpg","36","1","601"
"2","2","retrieval","new_objects","45","Toy_Tank.jpg","37","1","574"
"2","2","retrieval","old_objects","46","NintendoWii.jpg","37","0","583"
"2","2","retrieval","old_objects","47","Glasses_Sun.jpg","36","1","851"
"2","2","retrieval","new_objects","48","Handcuffs.jpg","37","1","713"
"2","2","retrieval","old_objects","49","Axe.jpg","36","1","657"
"2","2","retrieval","old_objects","50","Toy_MerryGoRound.jpg","36","1","600"
"2","2","retrieval","old_objects","51","Clamp.jpg","36","1","593"
"2","2","retrieval","new_objects","52","Toy_RobotTransformer.jpg","37","1","597"
"2","2","retrieval","new_objects","53","Card_QueenSpade.jpg","37","1","520"
"2","2","retrieval","new_objects","54","MonaLisa.jpg","37","1","709"
"2","2","retrieval","new_objects","55","BicycleReflector.jpg","37","1","832"
"2","2","retrieval","old_objects","56","Thumbtack.jpg","36","1","789"
"2","2","retrieval","old_objects","57","Broom_Short.jpg","36","1","577"
"2","2","retrieval","new_objects","58","Cleaver_Meat.jpg","37","1","796"
"2","2","retrieval","old_objects","59","Qtip_Multiple.jpg","36","1","599"
"2","2","retrieval","old_objects","60","Centrifuge.jpg","36","1","991"
"2","2","retrieval","old_objects","62","Syringe_Needle.jpg","36","1","649"
"2","2","retrieval","new_objects","63","Toy_Lighthouse.jpg","36","0","942"
"2","2","retrieval","new_objects","64","Sock_Ankle.jpg","37","1","575"
"2","2","retrieval","old_objects","65","Brush_Toilet.jpg","36","1","753"
"2","2","retrieval","new_objects","66","Lilypad.jpg","37","1","601"
"2","2","retrieval","old_objects","67","Horn_Hunting.jpg","36","1","725"
"2","2","retrieval","old_objects","68","PowderProtein.jpg","36","1","722"
"2","2","retrieval","new_objects","69","Cloud.jpg","37","1","570"
"2","2","retrieval","new_objects","70","Brush_Light.jpg","37","1","638"
"2","2","retrieval","new_objects","71","Walker_Silver.jpg","36","0","951"
"2","2","retrieval","old_objects","72","OnionRings.jpg","36","1","674"
"2","2","retrieval","old_objects","73","Photocopier.jpg","36","1","692"
"2","2","retrieval","new_objects","74","Rope_Manila.jpg","37","1","635"
"2","2","retrieval","old_objects","75","Playard.jpg","36","1","653"
"2","2","retrieval","new_objects","76","Bag_Garbage.jpg","37","1","527"
"2","2","retrieval","new_objects","77","Embosser.jpg","37","1","765"
"2","2","retrieval","old_objects","78","GingerbreadMan.jpg","36","1","718"
"2","2","retrieval","old_objects","79","Keg.jpg","36","1","646"
"2","2","retrieval","old_objects","80","Diode.jpg","36","1","629"
"2","2","retrieval","old_objects","81","Goose_Canadian.jpg","36","1","697"
"2","2","retrieval","old_objects","82","Clock_Radioalarm.jpg","36","1","940"
"2","2","retrieval","new_objects","83","Toy_RobotClassic.jpg","37","1","583"
"2","2","retrieval","old_objects","84","GrillRack.jpg","36","1","581"
"2","2","retrieval","new_objects","85","Bag_String.jpg","37","1","540"
"2","2","retrieval","new_objects","86","Notebook.jpg","37","1","593"
"2","2","retrieval","old_objects","87","Mug_Beer.jpg","37","0","597"
"2","2","retrieval","new_objects","88","Lantern_Chinese.jpg","37","1","1109"
"2","2","retrieval","new_objects","89","Bed_QueenSize.jpg","37","1","592"
"2","2","retrieval","old_objects","90","MeterElectric.jpg","36","1","686"
"2","2","retrieval","new_objects","91","Hat_Hard.jpg","37","1","664"
"2","2","retrieval","new_objects","92","Toy_HockeyStick.jpg","37","1","593"
"2","2","retrieval","new_objects","93","Toys_Lego.jpg","37","1","776"
"2","2","retrieval","new_objects","94","HardDrive.jpg","37","1","749"
"2","2","retrieval","old_objects","95","Camera_Digital.jpg","37","0","682"
"2","2","retrieval","new_objects","96","ClothCoaster.jpg","37","1","640"
"2","2","retrieval","new_objects","97","PulleyWooden.jpg","37","1","623"
"2","2","retrieval","new_objects","98","FlashlightHeadBand.jpg","37","1","841"
"2","2","retrieval","old_objects","99","Radio_Vintage.jpg","36","1","660"
"2","2","retrieval","new_objects","100","Shoes_Snowboarding.jpg","37","1","643"
"2","2","retrieval","new_objects","101","Toy_Lion.jpg","37","1","866"
"2","2","retrieval","old_objects","102","Mug_Ceramic.jpg","37","0","1351"
"2","2","retrieval","old_objects","103","Bat_Cricket.jpg","36","1","655"
"2","2","retrieval","new_objects","104","Bottle_Specimen.jpg","37","1","519"
"2","2","retrieval","old_objects","105","Statue_Horse.jpg","36","1","757"
"2","2","retrieval","old_objects","106","Hourglass.jpg","36","1","611"
"2","2","retrieval","new_objects","107","Toy_DinosaurTRex.jpg","37","1","779"
"2","2","retrieval","new_objects","108","StringBean.jpg","37","1","547"
"2","2","retrieval","new_objects","109","Stove_WithOven.jpg","37","1","920"
"2","2","retrieval","old_objects","110","Scorpion.jpg","36","1","788"
"2","2","retrieval","new_objects","111","Bench_Black.jpg","37","1","611"
"2","2","retrieval","old_objects","112","BowlingPin.jpg","36","1","884"
"2","2","retrieval","old_objects","113","Thimble.jpg","36","1","642"
"2","2","retrieval","new_objects","114","Toast.jpg","37","1","566"
"2","2","retrieval","new_objects","115","Ramekin.jpg","37","1","824"
"2","2","retrieval","new_objects","116","Cabasa.jpg","37","1","603"
"2","2","retrieval","old_objects","117","Pasta_Penne.jpg","36","1","607"
"2","2","retrieval","old_objects","118","BicycleHandleGrip.jpg","37","0","590"
"2","2","retrieval","old_objects","119","Ghost.jpg","36","1","637"
"2","2","retrieval","new_objects","120","Earth_Planet.jpg","37","1","582"
"2","2","retrieval","old_objects","121","RibbonSpool.jpg","36","1","800"
"2","2","retrieval","old_objects","123","ComputerMouse.jpg","36","1","815"
"2","2","retrieval","new_objects","124","TireRims.jpg","36","0","753"
"2","2","retrieval","new_objects","125","PostageStamps.jpg","37","1","546"
"2","2","retrieval","new_objects","126","Table_Saw.jpg","37","1","749"
"2","2","retrieval","old_objects","127","SiloGrain.jpg","37","0","553"
"2","2","retrieval","new_objects","128","MortarPestle_BlackStone.jpg","37","1","796"
"2","2","retrieval","old_objects","129","Staples.jpg","36","1","619"
"2","2","retrieval","old_objects","130","Ruler_Triangle.jpg","36","1","877"
"2","2","retrieval","new_objects","131","ClothesDryingRack.jpg","37","1","616"
"2","2","retrieval","new_objects","132","Jar_JellyBeans.jpg","37","1","495"
"2","2","retrieval","new_objects","133","Pear_Yellow.jpg","37","1","532"
"2","2","retrieval","old_objects","134","PaintBrushAndPallette.jpg","36","1","797"
"2","2","retrieval","new_objects","135","ElectricSwitchboard.jpg","36","0","680"
"2","2","retrieval","old_objects","136","RollingPin.jpg","36","1","679"
"2","2","retrieval","new_objects","137","Joystick.jpg","37","1","639"
"2","2","retrieval","old_objects","138","Flamingo_Real.jpg","36","1","616"
"2","2","retrieval","new_objects","139","Telephone_Booth.jpg","37","1","695"
"2","2","retrieval","new_objects","140","SmokingPipe.jpg","37","1","778"
"2","2","retrieval","old_objects","141","Toy_BlocksWoodenPlain.jpg","36","1","716"
"2","2","retrieval","new_objects","142","PickupTruck.jpg","37","1","585"
"2","2","retrieval","old_objects","143","FloppyDisk.jpg","37","0","713"
"2","2","retrieval","new_objects","144","Exercise_Machine.jpg","37","1","741"
"2","2","retrieval","old_objects","145","Honeydew_Green.jpg","36","1","1064"
"2","2","retrieval","old_objects","146","Tray_Metal.jpg","36","1","796"
"2","2","retrieval","new_objects","147","NewspaperStack.jpg","37","1","640"
"2","2","retrieval","new_objects","148","Spear.jpg","37","1","693"
"2","2","retrieval","old_objects","149","Wire_Soldering.jpg","36","1","627"
"2","2","retrieval","old_objects","150","BearPolar.jpg","36","1","665"
"2","2","retrieval","old_objects","151","Noisemaker.jpg","36","1","862"
"2","2","retrieval","old_objects","152","PlayerFootball.jpg","36","1","652"
"2","2","retrieval","new_objects","153","ShoeLace_Round.jpg","37","1","666"
"2","2","retrieval","old_objects","154","Snake_Cobra.jpg","36","1","749"
"2","2","retrieval","old_objects","155","Golf_Club.jpg","36","1","583"
"2","2","retrieval","new_objects","156","Television.jpg","36","0","921"
"2","2","retrieval","new_objects","157","Saw.jpg","36","0","779"
"2","2","retrieval","old_objects","158","Pliers_SlipJoint.jpg","36","1","628"
"2","2","retrieval","new_objects","159","Popcorn.jpg","37","1","686"
"2","2","retrieval","old_objects","160","Stepper.jpg","36","1","745"
"2","2","retrieval","old_objects","161","Can_Milk.jpg","36","1","858"
"2","2","retrieval","new_objects","162","FireHydrant.jpg","37","1","621"
"2","2","retrieval","old_objects","163","Boot_Rain.jpg","37","0","483"
"2","2","retrieval","new_objects","164","Light_Studio.jpg","37","1","649"
"2","2","retrieval","new_objects","165","Brooch_Fish.jpg","37","1","573"
"2","2","retrieval","old_objects","166","Card_TwoSpade.jpg","37","0","891"
"2","2","retrieval","old_objects","167","Bottle_Oil.jpg","36","1","834"
"2","2","retrieval","new_objects","168","LetterMail.jpg","37","1","722"
"2","2","retrieval","old_objects","169","Sashimi.jpg","36","1","731"
"2","2","retrieval","old_objects","170","Carousel copy.jpg","36","1","544"
"2","2","retrieval","old_objects","171","FuseBox.jpg","36","1","589"
"2","2","retrieval","new_objects","172","Can_Gas.jpg","37","1","712"
"2","2","retrieval","old_objects","173","Fuse.jpg","36","1","875"
"2","2","retrieval","new_objects","174","Dreidel.jpg","37","1","563"
"2","2","retrieval","new_objects","175","Stone_Spa.jpg","37","1","682"
"2","2","retrieval","old_objects","176","ServiceBell.jpg","36","1","621"
"2","2","retrieval","new_objects","177","Hazelnut.jpg","37","1","679"
"2","2","retrieval","old_objects","178","DiaperChangingStation.jpg","36","1","688"
"2","2","retrieval","new_objects","179","Jet.jpg","37","1","611"
"2","2","retrieval","old_objects","180","Archery_Arrows.jpg","36","1","685"
"2","2","retrieval","new_objects","181","Toy_Helicopter.jpg","37","1","783"
"2","2","retrieval","old_objects","182","Cannon.jpg","36","1","771"
"2","2","retrieval","new_objects","184","Helmet_Motorcycle.jpg","37","1","651"
"2","2","retrieval","new_objects","185","Pepper_Green.jpg","37","1","625"
"2","2","retrieval","new_objects","186","Bowl_Sugar.jpg","37","1","613"
"2","2","retrieval","new_objects","187","Toy_Dog.jpg","37","1","572"
"2","2","retrieval","old_objects","188","Lettuce_Romaine.jpg","36","1","631"
"2","2","retrieval","old_objects","189","TowelRack_Metal.jpg","36","1","630"
"2","2","retrieval","old_objects","190","DryingMachine.jpg","36","1","579"
"2","2","retrieval","old_objects","191","Hulahoop.jpg","36","1","628"
"2","2","retrieval","new_objects","192","Funnel.jpg","37","1","636"
"2","2","retrieval","new_objects","193","Bag_Doctor.jpg","37","1","615"
"2","2","retrieval","old_objects","194","Cranberry.jpg","36","1","804"
"2","2","retrieval","old_objects","195","Pipe_Pitch.jpg","36","1","697"
"2","2","retrieval","new_objects","196","Switch_LightBlack.jpg","37","1","681"
"2","2","retrieval","old_objects","197","Exercise_Bike.jpg","37","0","929"
"2","2","retrieval","old_objects","198","SolderingIron.jpg","37","0","807"
"2","2","retrieval","old_objects","199","TestTube_MultipleAndRack.jpg","36","1","654"
"2","2","retrieval","old_objects","200","PatioHeater.jpg","36","1","795"
"2","2","retrieval","new_objects","201","DonaldDuck_Toy.jpg","37","1","569"
"2","2","retrieval","old_objects","202","Statue_Man.jpg","36","1","687"
"2","2","retrieval","new_objects","203","Starfish.jpg","37","1","596"
"2","2","retrieval","new_objects","204","ProjectorScreen.jpg","37","1","740"
"2","2","retrieval","new_objects","205","Mousetrap.jpg","37","1","594"
"2","2","retrieval","old_objects","206","Mask_African.jpg","36","1","708"
"2","2","retrieval","new_objects","207","Socks_Baby.jpg","37","1","572"
"2","2","retrieval","old_objects","208","ChariotGold.jpg","37","0","541"
"2","2","retrieval","new_objects","209","Spoon_Baby.jpg","37","1","635"
"2","2","retrieval","new_objects","210","IceCreamCone.jpg","37","1","1004"
"2","2","retrieval","new_objects","211","Bread_Melon.jpg","37","1","667"
"2","2","retrieval","old_objects","212","BoxTrailer.jpg","36","1","756"
"2","2","retrieval","old_objects","213","Cane_Metal.jpg","36","1","999"
"2","2","retrieval","new_objects","214","Trowel.jpg","37","1","582"
"2","2","retrieval","new_objects","215","Table_Pool.jpg","37","1","601"
"2","2","retrieval","old_objects","216","Drum_Tall.jpg","36","1","755"
"2","2","retrieval","new_objects","217","PedestalGreek.jpg","37","1","509"
"2","2","retrieval","old_objects","218","BicycleSeat.jpg","37","0","573"
"2","2","retrieval","new_objects","219","Pillow_Plaid.jpg","37","1","582"
"2","2","retrieval","new_objects","220","Flags_CheckeredRacing.jpg","37","1","511"
"2","2","retrieval","new_objects","221","Seal_Toy.jpg","37","1","1967"
"2","2","retrieval","new_objects","222","Qtip_Single.jpg","36","0","604"
"2","2","retrieval","old_objects","223","MobilityScooter.jpg","36","1","668"
"2","2","retrieval","old_objects","224","RamAnimal.jpg","36","1","657"
"2","2","retrieval","old_objects","225","Crib_Standard.jpg","36","1","741"
"2","2","retrieval","new_objects","226","CraneMachine.jpg","37","1","645"
"2","2","retrieval","old_objects","227","TelescopeSpacecraft.jpg","36","1","888"
"2","2","retrieval","old_objects","228","TreeHouse.jpg","36","1","567"
"2","2","retrieval","old_objects","229","Basket_Straw.jpg","36","1","546"
"2","2","retrieval","new_objects","230","IroningBoard.jpg","37","1","620"
"2","2","retrieval","new_objects","231","Light_Halogen.jpg","37","1","759"
"2","2","retrieval","old_objects","232","Crossbow.jpg","36","1","663"
"2","2","retrieval","new_objects","233","Pen_Ballpoint.jpg","37","1","542"
"2","2","retrieval","old_objects","234","Carbiner_Ascender.jpg","37","0","466"
"2","2","retrieval","old_objects","235","Nuts_Peanuts.jpg","37","0","636"
"2","2","retrieval","old_objects","236","Camera_ProfessionalFilm.jpg","36","1","635"
"2","2","retrieval","new_objects","237","Boots_Hiking.jpg","37","1","584"
"2","2","retrieval","old_objects","238","Barometer.jpg","36","1","603"
"2","2","retrieval","new_objects","239","Spoons_MeasuringDetached.jpg","37","1","667"
"2","2","retrieval","old_objects","240","Potato.jpg","37","0","506"
"2","2","retrieval","new_objects","241","Table_Conference.jpg","37","1","561"
"2","2","retrieval","old_objects","242","Crown.jpg","36","1","615"
"2","2","retrieval","old_objects","243","PaperShredder.jpg","36","1","913"
"2","2","retrieval","new_objects","245","Toad.jpg","37","1","830"
"2","2","retrieval","old_objects","246","StreetSweeper.jpg","37","0","828"
"2","2","retrieval","new_objects","247","Ruler_Digital.jpg","37","1","757"
"2","2","retrieval","new_objects","248","Spoon_Sugar.jpg","37","1","700"
"2","2","retrieval","old_objects","249","RiceCooker.jpg","36","1","874"
"2","2","retrieval","new_objects","250","Toy_RabbitPlushie.jpg","37","1","553"
"2","2","retrieval","old_objects","251","Case_Pencil.jpg","36","1","746"
"2","2","retrieval","old_objects","252","NetButterfly.jpg","36","1","760"
"2","2","retrieval","new_objects","253","Mango.jpg","36","0","544"
"2","2","retrieval","old_objects","254","Tiara.jpg","36","1","538"
"2","2","retrieval","old_objects","255","WalkieTalkie_Yellow.jpg","36","1","777"
"2","2","retrieval","old_objects","256","Toy_Chameleon.jpg","36","1","695"
"2","2","retrieval","new_objects","257","Ring_Plain.jpg","37","1","579"
"2","2","retrieval","old_objects","258","Grenade.jpg","36","1","648"
"2","2","retrieval","new_objects","259","LightBulb_White.jpg","37","1","573"
"2","2","retrieval","new_objects","260","SnowGlobe.jpg","37","1","532"
"2","2","retrieval","old_objects","261","OrigamiPaper.jpg","37","0","471"
"2","2","retrieval","new_objects","262","Plate_Wooden.jpg","37","1","651"
"2","2","retrieval","old_objects","263","TestTube_Single.jpg","37","0","1323"
"2","2","retrieval","old_objects","264","Chainsaw.jpg","36","1","821"
"2","2","retrieval","new_objects","265","Suspenders.jpg","37","1","619"
"2","2","retrieval","new_objects","266","Calculator.jpg","37","1","589"
"2","2","retrieval","old_objects","267","Bat_Baseball.jpg","36","1","732"
"2","2","retrieval","new_objects","268","PaperCutter.jpg","37","1","642"
"2","2","retrieval","old_objects","269","Squid_Pink.jpg","36","1","1194"
"2","2","retrieval","old_objects","270","NeedlesAcupuncture.jpg","36","1","647"
"2","2","retrieval","new_objects","271","Gametable_AirHockey.jpg","37","1","701"
"2","2","retrieval","old_objects","272","Doll_Rag.jpg","37","0","565"
"2","2","retrieval","new_objects","273","Statue_VirginMary.jpg","37","1","634"
"2","2","retrieval","new_objects","274","Sink_Kitchen.jpg","37","1","663"
"2","2","retrieval","old_objects","275","Pliers_NeedleNose.jpg","36","1","647"
"2","2","retrieval","new_objects","276","KitchenTools.jpg","37","1","711"
"2","2","retrieval","old_objects","277","Playdoh.jpg","36","1","714"
"2","2","retrieval","new_objects","278","Candy_Lozenge.jpg","37","1","634"
"2","2","retrieval","new_objects","279","Sign_Construction.jpg","37","1","563"
"2","2","retrieval","new_objects","280","USBKey.jpg","37","1","772"
"2","2","retrieval","new_objects","281","ChalkboardEraser.jpg","37","1","541"
"2","2","retrieval","new_objects","282","Glass_Wine.jpg","37","1","864"
"2","2","retrieval","new_objects","283","Zucchini.jpg","37","1","723"
"2","2","retrieval","new_objects","284","Toy_DogBall.jpg","37","1","602"
"2","2","retrieval","new_objects","285","PokerChips.jpg","37","1","526"
"2","2","retrieval","old_objects","286","WalkieTalkie_Red.jpg","37","0","1004"
"2","2","retrieval","old_objects","287","Candy_GummyBear.jpg","36","1","608"
"2","2","retrieval","old_objects","288","SpinningWheel.jpg","36","1","632"
"2","2","retrieval","old_objects","289","PharoahReplica.jpg","36","1","741"
"2","2","retrieval","old_objects","290","GuineaPig.jpg","36","1","675"
"2","2","retrieval","new_objects","291","LampPost_ThreeBulbs.jpg","37","1","554"
"2","2","retrieval","new_objects","292","CarSeat.jpg","37","1","658"
"2","2","retrieval","new_objects","293","BoogieBoard.jpg","37","1","532"
"2","2","retrieval","old_objects","294","Makeup_Compact.jpg","37","0","581"
"2","2","retrieval","new_objects","295","Napkin_Single.jpg","37","1","571"
"2","2","retrieval","new_objects","296","DogFood.jpg","37","1","570"
"2","2","retrieval","new_objects","297","BloodpPresureCuff.jpg","36","0","759"
"2","2","retrieval","new_objects","298","Bamboo.jpg","37","1","632"
"2","2","retrieval","new_objects","299","Hat_Baseball.jpg","37","1","447"
"2","2","retrieval","new_objects","300","Bandage_Wrap.jpg","37","1","451"
"2","2","retrieval","new_objects","301","PaperTowel_Kitchen.jpg","37","1","506"
"2","2","retrieval","new_objects","302","Mask_VenetianLongNose.jpg","37","1","650"
"2","2","retrieval","new_objects","303","MatchBook.jpg","37","1","634"
"2","2","retrieval","old_objects","304","Snorkle.jpg","37","0","503"
"2","2","retrieval","new_objects","306","NailPolish.jpg","37","1","534"
"2","2","retrieval","new_objects","307","Chinchilla.jpg","37","1","733"
"2","2","retrieval","old_objects","308","Pasta_Fettuccine.jpg","36","1","921"
"2","2","retrieval","new_objects","309","Radio_Modern.jpg","37","1","740"
"2","2","retrieval","new_objects","310","Triangle.jpg","37","1","614"
"2","2","retrieval","new_objects","311","Brush_Paint.jpg","37","1","742"
"2","2","retrieval","old_objects","312","Toy_BearBlackPlastic.jpg","37","0","527"
"2","2","retrieval","old_objects","313","Egg_Chocolate.jpg","36","1","735"
"2","2","retrieval","old_objects","314","Castle_Model.jpg","36","1","644"
"2","2","retrieval","old_objects","315","Bag_Saline.jpg","37","0","748"
"2","2","retrieval","old_objects","316","ScaleWeighing.jpg","36","1","632"
"2","2","retrieval","new_objects","317","Boat_Row.jpg","37","1","791"
"2","2","retrieval","old_objects","318","Hat_Feather.jpg","36","1","744"
"2","2","retrieval","old_objects","319","CompassCardinal.jpg","36","1","499"
"2","2","retrieval","new_objects","320","CableConnecter.jpg","37","1","673"
"2","2","retrieval","old_objects","321","Hangar.jpg","36","1","602"
"2","2","retrieval","old_objects","322","Megaphone.jpg","36","1","636"
"2","2","retrieval","old_objects","323","Chair_Barber.jpg","36","1","575"
"2","2","retrieval","old_objects","324","Microscope.jpg","36","1","624"
"2","2","retrieval","old_objects","325","Toy_RaceTrack.jpg","36","1","683"
"2","2","retrieval","new_objects","326","Hat_Colonial.jpg","37","1","652"
"2","2","retrieval","old_objects","327","Instrument_Nyckelharpa.jpg","36","1","905"
"2","2","retrieval","new_objects","328","Box_Notepaper.jpg","37","1","859"
"2","2","retrieval","new_objects","329","TissueBox.jpg","37","1","567"
"2","2","retrieval","new_objects","330","Wallet_ClosedBrown.jpg","37","1","647"
"2","2","retrieval","new_objects","331","Drum_Set.jpg","37","1","571"
"2","2","retrieval","old_objects","332","Toy_Drill.jpg","37","0","790"
"2","2","retrieval","old_objects","333","Teapot.jpg","37","0","524"
"2","2","retrieval","old_objects","334","Backpack_Suitcase.jpg","36","1","812"
"2","2","retrieval","old_objects","335","ProcessorFood_Modern.jpg","36","1","816"
"2","2","retrieval","old_objects","336","Boombox.jpg","36","1","854"
"2","2","retrieval","old_objects","337","Stapler_Regular.jpg","36","1","618"
"2","2","retrieval","old_objects","338","Box_Vials.jpg","36","1","648"
"2","2","retrieval","new_objects","339","PersonWooden.jpg","37","1","732"
"2","2","retrieval","new_objects","340","Cookie.jpg","37","1","721"
"2","2","retrieval","old_objects","341","Shovel_Sandbox.jpg","36","1","819"
"2","2","retrieval","new_objects","342","MilkJug.jpg","36","0","638"
"2","2","retrieval","old_objects","343","DrinkShaker.jpg","37","0","697"
"2","2","retrieval","new_objects","344","Scalpel.jpg","37","1","601"
"2","2","retrieval","old_objects","345","Hoverboard.jpg","36","1","815"
"2","2","retrieval","old_objects","346","Nametag.jpg","36","1","709"
"2","2","retrieval","new_objects","347","Pouch_PotPourri.jpg","37","1","593"
"2","2","retrieval","old_objects","348","ConnectorPlug.jpg","37","0","588"
"2","2","retrieval","old_objects","349","Tap.jpg","36","1","707"
"2","2","retrieval","new_objects","350","Puzzle_Animal.jpg","37","1","591"
"2","2","retrieval","old_objects","351","Strainer_Tea.jpg","37","0","595"
"2","2","retrieval","old_objects","352","Skates.jpg","36","1","809"
"2","2","retrieval","old_objects","353","Archery_ArrowsBows.jpg","36","1","613"
"2","2","retrieval","old_objects","354","MusicSheet.jpg","36","1","668"
"2","2","retrieval","new_objects","355","Truck_Dump.jpg","37","1","627"
"2","2","demographics_block","gender","1","Truck_Dump.jpg","female","1","11782"
"2","2","demographics_block","age","1","Truck_Dump.jpg","44","1","11782"
"2","2","demographics_block","education","1","Truck_Dump.jpg","19","1","11782"
"2","2","demographics_block","left_right_handed","2","Truck_Dump.jpg","Left","1","5675"
"2","2","demographics_block","raceoption1","2","Truck_Dump.jpg","0","1","5675"
"2","2","demographics_block","raceoption2","2","Truck_Dump.jpg","","1","5675"
"2","2","demographics_block","raceoption3","2","Truck_Dump.jpg","","1","5675"
"2","2","demographics_block","raceoption4","2","Truck_Dump.jpg","","1","5675"
"2","2","demographics_block","raceoption5","2","Truck_Dump.jpg","","1","5675"
"2","2","demographics_block","raceoption6","2","Truck_Dump.jpg","","1","5675"
"2","2","demographics_block","raceoption7","2","Truck_Dump.jpg","","1","5675"
"2","2","demographics_block","raceoption8","2","Truck_Dump.jpg","","1","5675"
"2","2","demographics_block","raceoption9","2","Truck_Dump.jpg","","1","5675"
"2","2","demographics_block","raceother","2","Truck_Dump.jpg","","1","5675"
"2","2","demographics_block","raceother","2","Truck_Dump.jpg","","1","5675"
"2","2","demographics_block","english_language","2","Truck_Dump.jpg","Yes","1","5675"
"2","2","demographics_block","english_languageother","2","Truck_Dump.jpg","","1","5675"
"2","2","demographics_block","eyesight","3","Truck_Dump.jpg","Yes","1","4673"
"2","2","demographics_block","colorblind","3","Truck_Dump.jpg","No","1","4673"
"2","2","worker_id_block","worker_id_textbox","1","Truck_Dump.jpg","APUPF3D94XYUQ","1","4866"
"3","3","encoding","encoding","1","Chair_Barber.jpg","0","0","2000"
"3","3","encoding","encoding","2","Cane_Metal.jpg","36","0","934"
"3","3","encoding","encoding","3","Snorkle.jpg","0","0","2000"
"3","3","encoding","encoding","4","Shorts_Plaid.jpg","0","0","2000"
"3","3","encoding","encoding","5","Squid_Pink.jpg","0","0","2000"
"3","3","encoding","encoding","6","Archery_ArrowsBows.jpg","0","0","2000"
"3","3","encoding","encoding","7","CompassCardinal.jpg","0","0","2000"
"3","3","encoding","encoding","8","DrinkShaker.jpg","37","0","871"
"3","3","encoding","encoding","9","DiaperChangingStation.jpg","0","0","2000"
"3","3","encoding","encoding","10","Pasta_Penne.jpg","0","0","2000"
"3","3","encoding","encoding","11","Backpack_Suitcase.jpg","0","0","2000"
"3","3","encoding","encoding","12","Carbiner_Ascender.jpg","0","0","2000"
"3","3","encoding","encoding","13","Stepper.jpg","0","0","2000"
"3","3","encoding","encoding","14","Statue_Horse.jpg","0","0","2000"
"3","3","encoding","encoding","15","Scorpion.jpg","0","0","2000"
"3","3","encoding","encoding","16","GrillRack.jpg","0","0","2000"
"3","3","encoding","encoding","17","Chainsaw.jpg","0","0","2000"
"3","3","encoding","encoding","18","Megaphone.jpg","0","0","2000"
"3","3","encoding","encoding","19","Mug_Beer.jpg","0","0","2000"
"3","3","encoding","encoding","20","GingerbreadMan.jpg","0","0","2000"
"3","3","encoding","encoding","21","Frame_Oval.jpg","0","0","2000"
"3","3","encoding","encoding","22","Bottle_Oil.jpg","0","0","2000"
"3","3","encoding","encoding","23","Thumbtack.jpg","0","0","2000"
"3","3","encoding","encoding","24","Nametag.jpg","0","0","2000"
"3","3","encoding","encoding","25","PaintBrushAndPallette.jpg","0","0","2000"
"3","3","encoding","encoding","26","Diode.jpg","0","0","2000"
"3","3","encoding","encoding","27","Syringe_Needle.jpg","0","0","2000"
"3","3","encoding","encoding","28","Statue_Man.jpg","0","0","2000"
"3","3","encoding","encoding","29","Flashlight.jpg","0","0","2000"
"3","3","encoding","encoding","30","Noisemaker.jpg","0","0","2000"
"3","3","encoding","encoding","31","Egg_Chocolate.jpg","36","0","1924"
"3","3","encoding","encoding","32","Playdoh.jpg","37","0","1171"
"3","3","encoding","encoding","33","Exercise_Bike.jpg","36","0","710"
"3","3","encoding","encoding","34","Crown.jpg","37","0","1259"
"3","3","encoding","encoding","35","Hoverboard.jpg","37","0","678"
"3","3","encoding","encoding","36","Toy_BearBlackPlastic.jpg","37","0","1496"
"3","3","encoding","encoding","37","Radio_Vintage.jpg","36","0","436"
"3","3","encoding","encoding","38","OrigamiPaper.jpg","0","0","2000"
"3","3","encoding","encoding","39","Camera_Digital.jpg","0","0","2000"
"3","3","encoding","encoding","40","SiloGrain.jpg","0","0","2000"
"3","3","encoding","encoding","41","Wire_Soldering.jpg","0","0","2000"
"3","3","encoding","encoding","42","Cannon.jpg","0","0","2000"
"3","3","encoding","encoding","43","MannequinHead.jpg","37","0","843"
"3","3","encoding","encoding","44","Lettuce_Romaine.jpg","37","0","331"
"3","3","encoding","encoding","45","Brush_Toilet.jpg","37","0","595"
"3","3","encoding","encoding","46","DentalFloss.jpg","36","0","1532"
"3","3","encoding","encoding","47","PassionFruit.jpg","0","0","2000"
"3","3","encoding","encoding","48","Doll_Rag.jpg","36","0","1471"
"3","3","encoding","encoding","49","Bat_Cricket.jpg","36","0","712"
"3","3","encoding","encoding","50","Archery_Arrows.jpg","36","0","1396"
"3","3","encoding","encoding","51","ProcessorFood_Modern.jpg","36","0","374"
"3","3","encoding","encoding","52","Glasses_Sun.jpg","36","0","845"
"3","3","encoding","encoding","53","Castle_Model.jpg","36","0","594"
"3","3","encoding","encoding","54","TowelRack_Metal.jpg","36","0","957"
"3","3","encoding","encoding","55","Toy_RaceTrack.jpg","37","0","1401"
"3","3","encoding","encoding","56","Candy_GummyBear.jpg","0","0","2000"
"3","3","encoding","encoding","57","ConnectorPlug.jpg","0","0","2000"
"3","3","encoding","encoding","58","Toy_BlocksWoodenPlain.jpg","0","0","2000"
"3","3","encoding","encoding","59","Drum_Tall.jpg","36","0","147"
"3","3","encoding","encoding","60","SpinningWheel.jpg","36","0","881"
"3","3","encoding","encoding","62","MusicSheet.jpg","36","0","1460"
"3","3","encoding","encoding","63","Mug_Ceramic.jpg","36","0","382"
"3","3","encoding","encoding","64","Microscope.jpg","36","0","1028"
"3","3","encoding","encoding","65","OnionRings.jpg","36","0","846"
"3","3","encoding","encoding","66","Skates.jpg","36","0","73"
"3","3","encoding","encoding","67","Hat_Feather.jpg","36","0","225"
"3","3","encoding","encoding","68","NeedlesAcupuncture.jpg","0","0","2000"
"3","3","encoding","encoding","69","Fuse.jpg","36","0","1148"
"3","3","encoding","encoding","70","Toy_Drill.jpg","37","0","671"
"3","3","encoding","encoding","71","Bat_Baseball.jpg","36","0","1900"
"3","3","encoding","encoding","72","Clamp.jpg","36","0","950"
"3","3","encoding","encoding","73","Hourglass.jpg","36","0","390"
"3","3","encoding","encoding","74","Broom_Short.jpg","36","0","663"
"3","3","encoding","encoding","75","Boombox.jpg","36","0","1363"
"3","3","encoding","encoding","76","Bird_Duck.jpg","36","0","1552"
"3","3","encoding","encoding","77","Barometer.jpg","36","0","1869"
"3","3","encoding","encoding","78","ComputerMouse.jpg","0","0","2000"
"3","3","encoding","encoding","79","Hangar.jpg","36","0","1417"
"3","3","encoding","encoding","80","Pillar.jpg","37","0","2"
"3","3","encoding","encoding","81","NintendoWii.jpg","0","0","2000"
"3","3","encoding","encoding","82","Tap.jpg","36","0","1591"
"3","3","encoding","encoding","83","Ashtray_Empty.jpg","36","0","715"
"3","3","encoding","encoding","84","Golf_Club.jpg","36","0","407"
"3","3","encoding","encoding","85","Truck_Box.jpg","36","0","621"
"3","3","encoding","encoding","86","Keg.jpg","36","0","482"
"3","3","encoding","encoding","87","PowderProtein.jpg","36","0","135"
"3","3","encoding","encoding","88","Gazebo.jpg","0","0","2000"
"3","3","encoding","encoding","89","Bird_Hen.jpg","0","0","2000"
"3","3","encoding","encoding","90","BearPolar.jpg","0","0","2000"
"3","3","encoding","encoding","91","Bag_Saline.jpg","36","0","47"
"3","3","encoding","encoding","92","Hulahoop.jpg","36","0","12"
"3","3","encoding","encoding","93","ServiceBell.jpg","37","0","1244"
"3","3","encoding","encoding","94","Pasta_Fettuccine.jpg","0","0","2000"
"3","3","encoding","encoding","95","Tiara.jpg","36","0","318"
"3","3","encoding","encoding","96","ScaleWeighing.jpg","36","0","814"
"3","3","encoding","encoding","97","Mask_African.jpg","36","0","732"
"3","3","encoding","encoding","98","Strainer_Tea.jpg","37","0","1138"
"3","3","encoding","encoding","99","TreeHouse.jpg","36","0","197"
"3","3","encoding","encoding","100","Carousel copy.jpg","0","0","2000"
"3","3","encoding","encoding","101","Pipe_Pitch.jpg","0","0","2000"
"3","3","encoding","encoding","102","Sashimi.jpg","36","0","87"
"3","3","encoding","encoding","103","Boot_Rain.jpg","37","0","1377"
"3","3","encoding","encoding","104","Pliers_SlipJoint.jpg","36","0","782"
"3","3","encoding","encoding","105","Crossbow.jpg","36","0","543"
"3","3","encoding","encoding","106","Toy_MerryGoRound.jpg","0","0","2000"
"3","3","encoding","encoding","107","Grenade.jpg","37","0","663"
"3","3","encoding","encoding","108","Thimble.jpg","37","0","506"
"3","3","encoding","encoding","109","Gloves_Bicycle.jpg","37","0","727"
"3","3","encoding","encoding","110","Flamingo_Real.jpg","37","0","736"
"3","3","encoding","encoding","111","Card_TwoSpade.jpg","37","0","917"
"3","3","encoding","encoding","112","Camera_ProfessionalFilm.jpg","37","0","1210"
"3","3","encoding","encoding","113","PaperShredder.jpg","37","0","1017"
"3","3","encoding","encoding","114","Banana.jpg","37","0","1341"
"3","3","encoding","encoding","115","Cranberry.jpg","37","0","985"
"3","3","encoding","encoding","116","RollingPin.jpg","37","0","933"
"3","3","encoding","encoding","117","Teapot.jpg","37","0","480"
"3","3","encoding","encoding","118","BowlingPin.jpg","37","0","903"
"3","3","encoding","encoding","119","SolderingIron.jpg","37","0","168"
"3","3","encoding","encoding","120","WalkieTalkie_Yellow.jpg","37","0","921"
"3","3","encoding","encoding","121","Abacus.jpg","37","0","927"
"3","3","encoding","encoding","123","Basket_Straw.jpg","37","0","1427"
"3","3","encoding","encoding","124","RibbonSpool.jpg","37","0","438"
"3","3","encoding","encoding","125","RamAnimal.jpg","37","0","1047"
"3","3","encoding","encoding","126","Ghost.jpg","37","0","920"
"3","3","encoding","encoding","127","Makeup_Compact.jpg","37","0","462"
"3","3","encoding","encoding","128","PatioHeater.jpg","37","0","97"
"3","3","encoding","encoding","129","GuineaPig.jpg","37","0","1079"
"3","3","encoding","encoding","130","Tortilla.jpg","37","0","981"
"3","3","encoding","encoding","131","PlayerFootball.jpg","36","0","618"
"3","3","encoding","encoding","132","Staples.jpg","36","0","648"
"3","3","encoding","encoding","133","Stapler_Regular.jpg","37","0","168"
"3","3","encoding","encoding","134","Ruler_Triangle.jpg","37","0","546"
"3","3","encoding","encoding","135","Case_Pencil.jpg","37","0","630"
"3","3","encoding","encoding","136","Horn_Hunting.jpg","0","0","2000"
"3","3","encoding","encoding","137","WalkieTalkie_Red.jpg","37","0","283"
"3","3","encoding","encoding","138","FloppyDisk.jpg","37","0","1035"
"3","3","encoding","encoding","139","Toblerone.jpg","37","0","426"
"3","3","encoding","encoding","140","Crib_Standard.jpg","37","0","476"
"3","3","encoding","encoding","141","TelescopeSpacecraft.jpg","36","0","873"
"3","3","encoding","encoding","142","Playard.jpg","36","0","923"
"3","3","encoding","encoding","143","BoxTrailer.jpg","37","0","1972"
"3","3","encoding","encoding","144","PharoahReplica.jpg","36","0","986"
"3","3","encoding","encoding","145","Clock_Radioalarm.jpg","37","0","642"
"3","3","encoding","encoding","146","Potato.jpg","0","0","2000"
"3","3","encoding","encoding","147","Toy_Chameleon.jpg","37","0","648"
"3","3","encoding","encoding","148","CanOpener.jpg","37","0","1071"
"3","3","encoding","encoding","149","TestTube_Single.jpg","37","0","661"
"3","3","encoding","encoding","150","Pepperoni.jpg","37","0","1085"
"3","3","encoding","encoding","151","RiceCooker.jpg","37","0","520"
"3","3","encoding","encoding","152","Pliers_NeedleNose.jpg","37","0","807"
"3","3","encoding","encoding","153","FuseBox.jpg","36","0","668"
"3","3","encoding","encoding","154","Axe.jpg","36","0","1352"
"3","3","encoding","encoding","155","Honeydew_Green.jpg","36","0","1342"
"3","3","encoding","encoding","156","Toy_Shark.jpg","0","0","2000"
"3","3","encoding","encoding","157","Instrument_Nyckelharpa.jpg","36","0","639"
"3","3","encoding","encoding","158","NetButterfly.jpg","36","0","1155"
"3","3","encoding","encoding","159","Centrifuge.jpg","36","0","968"
"3","3","encoding","encoding","160","TestTube_MultipleAndRack.jpg","36","0","835"
"3","3","encoding","encoding","161","Goose_Canadian.jpg","36","0","840"
"3","3","encoding","encoding","162","Nuts_Peanuts.jpg","37","0","1031"
"3","3","encoding","encoding","163","Snake_Cobra.jpg","36","0","1672"
"3","3","encoding","encoding","164","Box_Vials.jpg","37","0","1989"
"3","3","encoding","encoding","165","Shovel_Sandbox.jpg","37","0","937"
"3","3","encoding","encoding","166","Photocopier.jpg","37","0","423"
"3","3","encoding","encoding","167","StreetSweeper.jpg","36","0","932"
"3","3","encoding","encoding","168","Cannister_GasVintage.jpg","36","0","1031"
"3","3","encoding","encoding","169","ChariotGold.jpg","36","0","825"
"3","3","encoding","encoding","170","DryingMachine.jpg","36","0","1236"
"3","3","encoding","encoding","171","MobilityScooter.jpg","0","0","2000"
"3","3","encoding","encoding","172","BicycleSeat.jpg","37","0","1554"
"3","3","encoding","encoding","173","BicycleHandleGrip.jpg","37","0","1440"
"3","3","encoding","encoding","174","Qtip_Multiple.jpg","37","0","1671"
"3","3","encoding","encoding","175","Can_Milk.jpg","37","0","1445"
"3","3","encoding","encoding","176","MeterElectric.jpg","37","0","432"
"3","3","encoding","encoding","177","Tray_Metal.jpg","37","0","704"
"3","3","retrieval","new_objects","1","Pear_Green.jpg","36","0","1010"
"3","3","retrieval","old_objects","2","Toy_BearBlackPlastic.jpg","36","1","1891"
"3","3","retrieval","old_objects","3","DryingMachine.jpg","36","1","1183"
"3","3","retrieval","old_objects","4","Noisemaker.jpg","37","0","609"
"3","3","retrieval","old_objects","5","PlayerFootball.jpg","37","0","549"
"3","3","retrieval","new_objects","6","KitchenTools.jpg","36","0","352"
"3","3","retrieval","old_objects","7","Instrument_Nyckelharpa.jpg","36","1","758"
"3","3","retrieval","new_objects","8","SmokingPipe.jpg","36","0","559"
"3","3","retrieval","new_objects","9","Toad.jpg","37","1","931"
"3","3","retrieval","new_objects","10","Guitarcase.jpg","37","1","447"
"3","3","retrieval","new_objects","11","Ring_Plain.jpg","36","0","261"
"3","3","retrieval","old_objects","12","Lettuce_Romaine.jpg","36","1","434"
"3","3","retrieval","old_objects","13","Drum_Tall.jpg","36","1","449"
"3","3","retrieval","new_objects","14","Wallet_ClosedBrown.jpg","36","0","367"
"3","3","retrieval","new_objects","15","Boat_Row.jpg","36","0","304"
"3","3","retrieval","new_objects","16","Toy_Dog.jpg","36","0","199"
"3","3","retrieval","new_objects","17","Shoes_Snowboarding.jpg","37","1","392"
"3","3","retrieval","new_objects","18","Lantern_Chinese.jpg","37","1","379"
"3","3","retrieval","old_objects","19","Snorkle.jpg","36","1","196"
"3","3","retrieval","old_objects","20","TreeHouse.jpg","36","1","127"
"3","3","retrieval","new_objects","21","Handcuffs.jpg","37","1","188"
"3","3","retrieval","old_objects","22","Barometer.jpg","37","0","321"
"3","3","retrieval","old_objects","23","Bat_Baseball.jpg","37","0","274"
"3","3","retrieval","old_objects","24","Shorts_Plaid.jpg","36","1","269"
"3","3","retrieval","new_objects","25","Glass_Wine.jpg","36","0","126"
"3","3","retrieval","old_objects","26","Crib_Standard.jpg","36","1","200"
"3","3","retrieval","old_objects","27","TestTube_Single.jpg","36","1","286"
"3","3","retrieval","new_objects","28","Calculator.jpg","36","0","73"
"3","3","retrieval","old_objects","29","Mug_Ceramic.jpg","36","1","408"
"3","3","retrieval","new_objects","30","Jet.jpg","36","0","13"
"3","3","retrieval","old_objects","31","Crossbow.jpg","36","1","40"
"3","3","retrieval","new_objects","32","Chinchilla.jpg","36","0","282"
"3","3","retrieval","new_objects","33","Toolbox_Red.jpg","36","0","948"
"3","3","retrieval","new_objects","34","Hat_Hard.jpg","37","1","248"
"3","3","retrieval","new_objects","35","Cantaloupe.jpg","37","1","258"
"3","3","retrieval","old_objects","36","Keg.jpg","36","1","213"
"3","3","retrieval","new_objects","37","Cleaver_Meat.jpg","36","0","444"
"3","3","retrieval","new_objects","38","PickupTruck.jpg","36","0","1026"
"3","3","retrieval","old_objects","39","DiaperChangingStation.jpg","36","1","242"
"3","3","retrieval","new_objects","40","Ramekin.jpg","37","1","201"
"3","3","retrieval","old_objects","41","Toblerone.jpg","37","0","179"
"3","3","retrieval","old_objects","42","Staples.jpg","36","1","170"
"3","3","retrieval","old_objects","43","Ghost.jpg","36","1","28"
"3","3","retrieval","old_objects","44","SiloGrain.jpg","36","1","16"
"3","3","retrieval","old_objects","45","Hoverboard.jpg","36","1","112"
"3","3","retrieval","old_objects","46","Nametag.jpg","37","0","632"
"3","3","retrieval","new_objects","47","PokerChips.jpg","37","1","120"
"3","3","retrieval","new_objects","48","Toy_Lighthouse.jpg","36","0","156"
"3","3","retrieval","old_objects","49","Carbiner_Ascender.jpg","36","1","381"
"3","3","retrieval","new_objects","50","LightBulb_White.jpg","36","0","214"
"3","3","retrieval","old_objects","51","Playdoh.jpg","36","1","159"
"3","3","retrieval","new_objects","52","Trowel.jpg","36","0","307"
"3","3","retrieval","new_objects","53","Toy_Helicopter.jpg","36","0","1075"
"3","3","retrieval","old_objects","54","Banana.jpg","36","1","220"
"3","3","retrieval","new_objects","55","SewingPin_Single.jpg","37","1","486"
"3","3","retrieval","new_objects","56","Lilypad.jpg","37","1","174"
"3","3","retrieval","old_objects","57","Hourglass.jpg","36","1","11"
"3","3","retrieval","old_objects","58","Cranberry.jpg","36","1","345"
"3","3","retrieval","new_objects","59","Hat_Baseball.jpg","36","0","102"
"3","3","retrieval","old_objects","60","ServiceBell.jpg","36","1","55"
"3","3","retrieval","new_objects","62","Scalpel.jpg","36","0","358"
"3","3","retrieval","new_objects","63","Television.jpg","37","1","505"
"3","3","retrieval","old_objects","64","Tray_Metal.jpg","36","1","189"
"3","3","retrieval","new_objects","65","Toys_Lego.jpg","36","0","623"
"3","3","retrieval","old_objects","66","GingerbreadMan.jpg","36","1","190"
"3","3","retrieval","old_objects","67","NetButterfly.jpg","36","1","224"
"3","3","retrieval","old_objects","68","Can_Milk.jpg","36","1","172"
"3","3","retrieval","new_objects","69","TissueBox.jpg","36","0","211"
"3","3","retrieval","old_objects","70","Pillar.jpg","37","0","24"
"3","3","retrieval","new_objects","71","MortarPestle_BlackStone.jpg","36","0","319"
"3","3","retrieval","new_objects","72","Light_Studio.jpg","36","0","213"
"3","3","retrieval","old_objects","73","ComputerMouse.jpg","36","1","240"
"3","3","retrieval","new_objects","74","Toy_Tank.jpg","36","0","308"
"3","3","retrieval","old_objects","75","Bird_Duck.jpg","36","1","559"
"3","3","retrieval","old_objects","76","TowelRack_Metal.jpg","36","1","370"
"3","3","retrieval","new_objects","77","Bread_Melon.jpg","36","0","32"
"3","3","retrieval","old_objects","78","TestTube_MultipleAndRack.jpg","36","1","200"
"3","3","retrieval","old_objects","79","ScaleWeighing.jpg","36","1","85"
"3","3","retrieval","old_objects","80","Strainer_Tea.jpg","37","0","149"
"3","3","retrieval","old_objects","81","Exercise_Bike.jpg","37","0","58"
"3","3","retrieval","old_objects","82","Bag_Saline.jpg","36","1","115"
"3","3","retrieval","new_objects","83","Spear.jpg","36","0","61"
"3","3","retrieval","old_objects","84","Tortilla.jpg","36","1","71"
"3","3","retrieval","new_objects","85","Earth_Planet.jpg","37","1","544"
"3","3","retrieval","old_objects","86","Playard.jpg","37","0","190"
"3","3","retrieval","old_objects","87","Camera_Digital.jpg","36","1","161"
"3","3","retrieval","old_objects","88","Archery_ArrowsBows.jpg","36","1","326"
"3","3","retrieval","old_objects","89","MusicSheet.jpg","36","1","371"
"3","3","retrieval","new_objects","90","Pepper_Green.jpg","36","0","84"
"3","3","retrieval","new_objects","91","Candy_Lozenge.jpg","36","0","189"
"3","3","retrieval","new_objects","92","Light_Halogen.jpg","36","0","123"
"3","3","retrieval","new_objects","93","Tofu.jpg","36","0","338"
"3","3","retrieval","old_objects","94","Hulahoop.jpg","36","1","213"
"3","3","retrieval","new_objects","95","Toy_RabbitPlushie.jpg","36","0","41"
"3","3","retrieval","old_objects","96","Qtip_Multiple.jpg","36","1","216"
"3","3","retrieval","old_objects","97","MannequinHead.jpg","36","1","368"
"3","3","retrieval","new_objects","98","Toy_DinosaurTRex.jpg","36","0","144"
"3","3","retrieval","new_objects","99","HardDrive.jpg","36","0","205"
"3","3","retrieval","new_objects","100","USBKey.jpg","36","0","176"
"3","3","retrieval","new_objects","101","Egg_Cup.jpg","36","0","46"
"3","3","retrieval","old_objects","102","GrillRack.jpg","36","1","109"
"3","3","retrieval","old_objects","103","Pasta_Penne.jpg","36","1","40"
"3","3","retrieval","old_objects","104","Syringe_Needle.jpg","36","1","168"
"3","3","retrieval","new_objects","105","Brooch_Fish.jpg","37","1","219"
"3","3","retrieval","old_objects","106","Statue_Horse.jpg","36","1","68"
"3","3","retrieval","new_objects","107","BloodpPresureCuff.jpg","36","0","78"
"3","3","retrieval","new_objects","108","Radio_Modern.jpg","37","1","544"
"3","3","retrieval","old_objects","109","Gazebo.jpg","37","0","263"
"3","3","retrieval","new_objects","110","Napkin_Single.jpg","36","0","167"
"3","3","retrieval","new_objects","111","Starfish.jpg","36","0","30"
"3","3","retrieval","new_objects","112","Drum_Set.jpg","36","0","33"
"3","3","retrieval","new_objects","113","PersonWooden.jpg","36","0","408"
"3","3","retrieval","new_objects","114","ProjectorScreen.jpg","36","0","19"
"3","3","retrieval","old_objects","115","BicycleSeat.jpg","37","0","45"
"3","3","retrieval","old_objects","116","Case_Pencil.jpg","36","1","200"
"3","3","retrieval","old_objects","117","Pasta_Fettuccine.jpg","36","1","311"
"3","3","retrieval","new_objects","118","Funnel.jpg","36","0","170"
"3","3","retrieval","old_objects","119","Hat_Feather.jpg","36","1","209"
"3","3","retrieval","new_objects","120","Knife_Camping.jpg","36","0","9"
"3","3","retrieval","old_objects","121","BearPolar.jpg","36","1","78"
"3","3","retrieval","new_objects","123","Bag_String.jpg","36","0","148"
"3","3","retrieval","old_objects","124","Statue_Man.jpg","36","1","537"
"3","3","retrieval","old_objects","125","Truck_Box.jpg","37","0","1793"
"3","3","retrieval","old_objects","126","Pliers_NeedleNose.jpg","36","1","557"
"3","3","retrieval","old_objects","127","NeedlesAcupuncture.jpg","0","0","2000"
"3","3","retrieval","new_objects","128","Truck_Dump.jpg","36","0","707"
"3","3","retrieval","old_objects","129","Broom_Short.jpg","36","1","988"
"3","3","retrieval","new_objects","130","Bottle_Specimen.jpg","36","0","504"
"3","3","retrieval","old_objects","131","Pliers_SlipJoint.jpg","36","1","437"
"3","3","retrieval","new_objects","132","Clarinet.jpg","36","0","543"
"3","3","retrieval","old_objects","133","Boot_Rain.jpg","36","1","361"
"3","3","retrieval","new_objects","134","Cassette_Video.jpg","36","0","506"
"3","3","retrieval","old_objects","135","MeterElectric.jpg","36","1","587"
"3","3","retrieval","new_objects","136","Cookie.jpg","36","0","532"
"3","3","retrieval","old_objects","137","FloppyDisk.jpg","36","1","148"
"3","3","retrieval","old_objects","138","Golf_Club.jpg","36","1","760"
"3","3","retrieval","new_objects","139","TreeStump.jpg","36","0","374"
"3","3","retrieval","old_objects","140","Skates.jpg","36","1","506"
"3","3","retrieval","new_objects","141","Helmet_Motorcycle.jpg","0","0","2000"
"3","3","retrieval","new_objects","142","Popcorn.jpg","36","0","576"
"3","3","retrieval","old_objects","143","WalkieTalkie_Red.jpg","36","1","259"
"3","3","retrieval","new_objects","144","StringBean.jpg","36","0","391"
"3","3","retrieval","old_objects","145","Backpack_Suitcase.jpg","36","1","344"
"3","3","retrieval","new_objects","146","Boardgame_Checkers.jpg","36","0","834"
"3","3","retrieval","new_objects","147","Toy_RobotTransformer.jpg","36","0","286"
"3","3","retrieval","new_objects","148","Joystick.jpg","37","1","995"
"3","3","retrieval","new_objects","149","Box_Floral.jpg","37","1","505"
"3","3","retrieval","old_objects","150","Doll_Rag.jpg","36","1","203"
"3","3","retrieval","new_objects","151","Toy_HockeyStick.jpg","36","0","88"
"3","3","retrieval","old_objects","152","Chair_Barber.jpg","36","1","183"
"3","3","retrieval","new_objects","153","Table_Pool.jpg","36","0","204"
"3","3","retrieval","new_objects","154","PaperTowel_Kitchen.jpg","36","0","210"
"3","3","retrieval","old_objects","155","Tiara.jpg","36","1","381"
"3","3","retrieval","old_objects","156","Shovel_Sandbox.jpg","36","1","437"
"3","3","retrieval","old_objects","157","Ashtray_Empty.jpg","37","0","373"
"3","3","retrieval","new_objects","158","ShoeLace_Round.jpg","36","0","311"
"3","3","retrieval","old_objects","159","Bird_Hen.jpg","36","1","871"
"3","3","retrieval","old_objects","160","PaintBrushAndPallette.jpg","36","1","483"
"3","3","retrieval","new_objects","161","NailPolish.jpg","36","0","411"
"3","3","retrieval","new_objects","162","Switch_LightBlack.jpg","37","1","561"
"3","3","retrieval","new_objects","163","Spoon_Sugar.jpg","36","0","636"
"3","3","retrieval","new_objects","164","Sign_Construction.jpg","36","0","240"
"3","3","retrieval","old_objects","165","Bottle_Oil.jpg","36","1","216"
"3","3","retrieval","old_objects","166","Bat_Cricket.jpg","36","1","337"
"3","3","retrieval","old_objects","167","Makeup_Compact.jpg","36","1","277"
"3","3","retrieval","old_objects","168","PassionFruit.jpg","36","1","250"
"3","3","retrieval","old_objects","169","Toy_BlocksWoodenPlain.jpg","36","1","384"
"3","3","retrieval","old_objects","170","Toy_Drill.jpg","36","1","272"
"3","3","retrieval","new_objects","171","Sink_Kitchen.jpg","37","1","374"
"3","3","retrieval","old_objects","172","BoxTrailer.jpg","37","0","833"
"3","3","retrieval","new_objects","173","Toy_DogBall.jpg","37","1","482"
"3","3","retrieval","old_objects","174","Radio_Vintage.jpg","36","1","222"
"3","3","retrieval","new_objects","175","Triangle.jpg","36","0","255"
"3","3","retrieval","old_objects","176","SolderingIron.jpg","36","1","538"
"3","3","retrieval","old_objects","177","Camera_ProfessionalFilm.jpg","37","0","661"
"3","3","retrieval","new_objects","178","Bed_QueenSize.jpg","37","1","260"
"3","3","retrieval","new_objects","179","Toy_RobotClassic.jpg","36","0","566"
"3","3","retrieval","new_objects","180","Dreidel.jpg","36","0","291"
"3","3","retrieval","old_objects","181","Tap.jpg","37","0","249"
"3","3","retrieval","old_objects","182","Centrifuge.jpg","37","0","356"
"3","3","retrieval","old_objects","184","Pipe_Pitch.jpg","36","1","227"
"3","3","retrieval","new_objects","185","Cloud.jpg","36","0","339"
"3","3","retrieval","old_objects","186","Potato.jpg","36","1","344"
"3","3","retrieval","new_objects","187","Pouch_PotPourri.jpg","37","1","99"
"3","3","retrieval","new_objects","188","WindshieldWasherFluid.jpg","36","0","279"
"3","3","retrieval","old_objects","189","RamAnimal.jpg","36","1","51"
"3","3","retrieval","old_objects","190","Stepper.jpg","36","1","457"
"3","3","retrieval","new_objects","191","Boots_Hiking.jpg","37","1","202"
"3","3","retrieval","new_objects","192","CableConnecter.jpg","36","0","585"
"3","3","retrieval","new_objects","193","Toy_Lion.jpg","37","1","566"
"3","3","retrieval","old_objects","194","PowderProtein.jpg","36","1","318"
"3","3","retrieval","new_objects","195","MatchBook.jpg","36","0","403"
"3","3","retrieval","old_objects","196","Brush_Toilet.jpg","36","1","8"
"3","3","retrieval","old_objects","197","TelescopeSpacecraft.jpg","36","1","190"
"3","3","retrieval","old_objects","198","Cannister_GasVintage.jpg","36","1","194"
"3","3","retrieval","old_objects","199","Toy_MerryGoRound.jpg","36","1","190"
"3","3","retrieval","new_objects","200","Rope_Manila.jpg","36","0","93"
"3","3","retrieval","old_objects","201","RiceCooker.jpg","37","0","163"
"3","3","retrieval","new_objects","202","IroningBoard.jpg","36","0","258"
"3","3","retrieval","new_objects","203","Toast.jpg","37","1","196"
"3","3","retrieval","old_objects","204","Card_TwoSpade.jpg","37","0","65"
"3","3","retrieval","old_objects","205","PharoahReplica.jpg","37","0","56"
"3","3","retrieval","old_objects","206","PaperShredder.jpg","36","1","153"
"3","3","retrieval","old_objects","207","BowlingPin.jpg","36","1","53"
"3","3","retrieval","new_objects","208","Flags_CheckeredRacing.jpg","37","1","264"
"3","3","retrieval","new_objects","209","LetterMail.jpg","37","1","474"
"3","3","retrieval","old_objects","210","Megaphone.jpg","36","1","145"
"3","3","retrieval","old_objects","211","StreetSweeper.jpg","36","1","120"
"3","3","retrieval","old_objects","212","Crown.jpg","37","0","126"
"3","3","retrieval","new_objects","213","Qtip_Single.jpg","37","1","359"
"3","3","retrieval","new_objects","214","Bowl_Sugar.jpg","37","1","130"
"3","3","retrieval","old_objects","215","Goose_Canadian.jpg","36","1","147"
"3","3","retrieval","old_objects","216","Pepperoni.jpg","36","1","164"
"3","3","retrieval","old_objects","217","Wire_Soldering.jpg","37","0","71"
"3","3","retrieval","old_objects","218","WalkieTalkie_Yellow.jpg","36","1","296"
"3","3","retrieval","old_objects","219","ChariotGold.jpg","36","1","115"
"3","3","retrieval","old_objects","220","Flashlight.jpg","36","1","184"
"3","3","retrieval","new_objects","221","Embosser.jpg","36","0","103"
"3","3","retrieval","new_objects","222","Seal_Toy.jpg","36","0","154"
"3","3","retrieval","new_objects","223","Table_Conference.jpg","37","1","403"
"3","3","retrieval","new_objects","224","Can_Gas.jpg","36","0","84"
"3","3","retrieval","new_objects","225","IceCreamCone.jpg","36","0","338"
"3","3","retrieval","old_objects","226","GuineaPig.jpg","36","1","43"
"3","3","retrieval","old_objects","227","FuseBox.jpg","36","1","473"
"3","3","retrieval","new_objects","228","Spoon_Baby.jpg","37","1","93"
"3","3","retrieval","old_objects","229","SpinningWheel.jpg","36","1","68"
"3","3","retrieval","new_objects","230","Bandage_Wrap.jpg","37","1","363"
"3","3","retrieval","old_objects","231","CanOpener.jpg","37","0","239"
"3","3","retrieval","old_objects","232","Toy_Shark.jpg","37","0","215"
"3","3","retrieval","new_objects","233","MonaLisa.jpg","37","1","232"
"3","3","retrieval","old_objects","234","Cannon.jpg","37","0","860"
"3","3","retrieval","new_objects","235","Pen_Ballpoint.jpg","37","1","279"
"3","3","retrieval","old_objects","236","NintendoWii.jpg","37","0","358"
"3","3","retrieval","new_objects","237","Jar_JellyBeans.jpg","37","1","514"
"3","3","retrieval","new_objects","238","Bench_Black.jpg","37","1","100"
"3","3","retrieval","old_objects","239","Sashimi.jpg","37","0","132"
"3","3","retrieval","old_objects","240","Mug_Beer.jpg","36","1","294"
"3","3","retrieval","new_objects","241","Table_Saw.jpg","37","1","338"
"3","3","retrieval","new_objects","242","Card_QueenSpade.jpg","37","1","205"
"3","3","retrieval","new_objects","243","PhoneJack.jpg","36","0","76"
"3","3","retrieval","new_objects","245","ClothesDryingRack.jpg","36","0","160"
"3","3","retrieval","old_objects","246","Diode.jpg","36","1","54"
"3","3","retrieval","new_objects","247","PedestalGreek.jpg","36","0","130"
"3","3","retrieval","new_objects","248","ElectricSwitchboard.jpg","37","1","525"
"3","3","retrieval","new_objects","249","Bamboo.jpg","36","0","138"
"3","3","retrieval","new_objects","250","Bag_Garbage.jpg","36","0","297"
"3","3","retrieval","old_objects","251","Axe.jpg","36","1","327"
"3","3","retrieval","new_objects","252","BoogieBoard.jpg","36","0","245"
"3","3","retrieval","new_objects","253","Stove_WithOven.jpg","36","0","58"
"3","3","retrieval","new_objects","254","Hazelnut.jpg","36","0","373"
"3","3","retrieval","old_objects","255","Glasses_Sun.jpg","37","0","8"
"3","3","retrieval","old_objects","256","Photocopier.jpg","36","1","310"
"3","3","retrieval","old_objects","257","ConnectorPlug.jpg","36","1","19"
"3","3","retrieval","old_objects","258","Mask_African.jpg","37","0","452"
"3","3","retrieval","old_objects","259","Egg_Chocolate.jpg","36","1","74"
"3","3","retrieval","new_objects","260","Can_MilkAntique.jpg","36","0","43"
"3","3","retrieval","old_objects","261","Squid_Pink.jpg","36","1","153"
"3","3","retrieval","new_objects","262","LampPost_ThreeBulbs.jpg","36","0","40"
"3","3","retrieval","new_objects","263","TireRims.jpg","36","0","104"
"3","3","retrieval","new_objects","264","Brush_Paint.jpg","36","0","183"
"3","3","retrieval","new_objects","265","Zucchini.jpg","36","0","327"
"3","3","retrieval","old_objects","266","ProcessorFood_Modern.jpg","36","1","3"
"3","3","retrieval","new_objects","267","Gametable_AirHockey.jpg","36","0","146"
"3","3","retrieval","new_objects","268","Plate_Wooden.jpg","36","0","303"
"3","3","retrieval","old_objects","269","Abacus.jpg","37","0","165"
"3","3","retrieval","old_objects","270","Cane_Metal.jpg","36","1","68"
"3","3","retrieval","old_objects","271","MobilityScooter.jpg","36","1","153"
"3","3","retrieval","old_objects","272","Snake_Cobra.jpg","36","1","231"
"3","3","retrieval","new_objects","273","Walker_Silver.jpg","36","0","94"
"3","3","retrieval","new_objects","274","Spoons_MeasuringDetached.jpg","36","0","337"
"3","3","retrieval","old_objects","275","Flamingo_Real.jpg","36","1","127"
"3","3","retrieval","new_objects","276","Notebook.jpg","37","1","27"
"3","3","retrieval","new_objects","277","Bag_Doctor.jpg","37","1","72"
"3","3","retrieval","new_objects","278","BicycleReflector.jpg","36","0","77"
"3","3","retrieval","new_objects","279","Hat_Colonial.jpg","36","0","161"
"3","3","retrieval","old_objects","280","Carousel copy.jpg","36","1","167"
"3","3","retrieval","old_objects","281","Thumbtack.jpg","36","1","226"
"3","3","retrieval","new_objects","282","Dog_SaintBernard.jpg","36","0","192"
"3","3","retrieval","new_objects","283","Bag_Gym.jpg","36","0","224"
"3","3","retrieval","new_objects","284","Pillow_Plaid.jpg","36","0","147"
"3","3","retrieval","new_objects","285","ChalkboardEraser.jpg","36","0","62"
"3","3","retrieval","new_objects","286","Puzzle_Animal.jpg","37","1","173"
"3","3","retrieval","old_objects","287","Boombox.jpg","36","1","87"
"3","3","retrieval","new_objects","288","Sock_Ankle.jpg","36","0","233"
"3","3","retrieval","old_objects","289","Candy_GummyBear.jpg","36","1","992"
"3","3","retrieval","old_objects","290","Chainsaw.jpg","37","0","1370"
"3","3","retrieval","old_objects","291","Clamp.jpg","36","1","514"
"3","3","retrieval","old_objects","292","RibbonSpool.jpg","36","1","261"
"3","3","retrieval","old_objects","293","Thimble.jpg","36","1","279"
"3","3","retrieval","old_objects","294","Microscope.jpg","36","1","294"
"3","3","retrieval","new_objects","295","MilkJug.jpg","36","0","324"
"3","3","retrieval","new_objects","296","PaperCutter.jpg","36","0","694"
"3","3","retrieval","old_objects","297","Hangar.jpg","0","0","2000"
"3","3","retrieval","new_objects","298","FlashlightHeadBand.jpg","36","0","371"
"3","3","retrieval","old_objects","299","Castle_Model.jpg","36","1","175"
"3","3","retrieval","new_objects","300","Tray_Wooden.jpg","36","0","323"
"3","3","retrieval","old_objects","301","Horn_Hunting.jpg","36","1","1320"
"3","3","retrieval","new_objects","302","Mango.jpg","0","0","2000"
"3","3","retrieval","old_objects","303","DrinkShaker.jpg","36","1","270"
"3","3","retrieval","old_objects","304","OrigamiPaper.jpg","36","1","351"
"3","3","retrieval","old_objects","306","Teapot.jpg","36","1","323"
"3","3","retrieval","new_objects","307","CarSeat.jpg","36","0","194"
"3","3","retrieval","old_objects","308","Scorpion.jpg","37","0","410"
"3","3","retrieval","old_objects","309","OnionRings.jpg","0","0","2000"
"3","3","retrieval","old_objects","310","Grenade.jpg","36","1","1025"
"3","3","retrieval","new_objects","311","Mousetrap.jpg","36","0","386"
"3","3","retrieval","new_objects","312","CraneMachine.jpg","36","0","85"
"3","3","retrieval","old_objects","313","Frame_Oval.jpg","36","1","162"
"3","3","retrieval","new_objects","314","Lectern.jpg","36","0","115"
"3","3","retrieval","old_objects","315","BicycleHandleGrip.jpg","36","1","419"
"3","3","retrieval","new_objects","316","FireHydrant.jpg","36","0","311"
"3","3","retrieval","new_objects","317","Pear_Yellow.jpg","36","0","209"
"3","3","retrieval","new_objects","318","PulleyWooden.jpg","37","1","201"
"3","3","retrieval","new_objects","319","ClothCoaster.jpg","36","0","137"
"3","3","retrieval","new_objects","320","Exercise_Machine.jpg","36","0","44"
"3","3","retrieval","new_objects","321","Brush_Light.jpg","36","0","127"
"3","3","retrieval","old_objects","322","Nuts_Peanuts.jpg","36","1","385"
"3","3","retrieval","new_objects","323","PostageStamps.jpg","36","0","111"
"3","3","retrieval","old_objects","324","Fuse.jpg","0","0","2000"
"3","3","retrieval","old_objects","325","Honeydew_Green.jpg","0","0","2000"
"3","3","retrieval","new_objects","326","SnowGlobe.jpg","36","0","261"
"3","3","retrieval","new_objects","327","Box_Notepaper.jpg","36","0","238"
"3","3","retrieval","old_objects","328","Archery_Arrows.jpg","36","1","204"
"3","3","retrieval","new_objects","329","DogFood.jpg","36","0","1252"
"3","3","retrieval","new_objects","330","BikiniTop.jpg","36","0","181"
"3","3","retrieval","old_objects","331","PatioHeater.jpg","36","1","256"
"3","3","retrieval","old_objects","332","Clock_Radioalarm.jpg","36","1","260"
"3","3","retrieval","new_objects","333","Saw.jpg","36","0","51"
"3","3","retrieval","old_objects","334","Toy_RaceTrack.jpg","36","1","84"
"3","3","retrieval","old_objects","335","Ruler_Triangle.jpg","36","1","12"
"3","3","retrieval","new_objects","336","Seashell_BayScallop.jpg","36","0","96"
"3","3","retrieval","old_objects","337","Stapler_Regular.jpg","36","1","351"
"3","3","retrieval","new_objects","338","Cabasa.jpg","36","0","51"
"3","3","retrieval","new_objects","339","Mask_VenetianLongNose.jpg","37","1","129"
"3","3","retrieval","old_objects","340","Toy_Chameleon.jpg","36","1","61"
"3","3","retrieval","new_objects","341","Telephone_Booth.jpg","37","1","50"
"3","3","retrieval","old_objects","342","Box_Vials.jpg","37","0","19"
"3","3","retrieval","old_objects","343","CompassCardinal.jpg","36","1","166"
"3","3","retrieval","old_objects","344","DentalFloss.jpg","36","1","35"
"3","3","retrieval","old_objects","345","Gloves_Bicycle.jpg","36","1","380"
"3","3","retrieval","old_objects","346","Basket_Straw.jpg","36","1","178"
"3","3","retrieval","new_objects","347","Statue_VirginMary.jpg","36","0","199"
"3","3","retrieval","new_objects","348","Suspenders.jpg","36","0","103"
"3","3","retrieval","new_objects","349","Ruler_Digital.jpg","36","0","65"
"3","3","retrieval","old_objects","350","RollingPin.jpg","36","1","24"
"3","3","retrieval","new_objects","351","Socks_Baby.jpg","37","1","53"
"3","3","retrieval","new_objects","352","Distaff.jpg","36","0","310"
"3","3","retrieval","new_objects","353","NewspaperStack.jpg","36","0","256"
"3","3","retrieval","new_objects","354","Stone_Spa.jpg","36","0","74"
"3","3","retrieval","new_objects","355","DonaldDuck_Toy.jpg","36","0","214"
"3","3","demographics_block","gender","1","DonaldDuck_Toy.jpg","male","1","9501"
"3","3","demographics_block","age","1","DonaldDuck_Toy.jpg","31","1","9501"
"3","3","demographics_block","education","1","DonaldDuck_Toy.jpg","18","1","9501"
"3","3","demographics_block","left_right_handed","2","DonaldDuck_Toy.jpg","Right","1","4706"
"3","3","demographics_block","raceoption1","2","DonaldDuck_Toy.jpg","0","1","4706"
"3","3","demographics_block","raceoption2","2","DonaldDuck_Toy.jpg","","1","4706"
"3","3","demographics_block","raceoption3","2","DonaldDuck_Toy.jpg","","1","4706"
"3","3","demographics_block","raceoption4","2","DonaldDuck_Toy.jpg","","1","4706"
"3","3","demographics_block","raceoption5","2","DonaldDuck_Toy.jpg","","1","4706"
"3","3","demographics_block","raceoption6","2","DonaldDuck_Toy.jpg","","1","4706"
"3","3","demographics_block","raceoption7","2","DonaldDuck_Toy.jpg","","1","4706"
"3","3","demographics_block","raceoption8","2","DonaldDuck_Toy.jpg","","1","4706"
"3","3","demographics_block","raceoption9","2","DonaldDuck_Toy.jpg","","1","4706"
"3","3","demographics_block","raceother","2","DonaldDuck_Toy.jpg","","1","4706"
"3","3","demographics_block","raceother","2","DonaldDuck_Toy.jpg","","1","4706"
"3","3","demographics_block","english_language","2","DonaldDuck_Toy.jpg","Yes","1","4706"
"3","3","demographics_block","english_languageother","2","DonaldDuck_Toy.jpg","","1","4706"
"3","3","demographics_block","eyesight","3","DonaldDuck_Toy.jpg","Yes","1","3194"
"3","3","demographics_block","colorblind","3","DonaldDuck_Toy.jpg","No","1","3194"
"3","3","worker_id_block","worker_id_textbox","1","DonaldDuck_Toy.jpg","A14XECI3XLI39H","1","2627"
"7","7","encoding","encoding","1","Goose_Canadian.jpg","36","0","1588"
"7","7","encoding","encoding","2","MeterElectric.jpg","37","0","1606"
"7","7","encoding","encoding","3","Grenade.jpg","37","0","1927"
"7","7","encoding","encoding","4","Hulahoop.jpg","37","0","1281"
"7","7","encoding","encoding","5","Crossbow.jpg","36","0","1098"
"7","7","encoding","encoding","6","Case_Pencil.jpg","36","0","1052"
"7","7","encoding","encoding","7","Golf_Club.jpg","36","0","1125"
"7","7","encoding","encoding","8","Radio_Vintage.jpg","36","0","1486"
"7","7","encoding","encoding","9","NintendoWii.jpg","36","0","1328"
"7","7","encoding","encoding","10","SolderingIron.jpg","36","0","1385"
"7","7","encoding","encoding","11","DryingMachine.jpg","36","0","1018"
"7","7","encoding","encoding","12","PaintBrushAndPallette.jpg","37","0","1212"
"7","7","encoding","encoding","13","Skates.jpg","37","0","1453"
"7","7","encoding","encoding","14","Pliers_NeedleNose.jpg","37","0","1591"
"7","7","encoding","encoding","15","TestTube_MultipleAndRack.jpg","36","0","1208"
"7","7","encoding","encoding","16","Clamp.jpg","37","0","1049"
"7","7","encoding","encoding","17","Playdoh.jpg","37","0","1147"
"7","7","encoding","encoding","18","Toblerone.jpg","37","0","668"
"7","7","encoding","encoding","19","Squid_Pink.jpg","37","0","1357"
"7","7","encoding","encoding","20","BoxTrailer.jpg","36","0","1111"
"7","7","encoding","encoding","21","Syringe_Needle.jpg","37","0","896"
"7","7","encoding","encoding","22","Candy_GummyBear.jpg","37","0","1106"
"7","7","encoding","encoding","23","Carbiner_Ascender.jpg","37","0","1003"
"7","7","encoding","encoding","24","BowlingPin.jpg","37","0","716"
"7","7","encoding","encoding","25","Strainer_Tea.jpg","37","0","813"
"7","7","encoding","encoding","26","TelescopeSpacecraft.jpg","36","0","950"
"7","7","encoding","encoding","27","RamAnimal.jpg","36","0","768"
"7","7","encoding","encoding","28","ScaleWeighing.jpg","36","0","1449"
"7","7","encoding","encoding","29","Tiara.jpg","37","0","851"
"7","7","encoding","encoding","30","WalkieTalkie_Red.jpg","37","0","820"
"7","7","encoding","encoding","31","Basket_Straw.jpg","36","0","1133"
"7","7","encoding","encoding","32","Toy_Chameleon.jpg","37","0","1143"
"7","7","encoding","encoding","33","Bag_Saline.jpg","37","0","1512"
"7","7","encoding","encoding","34","CanOpener.jpg","37","0","641"
"7","7","encoding","encoding","35","Ruler_Triangle.jpg","37","0","1467"
"7","7","encoding","encoding","36","Carousel copy.jpg","36","0","1412"
"7","7","encoding","encoding","37","Cranberry.jpg","37","0","1526"
"7","7","encoding","encoding","38","Cane_Metal.jpg","36","0","1367"
"7","7","encoding","encoding","39","Fuse.jpg","37","0","1232"
"7","7","encoding","encoding","40","Flamingo_Real.jpg","36","0","1218"
"7","7","encoding","encoding","41","Qtip_Multiple.jpg","37","0","1091"
"7","7","encoding","encoding","42","PaperShredder.jpg","36","0","868"
"7","7","encoding","encoding","43","Snorkle.jpg","37","0","1278"
"7","7","encoding","encoding","44","Staples.jpg","37","0","1263"
"7","7","encoding","encoding","45","Honeydew_Green.jpg","36","0","1489"
"7","7","encoding","encoding","46","Abacus.jpg","37","0","1138"
"7","7","encoding","encoding","47","Diode.jpg","37","0","1107"
"7","7","encoding","encoding","48","BearPolar.jpg","36","0","1093"
"7","7","encoding","encoding","49","Broom_Short.jpg","36","0","1470"
"7","7","encoding","encoding","50","Pillar.jpg","36","0","1127"
"7","7","encoding","encoding","51","Snake_Cobra.jpg","37","0","1737"
"7","7","encoding","encoding","52","Nametag.jpg","36","0","1770"
"7","7","encoding","encoding","53","Camera_ProfessionalFilm.jpg","36","0","1852"
"7","7","encoding","encoding","54","Boot_Rain.jpg","0","0","2000"
"7","7","encoding","encoding","55","Ashtray_Empty.jpg","37","0","1278"
"7","7","encoding","encoding","56","Tray_Metal.jpg","36","0","1440"
"7","7","encoding","encoding","57","Nuts_Peanuts.jpg","36","0","737"
"7","7","encoding","encoding","58","ComputerMouse.jpg","37","0","1138"
"7","7","encoding","encoding","59","Crib_Standard.jpg","36","0","1500"
"7","7","encoding","encoding","60","Keg.jpg","37","0","1381"
"7","7","encoding","encoding","62","DentalFloss.jpg","36","0","1729"
"7","7","encoding","encoding","63","Stepper.jpg","36","0","1170"
"7","7","encoding","encoding","64","ProcessorFood_Modern.jpg","36","0","844"
"7","7","encoding","encoding","65","RiceCooker.jpg","36","0","925"
"7","7","encoding","encoding","66","SpinningWheel.jpg","36","0","975"
"7","7","encoding","encoding","67","Barometer.jpg","37","0","1224"
"7","7","encoding","encoding","68","Thumbtack.jpg","37","0","834"
"7","7","encoding","encoding","69","Pasta_Fettuccine.jpg","37","0","1323"
"7","7","encoding","encoding","70","Noisemaker.jpg","37","0","980"
"7","7","encoding","encoding","71","Pasta_Penne.jpg","37","0","797"
"7","7","encoding","encoding","72","Ghost.jpg","37","0","1135"
"7","7","encoding","encoding","73","Toy_RaceTrack.jpg","36","0","1800"
"7","7","encoding","encoding","74","Clock_Radioalarm.jpg","37","0","1121"
"7","7","encoding","encoding","75","Drum_Tall.jpg","36","0","1291"
"7","7","encoding","encoding","76","Card_TwoSpade.jpg","37","0","812"
"7","7","encoding","encoding","77","ServiceBell.jpg","37","0","958"
"7","7","encoding","encoding","78","Toy_BearBlackPlastic.jpg","37","0","1583"
"7","7","encoding","encoding","79","Statue_Man.jpg","36","0","1312"
"7","7","encoding","encoding","80","Axe.jpg","36","0","1186"
"7","7","encoding","encoding","81","GrillRack.jpg","36","0","1251"
"7","7","encoding","encoding","82","Egg_Chocolate.jpg","37","0","1268"
"7","7","encoding","encoding","83","RibbonSpool.jpg","37","0","1438"
"7","7","encoding","encoding","84","Chainsaw.jpg","36","0","1079"
"7","7","encoding","encoding","85","Lettuce_Romaine.jpg","36","0","1785"
"7","7","encoding","encoding","86","Glasses_Sun.jpg","37","0","1242"
"7","7","encoding","encoding","87","Scorpion.jpg","37","0","1099"
"7","7","encoding","encoding","88","TreeHouse.jpg","0","0","2000"
"7","7","encoding","encoding","89","BicycleHandleGrip.jpg","37","0","1254"
"7","7","encoding","encoding","90","Microscope.jpg","36","0","703"
"7","7","encoding","encoding","91","MannequinHead.jpg","36","0","1697"
"7","7","encoding","encoding","92","Archery_Arrows.jpg","36","0","1290"
"7","7","encoding","encoding","93","FuseBox.jpg","36","0","1347"
"7","7","encoding","encoding","94","Mug_Beer.jpg","37","0","1205"
"7","7","encoding","encoding","95","Bat_Cricket.jpg","36","0","950"
"7","7","encoding","encoding","96","Can_Milk.jpg","37","0","976"
"7","7","encoding","encoding","97","Gloves_Bicycle.jpg","37","0","1217"
"7","7","encoding","encoding","98","Thimble.jpg","37","0","946"
"7","7","encoding","encoding","99","MobilityScooter.jpg","36","0","979"
"7","7","encoding","encoding","100","Mug_Ceramic.jpg","37","0","884"
"7","7","encoding","encoding","101","Horn_Hunting.jpg","36","0","1301"
"7","7","encoding","encoding","102","WalkieTalkie_Yellow.jpg","37","0","655"
"7","7","encoding","encoding","103","Crown.jpg","37","0","1600"
"7","7","encoding","encoding","104","GuineaPig.jpg","37","0","1569"
"7","7","encoding","encoding","105","Boombox.jpg","36","0","1043"
"7","7","encoding","encoding","106","NetButterfly.jpg","36","0","1372"
"7","7","encoding","encoding","107","Bird_Duck.jpg","0","0","2000"
"7","7","encoding","encoding","108","OrigamiPaper.jpg","37","0","943"
"7","7","encoding","encoding","109","Toy_BlocksWoodenPlain.jpg","37","0","1512"
"7","7","encoding","encoding","110","Bottle_Oil.jpg","37","0","1082"
"7","7","encoding","encoding","111","Pipe_Pitch.jpg","37","0","1355"
"7","7","encoding","encoding","112","Toy_Shark.jpg","37","0","1252"
"7","7","encoding","encoding","113","Wire_Soldering.jpg","37","0","1382"
"7","7","encoding","encoding","114","Instrument_Nyckelharpa.jpg","36","0","1175"
"7","7","encoding","encoding","115","Brush_Toilet.jpg","36","0","1368"
"7","7","encoding","encoding","116","Shorts_Plaid.jpg","37","0","1306"
"7","7","encoding","encoding","117","StreetSweeper.jpg","0","0","2000"
"7","7","encoding","encoding","118","Stapler_Regular.jpg","37","0","1205"
"7","7","encoding","encoding","119","OnionRings.jpg","37","0","918"
"7","7","encoding","encoding","120","Banana.jpg","37","0","775"
"7","7","encoding","encoding","121","SiloGrain.jpg","36","0","1009"
"7","7","encoding","encoding","123","Makeup_Compact.jpg","37","0","1350"
"7","7","encoding","encoding","124","Cannon.jpg","36","0","871"
"7","7","encoding","encoding","125","Shovel_Sandbox.jpg","37","0","1264"
"7","7","encoding","encoding","126","PowderProtein.jpg","37","0","1090"
"7","7","encoding","encoding","127","Centrifuge.jpg","37","0","1435"
"7","7","encoding","encoding","128","Toy_Drill.jpg","37","0","900"
"7","7","encoding","encoding","129","Toy_MerryGoRound.jpg","37","0","1430"
"7","7","encoding","encoding","130","Exercise_Bike.jpg","36","0","1503"
"7","7","encoding","encoding","131","Sashimi.jpg","37","0","1217"
"7","7","encoding","encoding","132","Pliers_SlipJoint.jpg","37","0","842"
"7","7","encoding","encoding","133","Megaphone.jpg","36","0","1547"
"7","7","encoding","encoding","134","PatioHeater.jpg","36","0","1061"
"7","7","encoding","encoding","135","Tap.jpg","37","0","1318"
"7","7","encoding","encoding","136","RollingPin.jpg","37","0","903"
"7","7","encoding","encoding","137","PlayerFootball.jpg","36","0","865"
"7","7","encoding","encoding","138","Doll_Rag.jpg","37","0","874"
"7","7","encoding","encoding","139","DiaperChangingStation.jpg","36","0","1499"
"7","7","encoding","encoding","140","Truck_Box.jpg","36","0","1164"
"7","7","encoding","encoding","141","FloppyDisk.jpg","36","0","1278"
"7","7","encoding","encoding","142","Backpack_Suitcase.jpg","36","0","1271"
"7","7","encoding","encoding","143","BicycleSeat.jpg","36","0","1512"
"7","7","encoding","encoding","144","Bat_Baseball.jpg","37","0","898"
"7","7","encoding","encoding","145","Cannister_GasVintage.jpg","0","0","2000"
"7","7","encoding","encoding","146","CompassCardinal.jpg","37","0","1493"
"7","7","encoding","encoding","147","Hat_Feather.jpg","37","0","1645"
"7","7","encoding","encoding","148","TowelRack_Metal.jpg","36","0","1167"
"7","7","encoding","encoding","149","Mask_African.jpg","36","0","1704"
"7","7","encoding","encoding","150","MusicSheet.jpg","0","0","2000"
"7","7","encoding","encoding","151","ChariotGold.jpg","36","0","915"
"7","7","encoding","encoding","152","Frame_Oval.jpg","36","0","1484"
"7","7","encoding","encoding","153","NeedlesAcupuncture.jpg","37","0","1062"
"7","7","encoding","encoding","154","PharoahReplica.jpg","36","0","1007"
"7","7","encoding","encoding","155","Chair_Barber.jpg","36","0","848"
"7","7","encoding","encoding","156","ConnectorPlug.jpg","37","0","1146"
"7","7","encoding","encoding","157","PassionFruit.jpg","37","0","899"
"7","7","encoding","encoding","158","Flashlight.jpg","37","0","828"
"7","7","encoding","encoding","159","Tortilla.jpg","37","0","933"
"7","7","encoding","encoding","160","DrinkShaker.jpg","37","0","1414"
"7","7","encoding","encoding","161","Archery_ArrowsBows.jpg","36","0","935"
"7","7","encoding","encoding","162","Hoverboard.jpg","37","0","1905"
"7","7","encoding","encoding","163","TestTube_Single.jpg","37","0","1025"
"7","7","encoding","encoding","164","Camera_Digital.jpg","37","0","891"
"7","7","encoding","encoding","165","Bird_Hen.jpg","36","0","1412"
"7","7","encoding","encoding","166","Box_Vials.jpg","37","0","1061"
"7","7","encoding","encoding","167","Pepperoni.jpg","37","0","1047"
"7","7","encoding","encoding","168","Playard.jpg","36","0","1232"
"7","7","encoding","encoding","169","Teapot.jpg","37","0","1154"
"7","7","encoding","encoding","170","Photocopier.jpg","36","0","811"
"7","7","encoding","encoding","171","Gazebo.jpg","36","0","1044"
"7","7","encoding","encoding","172","Hourglass.jpg","37","0","1126"
"7","7","encoding","encoding","173","GingerbreadMan.jpg","37","0","999"
"7","7","encoding","encoding","174","Hangar.jpg","36","0","944"
"7","7","encoding","encoding","175","Castle_Model.jpg","36","0","913"
"7","7","encoding","encoding","176","Statue_Horse.jpg","37","0","1499"
"7","7","encoding","encoding","177","Potato.jpg","37","0","1476"
"7","7","retrieval","old_objects","1","Playdoh.jpg","36","1","1602"
"7","7","retrieval","new_objects","2","Cleaver_Meat.jpg","37","1","1106"
"7","7","retrieval","old_objects","3","CompassCardinal.jpg","36","1","1143"
"7","7","retrieval","old_objects","4","Photocopier.jpg","36","1","842"
"7","7","retrieval","old_objects","5","Pasta_Penne.jpg","36","1","1368"
"7","7","retrieval","old_objects","6","Toy_RaceTrack.jpg","36","1","770"
"7","7","retrieval","new_objects","7","PickupTruck.jpg","37","1","756"
"7","7","retrieval","new_objects","8","BicycleReflector.jpg","37","1","789"
"7","7","retrieval","old_objects","9","DrinkShaker.jpg","37","0","598"
"7","7","retrieval","old_objects","10","Pepperoni.jpg","36","1","958"
"7","7","retrieval","old_objects","11","Shovel_Sandbox.jpg","36","1","616"
"7","7","retrieval","new_objects","12","Light_Halogen.jpg","37","1","704"
"7","7","retrieval","old_objects","13","Exercise_Bike.jpg","36","1","764"
"7","7","retrieval","old_objects","14","Qtip_Multiple.jpg","36","1","486"
"7","7","retrieval","old_objects","15","Lettuce_Romaine.jpg","36","1","610"
"7","7","retrieval","old_objects","16","Pillar.jpg","36","1","578"
"7","7","retrieval","old_objects","17","Cane_Metal.jpg","36","1","506"
"7","7","retrieval","new_objects","18","HardDrive.jpg","37","1","534"
"7","7","retrieval","new_objects","19","Cantaloupe.jpg","37","1","769"
"7","7","retrieval","new_objects","20","Boots_Hiking.jpg","36","0","522"
"7","7","retrieval","new_objects","21","KitchenTools.jpg","37","1","965"
"7","7","retrieval","old_objects","22","MobilityScooter.jpg","36","1","687"
"7","7","retrieval","old_objects","23","Pasta_Fettuccine.jpg","37","0","868"
"7","7","retrieval","new_objects","24","Bowl_Sugar.jpg","37","1","721"
"7","7","retrieval","old_objects","25","Shorts_Plaid.jpg","36","1","765"
"7","7","retrieval","new_objects","26","LightBulb_White.jpg","36","0","863"
"7","7","retrieval","new_objects","27","Toy_Tank.jpg","37","1","884"
"7","7","retrieval","new_objects","28","Bottle_Specimen.jpg","37","1","673"
"7","7","retrieval","new_objects","29","Sign_Construction.jpg","37","1","662"
"7","7","retrieval","old_objects","30","Clock_Radioalarm.jpg","36","1","844"
"7","7","retrieval","new_objects","31","PedestalGreek.jpg","37","1","610"
"7","7","retrieval","old_objects","32","MeterElectric.jpg","36","1","850"
"7","7","retrieval","new_objects","33","Jet.jpg","37","1","728"
"7","7","retrieval","old_objects","34","Hangar.jpg","36","1","723"
"7","7","retrieval","new_objects","35","Walker_Silver.jpg","37","1","814"
"7","7","retrieval","new_objects","36","Seashell_BayScallop.jpg","36","0","629"
"7","7","retrieval","old_objects","37","PlayerFootball.jpg","36","1","700"
"7","7","retrieval","old_objects","38","Bag_Saline.jpg","37","0","728"
"7","7","retrieval","new_objects","39","Joystick.jpg","36","0","907"
"7","7","retrieval","old_objects","40","Clamp.jpg","36","1","935"
"7","7","retrieval","new_objects","41","Truck_Dump.jpg","37","1","794"
"7","7","retrieval","old_objects","42","Flamingo_Real.jpg","36","1","754"
"7","7","retrieval","new_objects","43","Candy_Lozenge.jpg","37","1","765"
"7","7","retrieval","new_objects","44","Trowel.jpg","36","0","718"
"7","7","retrieval","new_objects","45","MortarPestle_BlackStone.jpg","37","1","546"
"7","7","retrieval","new_objects","46","Napkin_Single.jpg","37","1","748"
"7","7","retrieval","new_objects","47","PhoneJack.jpg","37","1","878"
"7","7","retrieval","new_objects","48","Guitarcase.jpg","37","1","739"
"7","7","retrieval","new_objects","49","Socks_Baby.jpg","37","1","582"
"7","7","retrieval","old_objects","50","Toblerone.jpg","36","1","638"
"7","7","retrieval","new_objects","51","Bag_String.jpg","37","1","900"
"7","7","retrieval","old_objects","52","Stapler_Regular.jpg","37","0","585"
"7","7","retrieval","old_objects","53","RamAnimal.jpg","37","0","866"
"7","7","retrieval","new_objects","54","Toy_Helicopter.jpg","37","1","743"
"7","7","retrieval","old_objects","55","Toy_Chameleon.jpg","36","1","730"
"7","7","retrieval","new_objects","56","Earth_Planet.jpg","37","1","1117"
"7","7","retrieval","old_objects","57","Goose_Canadian.jpg","37","0","736"
"7","7","retrieval","old_objects","58","Archery_ArrowsBows.jpg","36","1","875"
"7","7","retrieval","new_objects","59","Table_Saw.jpg","37","1","760"
"7","7","retrieval","old_objects","60","Hoverboard.jpg","36","1","754"
"7","7","retrieval","new_objects","62","BloodpPresureCuff.jpg","37","1","765"
"7","7","retrieval","old_objects","63","Crossbow.jpg","37","0","727"
"7","7","retrieval","old_objects","64","Hourglass.jpg","36","1","657"
"7","7","retrieval","new_objects","65","Bamboo.jpg","37","1","623"
"7","7","retrieval","new_objects","66","TireRims.jpg","37","1","662"
"7","7","retrieval","new_objects","67","Hat_Baseball.jpg","37","1","579"
"7","7","retrieval","new_objects","68","Glass_Wine.jpg","37","1","484"
"7","7","retrieval","old_objects","69","Snake_Cobra.jpg","36","1","577"
"7","7","retrieval","new_objects","70","Pillow_Plaid.jpg","37","1","522"
"7","7","retrieval","old_objects","71","Egg_Chocolate.jpg","36","1","685"
"7","7","retrieval","new_objects","72","Toy_DinosaurTRex.jpg","37","1","450"
"7","7","retrieval","new_objects","73","Distaff.jpg","36","0","784"
"7","7","retrieval","new_objects","74","Light_Studio.jpg","37","1","713"
"7","7","retrieval","old_objects","75","ScaleWeighing.jpg","36","1","668"
"7","7","retrieval","new_objects","76","Notebook.jpg","37","1","570"
"7","7","retrieval","old_objects","77","Bird_Duck.jpg","36","1","643"
"7","7","retrieval","new_objects","78","Suspenders.jpg","37","1","530"
"7","7","retrieval","old_objects","79","SolderingIron.jpg","37","0","668"
"7","7","retrieval","new_objects","80","Stone_Spa.jpg","37","1","770"
"7","7","retrieval","old_objects","81","BowlingPin.jpg","36","1","659"
"7","7","retrieval","new_objects","82","Pouch_PotPourri.jpg","37","1","697"
"7","7","retrieval","new_objects","83","Mask_VenetianLongNose.jpg","37","1","789"
"7","7","retrieval","new_objects","84","Wallet_ClosedBrown.jpg","37","1","661"
"7","7","retrieval","new_objects","85","LetterMail.jpg","37","1","683"
"7","7","retrieval","old_objects","86","Golf_Club.jpg","36","1","664"
"7","7","retrieval","old_objects","87","Squid_Pink.jpg","36","1","821"
"7","7","retrieval","new_objects","88","PersonWooden.jpg","37","1","628"
"7","7","retrieval","old_objects","89","SiloGrain.jpg","36","1","699"
"7","7","retrieval","new_objects","90","Egg_Cup.jpg","37","1","728"
"7","7","retrieval","new_objects","91","Toy_Lighthouse.jpg","36","0","626"
"7","7","retrieval","old_objects","92","RibbonSpool.jpg","36","1","809"
"7","7","retrieval","new_objects","93","Spoon_Baby.jpg","37","1","601"
"7","7","retrieval","old_objects","94","PatioHeater.jpg","37","0","641"
"7","7","retrieval","new_objects","95","Spoons_MeasuringDetached.jpg","37","1","663"
"7","7","retrieval","old_objects","96","Chair_Barber.jpg","36","1","613"
"7","7","retrieval","new_objects","97","Popcorn.jpg","37","1","700"
"7","7","retrieval","old_objects","98","Snorkle.jpg","37","0","1008"
"7","7","retrieval","old_objects","99","Bat_Cricket.jpg","37","0","832"
"7","7","retrieval","new_objects","100","Qtip_Single.jpg","36","0","871"
"7","7","retrieval","old_objects","101","Pliers_SlipJoint.jpg","36","1","805"
