"group","subject","blockcode","trialcode","trialnum","values.stimulus","response","correct","latency"
"2","2","encoding","encoding","1","MovieSlate.jpg","0","0","2001"
"2","2","encoding","encoding","2","Artichoke.jpg","0","0","2001"
"2","2","encoding","encoding","3","HorseshoeCrab.jpg","0","0","2001"
"2","2","encoding","encoding","4","Speaker_Single.jpg","0","0","2001"
"2","2","encoding","encoding","5","Buffalo.jpg","0","0","2001"
"2","2","encoding","encoding","6","Pickaxe.jpg","Ctrl+'B'","0","0"
"2","2","retrieval","new_objects","1","Glove_Baseball.jpg","0","0","2001"
"2","2","retrieval","new_objects","2","Flower_Hibiscus.jpg","0","0","2001"
"3","3","encoding","encoding","1","Tray_Muffin.jpg","0","0","2001"
"3","3","encoding","encoding","2","Vase_EarthToned.jpg","0","0","2001"
"3","3","encoding","encoding","3","Box_Wine.jpg","0","0","2001"
"3","3","encoding","encoding","4","Hubcap.jpg","0","0","2001"
"3","3","encoding","encoding","5","Broccoli.jpg","Ctrl+'B'","1","570"
"3","3","retrieval","old_objects","1","Almond.jpg","0","0","2001"
"3","3","retrieval","new_objects","2","Bagel.jpg","Ctrl+'B'","1","658"
"3","3","demographics_block","gender","1","Bagel.jpg","","1","903"
"3","3","demographics_block","age","1","Bagel.jpg","","1","903"
"3","3","demographics_block","education","1","Bagel.jpg","","1","903"
"3","3","worker_id_block","worker_id_textbox","1","Bagel.jpg","","1","247"
"4","4","encoding","encoding","1","CameoPortrait.jpg","0","0","2000"
"4","4","encoding","encoding","2","Paddle_Canoe.jpg","36","0","1140"
"4","4","encoding","encoding","3","Chair_Car.jpg","36","0","932"
"4","4","encoding","encoding","4","Barrel_Wine.jpg","36","0","921"
"4","4","encoding","encoding","5","HairClipper.jpg","37","0","875"
"4","4","encoding","encoding","6","Heater_Outdoor.jpg","36","0","953"
"4","4","encoding","encoding","7","Lollipop_Rainbow.jpg","37","0","953"
"4","4","encoding","encoding","8","HorseshoeCrab.jpg","37","0","1340"
"4","4","encoding","encoding","9","Stroboscope.jpg","36","0","1363"
"4","4","encoding","encoding","10","Toy_FigurineEngineer.jpg","37","0","991"
"4","4","encoding","encoding","11","Buffalo.jpg","36","0","803"
"4","4","encoding","encoding","12","Noisemaker_Streamers.jpg","37","0","1124"
"4","4","encoding","encoding","13","JuicerCitrus.jpg","37","0","971"
"4","4","encoding","encoding","14","Helmet_Football.jpg","36","0","898"
"4","4","encoding","encoding","15","PencilCase.jpg","37","0","807"
"4","4","encoding","encoding","16","Rake_Long.jpg","36","0","1098"
"4","4","encoding","encoding","17","Flower_Crane.jpg","37","0","790"
"4","4","encoding","encoding","18","Flower_Basket.jpg","36","0","992"
"4","4","encoding","encoding","19","Heater_Infrared.jpg","36","0","1507"
"4","4","encoding","encoding","20","Jar_Empty.jpg","37","0","955"
"4","4","encoding","encoding","21","Grill_Gas.jpg","36","0","685"
"4","4","encoding","encoding","22","Computer_ExpansionCard.jpg","37","0","1022"
"4","4","encoding","encoding","23","Toy_GasPump.jpg","36","0","1352"
"4","4","encoding","encoding","24","Jetski.jpg","36","0","866"
"4","4","encoding","encoding","25","Bandage_Adhesive.jpg","37","0","708"
"4","4","encoding","encoding","26","Keyhole.jpg","37","0","1426"
"4","4","encoding","encoding","27","Dress_Blue.jpg","36","0","1114"
"4","4","encoding","encoding","28","Steam_Cleaner.jpg","37","0","1564"
"4","4","encoding","encoding","29","Yarmulke.jpg","37","0","1576"
"4","4","encoding","encoding","30","Makeup_Mascara.jpg","37","0","890"
"4","4","encoding","encoding","31","VacuumHead.jpg","37","0","1021"
"4","4","encoding","encoding","32","Toy_Car.jpg","36","0","1022"
"4","4","encoding","encoding","33","Foam_Accoustic.jpg","37","0","1660"
"4","4","encoding","encoding","34","SundaeBanana.jpg","37","0","1965"
"4","4","encoding","encoding","35","Toy_BearBluePlushie.jpg","37","0","1496"
"4","4","encoding","encoding","36","Corkboard.jpg","36","0","1712"
"4","4","encoding","encoding","37","Almond.jpg","37","0","1299"
"4","4","encoding","encoding","38","Toy_Train.jpg","36","0","1435"
"4","4","encoding","encoding","39","Nuts_Pecan.jpg","37","0","954"
"4","4","encoding","encoding","40","Ruler_Wooden.jpg","0","0","2000"
"4","4","encoding","encoding","41","Whip.jpg","37","0","1724"
"4","4","encoding","encoding","42","Pickaxe.jpg","36","0","1049"
"4","4","encoding","encoding","43","DeepFryer.jpg","36","0","1513"
"4","4","encoding","encoding","44","Hat_Cowboy.jpg","37","0","848"
"4","4","encoding","encoding","45","Ladle.jpg","37","0","1075"
"4","4","encoding","encoding","46","Sign_Caution.jpg","36","0","750"
"4","4","encoding","encoding","47","House_Doll.jpg","36","0","876"
"4","4","encoding","encoding","48","Hat_Beanie.jpg","37","0","740"
"4","4","encoding","encoding","49","Shoes_DutchClogs.jpg","36","0","1335"
"4","4","encoding","encoding","50","Cast.jpg","37","0","1178"
"4","4","encoding","encoding","51","Speaker_Single.jpg","36","0","1462"
"4","4","encoding","encoding","52","Case_DVD.jpg","37","0","803"
"4","4","encoding","encoding","53","Sphinx.jpg","36","0","733"
"4","4","encoding","encoding","54","Desk_School.jpg","36","0","907"
"4","4","encoding","encoding","55","Light_Traffic.jpg","36","0","984"
"4","4","encoding","encoding","56","ComputerKey_Escape.jpg","37","0","1014"
"4","4","encoding","encoding","57","MovieSlate.jpg","36","0","937"
"4","4","encoding","encoding","58","Gauge.jpg","37","0","1137"
"4","4","encoding","encoding","59","Pot_Cooking.jpg","36","0","1113"
"4","4","encoding","encoding","60","Staircase_Curving.jpg","36","0","1170"
"4","4","encoding","encoding","62","Ball_Squashball.jpg","37","0","873"
"4","4","encoding","encoding","63","Snowpea.jpg","37","0","849"
"4","4","encoding","encoding","64","LicensePlate.jpg","36","0","1493"
"4","4","encoding","encoding","65","BadgeSpecialAgent.jpg","37","0","731"
"4","4","encoding","encoding","66","Shirt_SportsJersey.jpg","36","0","1884"
"4","4","encoding","encoding","67","White_Screen.jpg","0","0","2000"
"4","4","encoding","encoding","68","Gum_Pack.jpg","37","0","1338"
"4","4","encoding","encoding","69","Hotdog_Weiner.jpg","0","0","2000"
"4","4","encoding","encoding","70","Caterpillar.jpg","37","0","725"
"4","4","encoding","encoding","71","SoapBottle.jpg","37","0","1544"
"4","4","encoding","encoding","72","Bolt_WithNut.jpg","37","0","776"
"4","4","encoding","encoding","73","Dreamcatcher.jpg","37","0","1060"
"4","4","encoding","encoding","74","Sign_Open.jpg","37","0","1130"
"4","4","encoding","encoding","75","ReindeerHeadband.jpg","36","0","1838"
"4","4","encoding","encoding","76","TowelRack_Brown.jpg","36","0","882"
"4","4","encoding","encoding","77","Mixer_Hand.jpg","36","0","883"
"4","4","encoding","encoding","78","SewingPin_Cushion.jpg","37","0","865"
"4","4","encoding","encoding","79","Glass_Ball.jpg","37","0","945"
"4","4","encoding","encoding","80","Bark.jpg","36","0","1087"
"4","4","encoding","encoding","81","Window.jpg","36","0","647"
"4","4","encoding","encoding","82","Lion.jpg","36","0","783"
"4","4","encoding","encoding","83","Spotlight.jpg","36","0","830"
"4","4","encoding","encoding","84","Bucket_Rusty.jpg","36","0","770"
"4","4","encoding","encoding","85","Stool_Camping.jpg","36","0","995"
"4","4","encoding","encoding","86","Box_WoodCrate.jpg","36","0","1020"
"4","4","encoding","encoding","87","Pen_Calligraphy.jpg","37","0","877"
"4","4","encoding","encoding","88","Chair_MedicalToilet.jpg","36","0","955"
"4","4","encoding","encoding","89","Mug_Travel.jpg","37","0","791"
"4","4","encoding","encoding","90","Origami_Bird.jpg","37","0","1105"
"4","4","encoding","encoding","91","Camel_Dromedary.jpg","36","0","736"
"4","4","encoding","encoding","92","Screw.jpg","37","0","928"
"4","4","encoding","encoding","93","Bag_Gift.jpg","36","0","684"
"4","4","encoding","encoding","94","Toy_Ladybug.jpg","36","0","1171"
"4","4","encoding","encoding","95","Spoon_Wooden.jpg","37","0","1037"
"4","4","encoding","encoding","96","JuiceBox.jpg","37","0","775"
"4","4","encoding","encoding","97","LitterScoop.jpg","37","0","909"
"4","4","encoding","encoding","98","ComputerKeyboard_F1.jpg","37","0","1014"
"4","4","encoding","encoding","99","Vase_EarthToned.jpg","36","0","1228"
"4","4","encoding","encoding","100","Artichoke.jpg","37","0","1029"
"4","4","encoding","encoding","101","Bowl_Chopsticks.jpg","37","0","1176"
"4","4","encoding","encoding","102","Bench_Park.jpg","36","0","678"
"4","4","encoding","encoding","103","Boots_KneeHigh.jpg","36","0","654"
"4","4","encoding","encoding","104","Chicken_Dinner.jpg","36","0","1359"
"4","4","encoding","encoding","105","Beater_Electric.jpg","36","0","800"
"4","4","encoding","encoding","106","Paddle_Beach.jpg","36","0","1149"
"4","4","encoding","encoding","107","OperaGlasses.jpg","36","0","1590"
"4","4","encoding","encoding","108","GasBurner.jpg","37","0","1301"
"4","4","encoding","encoding","109","Parcel.jpg","36","0","999"
"4","4","encoding","encoding","110","Table_Magazine.jpg","36","0","949"
"4","4","encoding","encoding","111","SledgeHammer.jpg","36","0","1114"
"4","4","encoding","encoding","112","CoinRolls.jpg","37","0","670"
"4","4","encoding","encoding","113","Mitt_Oven.jpg","37","0","1178"
"4","4","encoding","encoding","114","Squid_Orange.jpg","36","0","1064"
"4","4","encoding","encoding","115","Shoes_Mould.jpg","37","0","1211"
"4","4","encoding","encoding","116","Folder_Plastic.jpg","37","0","1345"
"4","4","encoding","encoding","117","IceCream_Chocolate.jpg","37","0","1467"
"4","4","encoding","encoding","118","Lamp_Table.jpg","36","0","1298"
"4","4","encoding","encoding","119","Bread_Pita.jpg","37","0","944"
"4","4","encoding","encoding","120","Bucket_Halloween.jpg","36","0","918"
"4","4","encoding","encoding","121","WaterGun.jpg","37","0","731"
"4","4","encoding","encoding","123","Boat_Dinghy.jpg","36","0","813"
"4","4","encoding","encoding","124","LifeJacket_Orangejpg.jpg","37","0","882"
"4","4","encoding","encoding","125","Lighter_Black.jpg","37","0","581"
"4","4","encoding","encoding","126","Dropper.jpg","37","0","930"
"4","4","encoding","encoding","127","Cake_Cheese.jpg","36","0","1282"
"4","4","encoding","encoding","128","Flower_Daisy.jpg","37","0","911"
"4","4","encoding","encoding","129","Bag_PaperWithFlour.jpg","36","0","860"
"4","4","encoding","encoding","130","Dresser.jpg","36","0","894"
"4","4","encoding","encoding","131","Harp.jpg","36","0","1113"
"4","4","encoding","encoding","132","Broccoli.jpg","37","0","882"
"4","4","encoding","encoding","133","Otoscope.jpg","37","0","903"
"4","4","encoding","encoding","134","Hockey_Puck.jpg","36","0","999"
"4","4","encoding","encoding","135","Tricycle.jpg","36","0","1158"
"4","4","encoding","encoding","136","Radish.jpg","37","0","850"
"4","4","encoding","encoding","137","Tribunal_Wooden.jpg","36","0","925"
"4","4","encoding","encoding","138","Drum_Conga.jpg","36","0","900"
"4","4","encoding","encoding","139","PillBottle_Prescription.jpg","37","0","678"
"4","4","encoding","encoding","140","DormerWindow.jpg","36","0","629"
"4","4","encoding","encoding","141","Weights_Dumbells.jpg","37","0","645"
"4","4","encoding","encoding","142","Blackboard.jpg","36","0","710"
"4","4","encoding","encoding","143","Toy_Firetruck.jpg","37","0","719"
"4","4","encoding","encoding","144","Costume_Wizard.jpg","36","0","1510"
"4","4","encoding","encoding","145","Plate_Children.jpg","37","0","898"
"4","4","encoding","encoding","146","Bag_Computer.jpg","37","0","972"
"4","4","encoding","encoding","147","Spider.jpg","37","0","876"
"4","4","encoding","encoding","148","Arch.jpg","36","0","817"
"4","4","encoding","encoding","149","Tray_Muffin.jpg","36","0","1051"
"4","4","encoding","encoding","150","TubeRing.jpg","36","0","689"
"4","4","encoding","encoding","151","Bird_Toucan.jpg","37","0","689"
"4","4","encoding","encoding","152","Swing_Child.jpg","36","0","541"
"4","4","encoding","encoding","153","Microphone.jpg","36","0","1811"
"4","4","encoding","encoding","154","Cracker_Saltine.jpg","37","0","888"
"4","4","encoding","encoding","155","Box_Wine.jpg","36","0","688"
"4","4","encoding","encoding","156","Lock_Door.jpg","37","0","641"
"4","4","encoding","encoding","157","Hubcap.jpg","36","0","1288"
"4","4","encoding","encoding","158","Cologne.jpg","37","0","796"
"4","4","encoding","encoding","159","Bench_Wooden.jpg","36","0","821"
"4","4","encoding","encoding","160","Tire_Hollow.jpg","36","0","907"
"4","4","encoding","encoding","161","Glass_Bowl.jpg","37","0","1007"
"4","4","encoding","encoding","162","Stool_Foot.jpg","36","0","608"
"4","4","encoding","encoding","163","Toy_TableSet.jpg","36","0","787"
"4","4","encoding","encoding","164","Rock_Agate.jpg","37","0","667"
"4","4","encoding","encoding","165","Sign_SpeedLimit25.jpg","36","0","661"
"4","4","encoding","encoding","166","WateringCan_Antique.jpg","36","0","1514"
"4","4","encoding","encoding","167","TigerWhite.jpg","36","0","855"
"4","4","encoding","encoding","168","Cord_usb.jpg","37","0","652"
"4","4","encoding","encoding","169","Heater_ElectricUpright.jpg","36","0","804"
"4","4","encoding","encoding","170","Awning.jpg","36","0","772"
"4","4","encoding","encoding","171","Handbag.jpg","37","0","628"
"4","4","encoding","encoding","172","DogLeash.jpg","37","0","531"
"4","4","encoding","encoding","173","Bugle.jpg","37","0","1607"
"4","4","encoding","encoding","174","Headphones.jpg","37","0","729"
"4","4","encoding","encoding","175","Olives.jpg","37","0","841"
"4","4","encoding","encoding","176","Sign_TrafficArrow.jpg","36","0","819"
"4","4","encoding","encoding","177","Bagpipes.jpg","36","0","1245"
"4","4","retrieval","new_objects","1","WaterHeater.jpg","37","1","1348"
"4","4","retrieval","new_objects","2","Condom.jpg","37","1","947"
"4","4","retrieval","old_objects","3","Light_Traffic.jpg","36","1","800"
"4","4","retrieval","new_objects","4","Lock_Combination.jpg","37","1","772"
"4","4","retrieval","new_objects","5","Eraser.jpg","36","0","835"
"4","4","retrieval","new_objects","6","Canister_Tea.jpg","37","1","664"
"4","4","retrieval","old_objects","7","Paddle_Beach.jpg","36","1","832"
"4","4","retrieval","new_objects","8","Gun_Revolver.jpg","37","1","772"
"4","4","retrieval","new_objects","9","Bottle_Blue.jpg","37","1","929"
"4","4","retrieval","old_objects","10","Desk_School.jpg","36","1","660"
"4","4","retrieval","new_objects","11","PizzaCutter.jpg","37","1","617"
"4","4","retrieval","old_objects","12","Bugle.jpg","36","1","984"
"4","4","retrieval","new_objects","13","ToothBrush.jpg","37","1","771"
"4","4","retrieval","new_objects","14","Toy_ElephantPlastic.jpg","37","1","891"
"4","4","retrieval","old_objects","15","Speaker_Single.jpg","36","1","922"
"4","4","retrieval","old_objects","16","Ruler_Wooden.jpg","36","1","669"
"4","4","retrieval","old_objects","17","Hockey_Puck.jpg","36","1","710"
"4","4","retrieval","new_objects","18","Shoes_Snow.jpg","37","1","627"
"4","4","retrieval","new_objects","19","Fan_Blades.jpg","37","1","667"
"4","4","retrieval","old_objects","20","Toy_Train.jpg","36","1","933"
"4","4","retrieval","old_objects","21","Bench_Wooden.jpg","36","1","656"
"4","4","retrieval","new_objects","22","ToothPaste.jpg","37","1","692"
"4","4","retrieval","old_objects","23","Headphones.jpg","36","1","867"
"4","4","retrieval","old_objects","24","LifeJacket_Orangejpg.jpg","36","1","774"
"4","4","retrieval","new_objects","25","ChocolateBar_Unwrapped.jpg","37","1","600"
"4","4","retrieval","old_objects","26","Dress_Blue.jpg","36","1","632"
"4","4","retrieval","new_objects","27","LaundryHamper.jpg","37","1","586"
"4","4","retrieval","new_objects","28","BottleOpener.jpg","37","1","1145"
"4","4","retrieval","old_objects","29","Pickaxe.jpg","36","1","645"
"4","4","retrieval","old_objects","30","Cast.jpg","36","1","1038"
"4","4","retrieval","new_objects","31","MilkPitcher.jpg","37","1","878"
"4","4","retrieval","new_objects","32","Flower_Hibiscus.jpg","37","1","936"
"4","4","retrieval","new_objects","33","Shoes_Pumps.jpg","37","1","814"
"4","4","retrieval","new_objects","34","Box_FirstAidOpen.jpg","37","1","689"
"4","4","retrieval","new_objects","35","Coral.jpg","37","1","762"
"4","4","retrieval","new_objects","36","CartonEggs.jpg","37","1","598"
"4","4","retrieval","old_objects","37","Boots_KneeHigh.jpg","36","1","724"
"4","4","retrieval","new_objects","38","Castle_Sand.jpg","37","1","692"
"4","4","retrieval","new_objects","39","Harmonica.jpg","37","1","872"
"4","4","retrieval","old_objects","40","Staircase_Curving.jpg","36","1","651"
"4","4","retrieval","old_objects","41","Pen_Calligraphy.jpg","37","0","611"
"4","4","retrieval","old_objects","42","Hat_Beanie.jpg","37","0","730"
"4","4","retrieval","new_objects","43","Box_Package.jpg","37","1","892"
"4","4","retrieval","old_objects","44","Shoes_Mould.jpg","36","1","707"
"4","4","retrieval","new_objects","45","Basket_Firewood.jpg","37","1","619"
"4","4","retrieval","old_objects","46","Flower_Crane.jpg","36","1","813"
"4","4","retrieval","old_objects","47","Toy_Firetruck.jpg","36","1","566"
"4","4","retrieval","old_objects","48","CameoPortrait.jpg","36","1","652"
"4","4","retrieval","old_objects","49","Bolt_WithNut.jpg","37","0","593"
"4","4","retrieval","old_objects","50","SledgeHammer.jpg","36","1","585"
"4","4","retrieval","new_objects","51","Perfume.jpg","37","1","578"
"4","4","retrieval","old_objects","52","DogLeash.jpg","36","1","624"
"4","4","retrieval","old_objects","53","Glass_Ball.jpg","36","1","786"
"4","4","retrieval","new_objects","54","Ferret.jpg","37","1","556"
"4","4","retrieval","old_objects","55","Camel_Dromedary.jpg","36","1","605"
"4","4","retrieval","old_objects","56","LitterScoop.jpg","37","0","720"
"4","4","retrieval","old_objects","57","Bread_Pita.jpg","36","1","971"
"4","4","retrieval","old_objects","58","Glass_Bowl.jpg","37","0","814"
"4","4","retrieval","new_objects","59","Pipe_Drain.jpg","36","0","681"
"4","4","retrieval","old_objects","60","Sign_Caution.jpg","36","1","794"
"4","4","retrieval","new_objects","62","Barrel_Upright.jpg","36","0","1256"
"4","4","retrieval","new_objects","63","Bag_Grains.jpg","36","0","1777"
"4","4","retrieval","old_objects","64","Weights_Dumbells.jpg","36","1","756"
"4","4","retrieval","new_objects","65","WashRack.jpg","37","1","685"
"4","4","retrieval","new_objects","66","Cheeseburger.jpg","37","1","829"
"4","4","retrieval","old_objects","67","Heater_Infrared.jpg","36","1","917"
"4","4","retrieval","new_objects","68","Basket_Plastic.jpg","37","1","544"
"4","4","retrieval","new_objects","69","PillBottle_Spilled.jpg","37","1","1009"
"4","4","retrieval","old_objects","70","Costume_Wizard.jpg","36","1","773"
"4","4","retrieval","old_objects","71","Bird_Toucan.jpg","36","1","737"
"4","4","retrieval","new_objects","72","Fruit_Cactus.jpg","37","1","666"
"4","4","retrieval","old_objects","73","Steam_Cleaner.jpg","36","1","819"
"4","4","retrieval","new_objects","74","FlintIgniter.jpg","37","1","723"
"4","4","retrieval","new_objects","75","Car_Vintage.jpg","37","1","1800"
"4","4","retrieval","old_objects","76","Hotdog_Weiner.jpg","36","1","759"
"4","4","retrieval","new_objects","77","Mask_VenetianCat.jpg","37","1","646"
"4","4","retrieval","new_objects","78","Crutches.jpg","37","1","671"
"4","4","retrieval","old_objects","79","House_Doll.jpg","36","1","718"
"4","4","retrieval","old_objects","80","Dresser.jpg","36","1","665"
"4","4","retrieval","old_objects","81","Spoon_Wooden.jpg","36","1","945"
"4","4","retrieval","old_objects","82","Pot_Cooking.jpg","37","0","650"
"4","4","retrieval","old_objects","83","HairClipper.jpg","36","1","975"
"4","4","retrieval","old_objects","84","Toy_TableSet.jpg","36","1","592"
"4","4","retrieval","old_objects","85","PillBottle_Prescription.jpg","36","1","834"
"4","4","retrieval","new_objects","86","Car_Totalled.jpg","37","1","682"
"4","4","retrieval","old_objects","87","IceCream_Chocolate.jpg","36","1","824"
"4","4","retrieval","old_objects","88","Jar_Empty.jpg","37","0","779"
"4","4","retrieval","old_objects","89","Cake_Cheese.jpg","36","1","605"
"4","4","retrieval","old_objects","90","Stool_Camping.jpg","36","1","718"
"4","4","retrieval","new_objects","91","Leek.jpg","36","0","676"
"4","4","retrieval","old_objects","92","Hubcap.jpg","36","1","689"
"4","4","retrieval","old_objects","93","Helmet_Football.jpg","36","1","809"
"4","4","retrieval","new_objects","94","SpiderWeb.jpg","37","1","618"
"4","4","retrieval","old_objects","95","Snowpea.jpg","36","1","630"
"4","4","retrieval","old_objects","96","Cord_usb.jpg","37","0","583"
"4","4","retrieval","old_objects","97","Case_DVD.jpg","36","1","717"
"4","4","retrieval","new_objects","98","Chime.jpg","37","1","845"
"4","4","retrieval","old_objects","99","Shoes_DutchClogs.jpg","36","1","1349"
"4","4","retrieval","new_objects","100","PillBottle_Closed.jpg","37","1","569"
"4","4","retrieval","new_objects","101","Bottle_Plastic.jpg","37","1","570"
"4","4","retrieval","new_objects","102","Mop.jpg","37","1","619"
"4","4","retrieval","new_objects","103","Ball_Bowling.jpg","37","1","555"
"4","4","retrieval","new_objects","104","Envelope_Letter.jpg","37","1","697"
"4","4","retrieval","new_objects","105","Kazoo.jpg","37","1","583"
"4","4","retrieval","old_objects","106","Toy_FigurineEngineer.jpg","36","1","555"
"4","4","retrieval","old_objects","107","SundaeBanana.jpg","36","1","744"
"4","4","retrieval","new_objects","108","Fossil.jpg","37","1","624"
"4","4","retrieval","new_objects","109","Lacrosse_Stick.jpg","36","0","1090"
"4","4","retrieval","new_objects","110","Socks_Winter.jpg","37","1","642"
"4","4","retrieval","old_objects","111","Rock_Agate.jpg","36","1","1085"
"4","4","retrieval","new_objects","112","Spatula_1.jpg","37","1","649"
"4","4","retrieval","old_objects","113","Chair_MedicalToilet.jpg","37","0","732"
"4","4","retrieval","old_objects","114","WaterGun.jpg","36","1","1120"
"4","4","retrieval","new_objects","115","Star.jpg","37","1","748"
"4","4","retrieval","old_objects","116","Dropper.jpg","36","1","1109"
"4","4","retrieval","old_objects","117","Blackboard.jpg","36","1","569"
"4","4","retrieval","old_objects","118","Tricycle.jpg","36","1","626"
"4","4","retrieval","new_objects","119","Jar_Cookie.jpg","37","1","956"
"4","4","retrieval","old_objects","120","Ball_Squashball.jpg","36","1","713"
"4","4","retrieval","new_objects","121","Backhoe.jpg","36","0","1736"
"4","4","retrieval","new_objects","123","Bomb.jpg","37","1","1309"
"4","4","retrieval","new_objects","124","Golf_Bag.jpg","37","1","652"
"4","4","retrieval","new_objects","125","Dog_ChowChow.jpg","37","1","538"
"4","4","retrieval","old_objects","126","Lock_Door.jpg","36","1","917"
"4","4","retrieval","old_objects","127","ComputerKey_Escape.jpg","36","1","812"
"4","4","retrieval","old_objects","128","Sign_SpeedLimit25.jpg","36","1","706"
"4","4","retrieval","new_objects","129","Fish_Rockbass.jpg","0","0","2000"
"4","4","retrieval","old_objects","130","Bucket_Rusty.jpg","36","1","1189"
"4","4","retrieval","new_objects","131","Lemon.jpg","36","0","1231"
"4","4","retrieval","new_objects","132","MixingGlass.jpg","37","1","1052"
"4","4","retrieval","new_objects","133","Brace_Neck.jpg","37","1","705"
"4","4","retrieval","old_objects","134","CoinRolls.jpg","36","1","667"
"4","4","retrieval","old_objects","135","Stool_Foot.jpg","36","1","820"
"4","4","retrieval","new_objects","136","Butterfly.jpg","37","1","656"
"4","4","retrieval","old_objects","137","Corkboard.jpg","36","1","1025"
"4","4","retrieval","new_objects","138","Bagel.jpg","37","1","704"
"4","4","retrieval","old_objects","139","Paddle_Canoe.jpg","36","1","1074"
"4","4","retrieval","old_objects","140","VacuumHead.jpg","36","1","690"
"4","4","retrieval","old_objects","141","Computer_ExpansionCard.jpg","36","1","606"
"4","4","retrieval","new_objects","142","Thermometer_Room.jpg","37","1","678"
"4","4","retrieval","old_objects","143","Cracker_Saltine.jpg","36","1","903"
"4","4","retrieval","new_objects","144","Toy_ModelMolecule.jpg","36","0","1108"
"4","4","retrieval","old_objects","145","Jetski.jpg","36","1","633"
"4","4","retrieval","new_objects","146","Cactus.jpg","37","1","758"
"4","4","retrieval","old_objects","147","Dreamcatcher.jpg","36","1","689"
"4","4","retrieval","old_objects","148","Sign_Open.jpg","36","1","902"
"4","4","retrieval","new_objects","149","Skirt_Long.jpg","37","1","791"
"4","4","retrieval","new_objects","150","Cake_Wedding.jpg","37","1","975"
"4","4","retrieval","old_objects","151","Buffalo.jpg","36","1","639"
"4","4","retrieval","old_objects","152","Plate_Children.jpg","36","1","805"
"4","4","retrieval","new_objects","153","Book_Leather.jpg","36","0","1003"
"4","4","retrieval","new_objects","154","Machine_Arm.jpg","37","1","913"
"4","4","retrieval","old_objects","155","WateringCan_Antique.jpg","37","0","874"
"4","4","retrieval","old_objects","156","Spider.jpg","36","1","744"
"4","4","retrieval","new_objects","157","Quartz.jpg","37","1","738"
"4","4","retrieval","old_objects","158","DormerWindow.jpg","36","1","662"
"4","4","retrieval","new_objects","159","Spoons_MeasuringAttached.jpg","37","1","690"
"4","4","retrieval","new_objects","160","Keychain_Metal.jpg","37","1","847"
"4","4","retrieval","new_objects","161","Cable_JumpStart.jpg","37","1","1585"
"4","4","retrieval","new_objects","162","Earrings_Dangling.jpg","37","1","692"
"4","4","retrieval","new_objects","163","PylonTraffic.jpg","37","1","677"
"4","4","retrieval","old_objects","164","Sphinx.jpg","36","1","591"
"4","4","retrieval","old_objects","165","Toy_Car.jpg","36","1","529"
"4","4","retrieval","old_objects","166","Bark.jpg","36","1","580"
"4","4","retrieval","new_objects","167","Kangaroo_WithJoey.jpg","36","0","1004"
"4","4","retrieval","new_objects","168","TeethModel.jpg","37","1","623"
"4","4","retrieval","new_objects","169","Decoration_ChristmasWhite.jpg","37","1","593"
"4","4","retrieval","new_objects","170","RugRoled.jpg","37","1","637"
"4","4","retrieval","new_objects","171","Toy_Slinky.jpg","37","1","635"
"4","4","retrieval","old_objects","172","Box_Wine.jpg","36","1","676"
"4","4","retrieval","old_objects","173","Beater_Electric.jpg","36","1","814"
"4","4","retrieval","new_objects","174","DryRack_Clothes.jpg","37","1","750"
"4","4","retrieval","old_objects","175","PencilCase.jpg","36","1","567"
"4","4","retrieval","old_objects","176","Bag_Computer.jpg","36","1","572"
"4","4","retrieval","new_objects","177","SafetyPin.jpg","37","1","515"
"4","4","retrieval","old_objects","178","Caterpillar.jpg","36","1","929"
"4","4","retrieval","old_objects","179","Whip.jpg","36","1","680"
"4","4","retrieval","old_objects","180","GasBurner.jpg","36","1","670"
"4","4","retrieval","new_objects","181","Hotdog_WithBun.jpg","37","1","704"
"4","4","retrieval","old_objects","182","Nuts_Pecan.jpg","37","0","657"
"4","4","retrieval","new_objects","184","Fan_Ceiling.jpg","37","1","1105"
"4","4","retrieval","old_objects","185","ComputerKeyboard_F1.jpg","36","1","735"
"4","4","retrieval","old_objects","186","Makeup_Mascara.jpg","37","0","790"
"4","4","retrieval","new_objects","187","Clippers_Glass.jpg","37","1","629"
"4","4","retrieval","new_objects","188","Swan.jpg","37","1","683"
"4","4","retrieval","new_objects","189","Bird_Falcon.jpg","37","1","724"
"4","4","retrieval","old_objects","190","MovieSlate.jpg","36","1","640"
"4","4","retrieval","new_objects","191","Film_Single.jpg","37","1","684"
"4","4","retrieval","new_objects","192","Mask_Gas.jpg","37","1","829"
"4","4","retrieval","new_objects","193","GranolaBar.jpg","36","0","610"
"4","4","retrieval","new_objects","194","Bird_CanadianGoose.jpg","36","0","978"
"4","4","retrieval","new_objects","195","Hook_Ceiling.jpg","37","1","568"
"4","4","retrieval","old_objects","196","Hat_Cowboy.jpg","37","0","671"
"4","4","retrieval","new_objects","197","Statue_Head.jpg","37","1","594"
"4","4","retrieval","old_objects","198","Harp.jpg","36","1","604"
"4","4","retrieval","old_objects","199","Lollipop_Rainbow.jpg","36","1","563"
"4","4","retrieval","new_objects","200","Toy_DonkeyPlastic.jpg","36","0","633"
"4","4","retrieval","new_objects","201","Nutcracker.jpg","37","1","748"
"4","4","retrieval","new_objects","202","Bib.jpg","37","1","700"
"4","4","retrieval","new_objects","203","Knee.jpg","37","1","585"
"4","4","retrieval","old_objects","204","Mug_Travel.jpg","36","1","764"
"4","4","retrieval","new_objects","205","Ladder.jpg","37","1","598"
"4","4","retrieval","new_objects","206","Seashell_AlternateTellin.jpg","37","1","553"
"4","4","retrieval","old_objects","207","Bench_Park.jpg","37","0","793"
"4","4","retrieval","old_objects","208","Arch.jpg","36","1","557"
"4","4","retrieval","old_objects","209","Radish.jpg","37","0","581"
"4","4","retrieval","new_objects","210","Man.jpg","37","1","644"
"4","4","retrieval","new_objects","211","Clamp_Screw.jpg","37","1","756"
"4","4","retrieval","new_objects","212","Sword.jpg","36","0","670"
"4","4","retrieval","new_objects","213","Dice.jpg","37","1","557"
"4","4","retrieval","old_objects","214","Otoscope.jpg","37","0","1440"
"4","4","retrieval","old_objects","215","JuicerCitrus.jpg","36","1","680"
"4","4","retrieval","new_objects","216","Pyramid.jpg","37","1","782"
"4","4","retrieval","new_objects","217","Garlic_Clove.jpg","37","1","576"
"4","4","retrieval","new_objects","218","Can_OilSpout.jpg","37","1","644"
"4","4","retrieval","new_objects","219","Missile.jpg","37","1","660"
"4","4","retrieval","old_objects","220","BadgeSpecialAgent.jpg","36","1","807"
"4","4","retrieval","new_objects","221","HandMixer.jpg","36","0","808"
"4","4","retrieval","new_objects","222","Sign_SlipperyRoad.jpg","37","1","702"
"4","4","retrieval","new_objects","223","Box_Chocolate.jpg","37","1","1290"
"4","4","retrieval","new_objects","224","Spool_Thread.jpg","37","1","789"
"4","4","retrieval","new_objects","225","Key_Car.jpg","37","1","680"
"4","4","retrieval","old_objects","226","Olives.jpg","37","0","600"
"4","4","retrieval","new_objects","227","PictureFrame.jpg","37","1","682"
"4","4","retrieval","old_objects","228","Flower_Daisy.jpg","36","1","880"
"4","4","retrieval","old_objects","229","Spotlight.jpg","36","1","723"
"4","4","retrieval","old_objects","230","Microphone.jpg","36","1","758"
"4","4","retrieval","new_objects","231","Toy_Babydoll.jpg","37","1","554"
"4","4","retrieval","new_objects","232","Basket_Bread.jpg","37","1","649"
"4","4","retrieval","new_objects","233","Toy_Shapesorter.jpg","37","1","716"
"4","4","retrieval","old_objects","234","TigerWhite.jpg","36","1","808"
"4","4","retrieval","old_objects","235","Swing_Child.jpg","36","1","857"
"4","4","retrieval","new_objects","236","Leaf_Yellow.jpg","37","1","574"
"4","4","retrieval","old_objects","237","Ladle.jpg","36","1","889"
"4","4","retrieval","new_objects","238","Bucket_Ice.jpg","37","1","658"
"4","4","retrieval","old_objects","239","Toy_GasPump.jpg","36","1","659"
"4","4","retrieval","new_objects","240","Barbecue_Gas.jpg","37","1","1089"
"4","4","retrieval","old_objects","241","Parcel.jpg","36","1","809"
"4","4","retrieval","new_objects","242","PaintSprayer.jpg","37","1","622"
"4","4","retrieval","new_objects","243","Bucket_Champagne.jpg","37","1","730"
"4","4","retrieval","new_objects","245","Sheep.jpg","37","1","763"
"4","4","retrieval","new_objects","246","Gameboy.jpg","37","1","614"
"4","4","retrieval","new_objects","247","Coatrack.jpg","37","1","602"
"4","4","retrieval","new_objects","248","ThreeHolePunch.jpg","37","1","527"
"4","4","retrieval","new_objects","249","Soap.jpg","37","1","592"
"4","4","retrieval","new_objects","250","Tray_Medical.jpg","37","1","555"
"4","4","retrieval","new_objects","251","MemoPaperSpike.jpg","37","1","519"
"4","4","retrieval","old_objects","252","Awning.jpg","37","0","490"
"4","4","retrieval","new_objects","253","Sink_Bathroom.jpg","37","1","611"
"4","4","retrieval","old_objects","254","DeepFryer.jpg","37","0","601"
"4","4","retrieval","old_objects","255","Gauge.jpg","36","1","804"
"4","4","retrieval","old_objects","256","Bag_PaperWithFlour.jpg","36","1","571"
"4","4","retrieval","old_objects","257","LicensePlate.jpg","37","0","656"
"4","4","retrieval","old_objects","258","Tire_Hollow.jpg","36","1","629"
"4","4","retrieval","old_objects","259","Bandage_Adhesive.jpg","37","0","602"
"4","4","retrieval","old_objects","260","Lamp_Table.jpg","37","0","719"
"4","4","retrieval","new_objects","261","Bowl_Pasta.jpg","37","1","593"
"4","4","retrieval","new_objects","262","Lens_Camera.jpg","37","1","665"
"4","4","retrieval","old_objects","263","Rake_Long.jpg","37","0","554"
"4","4","retrieval","new_objects","264","DogHouse.jpg","37","1","658"
"4","4","retrieval","new_objects","265","Bolt.jpg","36","0","559"
"4","4","retrieval","new_objects","266","Lighter_Yellow.jpg","37","1","596"
"4","4","retrieval","new_objects","267","Garlic_Whole.jpg","37","1","497"
"4","4","retrieval","old_objects","268","Squid_Orange.jpg","36","1","714"
"4","4","retrieval","new_objects","269","Elephant.jpg","37","1","608"
"4","4","retrieval","old_objects","270","Bucket_Halloween.jpg","36","1","829"
"4","4","retrieval","new_objects","271","Pajamas.jpg","37","1","704"
"4","4","retrieval","old_objects","272","Table_Magazine.jpg","36","1","685"
"4","4","retrieval","new_objects","273","NailClipper.jpg","37","1","861"
"4","4","retrieval","new_objects","274","Blueprints.jpg","37","1","1066"
"4","4","retrieval","new_objects","275","Flowers_DryBouquet.jpg","37","1","647"
"4","4","retrieval","old_objects","276","TubeRing.jpg","36","1","690"
"4","4","retrieval","old_objects","277","ReindeerHeadband.jpg","36","1","650"
"4","4","retrieval","new_objects","278","Kettle.jpg","37","1","546"
"4","4","retrieval","new_objects","279","Bowl_Glass.jpg","36","0","875"
"4","4","retrieval","new_objects","280","HoseNozzle.jpg","37","1","562"
"4","4","retrieval","old_objects","281","Keyhole.jpg","36","1","941"
"4","4","retrieval","new_objects","282","Jug_GallonWhite.jpg","37","1","603"
"4","4","retrieval","old_objects","283","Gum_Pack.jpg","36","1","691"
"4","4","retrieval","old_objects","284","OperaGlasses.jpg","37","0","759"
"4","4","retrieval","new_objects","285","Glove_Baseball.jpg","37","1","670"
"4","4","retrieval","new_objects","286","Stool_Metal.jpg","37","1","1026"
"4","4","retrieval","old_objects","287","Bowl_Chopsticks.jpg","36","1","718"
"4","4","retrieval","old_objects","288","Yarmulke.jpg","36","1","763"
"4","4","retrieval","old_objects","289","SoapBottle.jpg","37","0","555"
"4","4","retrieval","new_objects","290","Hat_Explorer.jpg","37","1","637"
"4","4","retrieval","old_objects","291","Handbag.jpg","37","0","869"
"4","4","retrieval","old_objects","292","Bag_Gift.jpg","36","1","646"
"4","4","retrieval","old_objects","293","White_Screen.jpg","37","0","1741"
"4","4","retrieval","old_objects","294","Barrel_Wine.jpg","36","1","779"
"4","4","retrieval","old_objects","295","HorseshoeCrab.jpg","36","1","888"
"4","4","retrieval","new_objects","296","Mask_Buddhist.jpg","37","1","629"
"4","4","retrieval","old_objects","297","Mitt_Oven.jpg","37","0","735"
"4","4","retrieval","old_objects","298","SewingPin_Cushion.jpg","36","1","676"
"4","4","retrieval","old_objects","299","Heater_Outdoor.jpg","36","1","649"
"4","4","retrieval","old_objects","300","Noisemaker_Streamers.jpg","36","1","665"
"4","4","retrieval","old_objects","301","Heater_ElectricUpright.jpg","36","1","917"
"4","4","retrieval","old_objects","302","Broccoli.jpg","36","1","959"
"4","4","retrieval","new_objects","303","Camera_Security.jpg","37","1","735"
"4","4","retrieval","old_objects","304","Drum_Conga.jpg","37","0","741"
"4","4","retrieval","new_objects","306","Carrot.jpg","37","1","1226"
"4","4","retrieval","old_objects","307","Flower_Basket.jpg","36","1","1360"
"4","4","retrieval","new_objects","308","Jar_Honey.jpg","37","1","568"
"4","4","retrieval","old_objects","309","Bagpipes.jpg","36","1","658"
"4","4","retrieval","new_objects","310","Chicken_Raw.jpg","37","1","650"
"4","4","retrieval","old_objects","311","Folder_Plastic.jpg","36","1","980"
"4","4","retrieval","old_objects","312","Cologne.jpg","37","0","612"
"4","4","retrieval","new_objects","313","Bird_Tern.jpg","37","1","722"
"4","4","retrieval","new_objects","314","KeyHook_Empty.jpg","37","1","787"
"4","4","retrieval","new_objects","315","JoustingSpear.jpg","37","1","1258"
"4","4","retrieval","new_objects","316","SpinalCord.jpg","37","1","879"
"4","4","retrieval","new_objects","317","PaperTowel_Brown.jpg","37","1","670"
"4","4","retrieval","old_objects","318","Vase_EarthToned.jpg","37","0","1004"
"4","4","retrieval","old_objects","319","Lighter_Black.jpg","37","0","922"
"4","4","retrieval","old_objects","320","Artichoke.jpg","37","0","757"
"4","4","retrieval","new_objects","321","PlantPotted.jpg","37","1","615"
"4","4","retrieval","old_objects","322","Foam_Accoustic.jpg","36","1","594"
"4","4","retrieval","old_objects","323","Tray_Muffin.jpg","36","1","567"
"4","4","retrieval","new_objects","324","Lollipop_Grape.jpg","37","1","670"
"4","4","retrieval","new_objects","325","SmokeDetector.jpg","37","1","687"
"4","4","retrieval","old_objects","326","Shirt_SportsJersey.jpg","37","0","593"
"4","4","retrieval","old_objects","327","Box_WoodCrate.jpg","36","1","629"
"4","4","retrieval","old_objects","328","Toy_Ladybug.jpg","36","1","711"
"4","4","retrieval","new_objects","329","Toy_BlocksMultiShape.jpg","37","1","550"
"4","4","retrieval","old_objects","330","Boat_Dinghy.jpg","36","1","579"
"4","4","retrieval","new_objects","331","Fireplace_Outdoor.jpg","37","1","594"
"4","4","retrieval","new_objects","332","FlipFlop_SingleRed.jpg","37","1","491"
"4","4","retrieval","new_objects","333","Bus_School.jpg","37","1","552"
"4","4","retrieval","old_objects","334","Origami_Bird.jpg","37","0","595"
"4","4","retrieval","old_objects","335","Almond.jpg","36","1","668"
"4","4","retrieval","old_objects","336","Stroboscope.jpg","37","0","512"
"4","4","retrieval","old_objects","337","Sign_TrafficArrow.jpg","37","0","641"
"4","4","retrieval","old_objects","338","TowelRack_Brown.jpg","36","1","633"
"4","4","retrieval","old_objects","339","Chicken_Dinner.jpg","36","1","560"
"4","4","retrieval","old_objects","340","Lion.jpg","36","1","532"
"4","4","retrieval","new_objects","341","NailFiles.jpg","37","1","536"
"4","4","retrieval","old_objects","342","Grill_Gas.jpg","36","1","587"
"4","4","retrieval","new_objects","343","BicycleBrake.jpg","37","1","482"
"4","4","retrieval","new_objects","344","SetSquare.jpg","37","1","532"
"4","4","retrieval","old_objects","345","Toy_BearBluePlushie.jpg","37","0","416"
"4","4","retrieval","old_objects","346","Tribunal_Wooden.jpg","37","0","537"
"4","4","retrieval","old_objects","347","Window.jpg","36","1","625"
"4","4","retrieval","old_objects","348","Screw.jpg","37","0","677"
"4","4","retrieval","old_objects","349","Chair_Car.jpg","37","0","967"
"4","4","retrieval","old_objects","350","JuiceBox.jpg","36","1","887"
"4","4","retrieval","new_objects","351","ShearsGarden.jpg","37","1","630"
"4","4","retrieval","new_objects","352","DrainPlug.jpg","37","1","1011"
"4","4","retrieval","new_objects","353","Lens_ColourFilter.jpg","37","1","729"
"4","4","retrieval","new_objects","354","Gun_Bazooka.jpg","37","1","650"
"4","4","retrieval","old_objects","355","Mixer_Hand.jpg","36","1","639"
"4","4","demographics_block","gender","1","Mixer_Hand.jpg","male","1","8482"
"4","4","demographics_block","age","1","Mixer_Hand.jpg","35","1","8482"
"4","4","demographics_block","education","1","Mixer_Hand.jpg","16","1","8482"
"4","4","demographics_block","left_right_handed","2","Mixer_Hand.jpg","Right","1","4828"
"4","4","demographics_block","raceoption1","2","Mixer_Hand.jpg","0","1","4828"
"4","4","demographics_block","raceoption2","2","Mixer_Hand.jpg","","1","4828"
"4","4","demographics_block","raceoption3","2","Mixer_Hand.jpg","","1","4828"
"4","4","demographics_block","raceoption4","2","Mixer_Hand.jpg","","1","4828"
"4","4","demographics_block","raceoption5","2","Mixer_Hand.jpg","","1","4828"
"4","4","demographics_block","raceoption6","2","Mixer_Hand.jpg","","1","4828"
"4","4","demographics_block","raceoption7","2","Mixer_Hand.jpg","","1","4828"
"4","4","demographics_block","raceoption8","2","Mixer_Hand.jpg","","1","4828"
"4","4","demographics_block","raceoption9","2","Mixer_Hand.jpg","","1","4828"
"4","4","demographics_block","raceother","2","Mixer_Hand.jpg","","1","4828"
"4","4","demographics_block","raceother","2","Mixer_Hand.jpg","","1","4828"
"4","4","demographics_block","english_language","2","Mixer_Hand.jpg","Yes","1","4828"
"4","4","demographics_block","english_languageother","2","Mixer_Hand.jpg","","1","4828"
"4","4","demographics_block","eyesight","3","Mixer_Hand.jpg","Yes","1","3693"
"4","4","demographics_block","colorblind","3","Mixer_Hand.jpg","No","1","3693"
"4","4","worker_id_block","worker_id_textbox","1","Mixer_Hand.jpg","ATGF05HW5Q63J","1","3099"
"5","5","encoding","encoding","1","Screw.jpg","37","0","1062"
"5","5","encoding","encoding","2","Ladle.jpg","37","0","801"
"5","5","encoding","encoding","3","Light_Traffic.jpg","36","0","1390"
"5","5","encoding","encoding","4","SledgeHammer.jpg","36","0","820"
"5","5","encoding","encoding","5","WaterGun.jpg","37","0","880"
"5","5","encoding","encoding","6","TigerWhite.jpg","36","0","549"
"5","5","encoding","encoding","7","Helmet_Football.jpg","36","0","775"
"5","5","encoding","encoding","8","Dresser.jpg","36","0","507"
"5","5","encoding","encoding","9","Chair_MedicalToilet.jpg","36","0","859"
"5","5","encoding","encoding","10","WateringCan_Antique.jpg","37","0","460"
"5","5","encoding","encoding","11","Shoes_DutchClogs.jpg","37","0","524"
"5","5","encoding","encoding","12","Flower_Crane.jpg","37","0","893"
"5","5","encoding","encoding","13","Tricycle.jpg","36","0","673"
"5","5","encoding","encoding","14","Jar_Empty.jpg","37","0","638"
"5","5","encoding","encoding","15","Spider.jpg","37","0","585"
"5","5","encoding","encoding","16","Grill_Gas.jpg","36","0","613"
"5","5","encoding","encoding","17","Ruler_Wooden.jpg","37","0","589"
"5","5","encoding","encoding","18","Barrel_Wine.jpg","36","0","812"
"5","5","encoding","encoding","19","DeepFryer.jpg","36","0","948"
"5","5","encoding","encoding","20","Steam_Cleaner.jpg","37","0","786"
"5","5","encoding","encoding","21","Chair_Car.jpg","36","0","595"
"5","5","encoding","encoding","22","Makeup_Mascara.jpg","37","0","663"
"5","5","encoding","encoding","23","Toy_FigurineEngineer.jpg","36","0","673"
"5","5","encoding","encoding","24","TubeRing.jpg","36","0","1066"
"5","5","encoding","encoding","25","JuicerCitrus.jpg","37","0","1206"
"5","5","encoding","encoding","26","IceCream_Chocolate.jpg","37","0","840"
"5","5","encoding","encoding","27","Rock_Agate.jpg","37","0","858"
"5","5","encoding","encoding","28","Mitt_Oven.jpg","37","0","546"
"5","5","encoding","encoding","29","CameoPortrait.jpg","37","0","718"
"5","5","encoding","encoding","30","Gum_Pack.jpg","37","0","836"
"5","5","encoding","encoding","31","Rake_Long.jpg","36","0","590"
"5","5","encoding","encoding","32","Hockey_Puck.jpg","37","0","963"
"5","5","encoding","encoding","33","Snowpea.jpg","37","0","571"
"5","5","encoding","encoding","34","MovieSlate.jpg","36","0","1137"
"5","5","encoding","encoding","35","Paddle_Canoe.jpg","36","0","526"
"5","5","encoding","encoding","36","Hotdog_Weiner.jpg","37","0","755"
"5","5","encoding","encoding","37","Flower_Daisy.jpg","37","0","602"
"5","5","encoding","encoding","38","Lion.jpg","36","0","595"
"5","5","encoding","encoding","39","ComputerKeyboard_F1.jpg","37","0","732"
"5","5","encoding","encoding","40","PillBottle_Prescription.jpg","37","0","606"
"5","5","encoding","encoding","41","LifeJacket_Orangejpg.jpg","36","0","898"
"5","5","encoding","encoding","42","Stroboscope.jpg","36","0","841"
"5","5","encoding","encoding","43","Buffalo.jpg","36","0","532"
"5","5","encoding","encoding","44","Dropper.jpg","37","0","579"
"5","5","encoding","encoding","45","Bench_Park.jpg","36","0","596"
"5","5","encoding","encoding","46","Arch.jpg","36","0","692"
"5","5","encoding","encoding","47","Toy_Ladybug.jpg","37","0","808"
"5","5","encoding","encoding","48","Tribunal_Wooden.jpg","36","0","894"
"5","5","encoding","encoding","49","Cracker_Saltine.jpg","37","0","624"
"5","5","encoding","encoding","50","Bag_Gift.jpg","36","0","1416"
"5","5","encoding","encoding","51","Artichoke.jpg","37","0","752"
"5","5","encoding","encoding","52","Bird_Toucan.jpg","36","0","888"
"5","5","encoding","encoding","53","Heater_ElectricUpright.jpg","36","0","630"
"5","5","encoding","encoding","54","SundaeBanana.jpg","37","0","780"
"5","5","encoding","encoding","55","Bag_Computer.jpg","36","0","694"
"5","5","encoding","encoding","56","VacuumHead.jpg","37","0","864"
"5","5","encoding","encoding","57","SoapBottle.jpg","37","0","649"
"5","5","encoding","encoding","58","Toy_Train.jpg","37","0","670"
"5","5","encoding","encoding","59","Speaker_Single.jpg","36","0","808"
"5","5","encoding","encoding","60","Harp.jpg","36","0","626"
"5","5","encoding","encoding","62","Spotlight.jpg","36","0","1511"
"5","5","encoding","encoding","63","Awning.jpg","36","0","580"
"5","5","encoding","encoding","64","Sign_Open.jpg","36","0","853"
"5","5","encoding","encoding","65","Tire_Hollow.jpg","36","0","505"
"5","5","encoding","encoding","66","ComputerKey_Escape.jpg","37","0","600"
"5","5","encoding","encoding","67","Beater_Electric.jpg","36","0","735"
"5","5","encoding","encoding","68","Window.jpg","36","0","638"
"5","5","encoding","encoding","69","Otoscope.jpg","37","0","666"
"5","5","encoding","encoding","70","Dreamcatcher.jpg","37","0","716"
"5","5","encoding","encoding","71","Glass_Ball.jpg","37","0","726"
"5","5","encoding","encoding","72","Cord_usb.jpg","37","0","777"
"5","5","encoding","encoding","73","Computer_ExpansionCard.jpg","37","0","535"
"5","5","encoding","encoding","74","Toy_GasPump.jpg","36","0","616"
"5","5","encoding","encoding","75","Noisemaker_Streamers.jpg","37","0","628"
"5","5","encoding","encoding","76","DogLeash.jpg","37","0","578"
"5","5","encoding","encoding","77","BadgeSpecialAgent.jpg","37","0","656"
"5","5","encoding","encoding","78","White_Screen.jpg","0","0","2000"
"5","5","encoding","encoding","79","Corkboard.jpg","36","0","787"
"5","5","encoding","encoding","80","Bugle.jpg","36","0","753"
"5","5","encoding","encoding","81","Bread_Pita.jpg","37","0","717"
"5","5","encoding","encoding","82","Keyhole.jpg","37","0","1077"
"5","5","encoding","encoding","83","Hubcap.jpg","36","0","1078"
"5","5","encoding","encoding","84","Jetski.jpg","36","0","605"
"5","5","encoding","encoding","85","Mug_Travel.jpg","37","0","848"
"5","5","encoding","encoding","86","Hat_Beanie.jpg","37","0","575"
"5","5","encoding","encoding","87","Foam_Accoustic.jpg","37","0","558"
"5","5","encoding","encoding","88","JuiceBox.jpg","37","0","510"
"5","5","encoding","encoding","89","Hat_Cowboy.jpg","37","0","1099"
"5","5","encoding","encoding","90","Shoes_Mould.jpg","37","0","656"
"5","5","encoding","encoding","91","Table_Magazine.jpg","36","0","776"
"5","5","encoding","encoding","92","CoinRolls.jpg","37","0","685"
"5","5","encoding","encoding","93","Mixer_Hand.jpg","36","0","710"
"5","5","encoding","encoding","94","Box_Wine.jpg","37","0","1058"
"5","5","encoding","encoding","95","Sign_Caution.jpg","36","0","740"
"5","5","encoding","encoding","96","Sign_SpeedLimit25.jpg","36","0","792"
"5","5","encoding","encoding","97","Stool_Foot.jpg","36","0","552"
"5","5","encoding","encoding","98","Microphone.jpg","37","0","962"
"5","5","encoding","encoding","99","Sphinx.jpg","36","0","660"
"5","5","encoding","encoding","100","Vase_EarthToned.jpg","36","0","765"
"5","5","encoding","encoding","101","Bucket_Halloween.jpg","37","0","760"
"5","5","encoding","encoding","102","Spoon_Wooden.jpg","37","0","538"
"5","5","encoding","encoding","103","Blackboard.jpg","36","0","669"
"5","5","encoding","encoding","104","Ball_Squashball.jpg","36","0","797"
"5","5","encoding","encoding","105","Bowl_Chopsticks.jpg","37","0","729"
"5","5","encoding","encoding","106","Toy_BearBluePlushie.jpg","37","0","532"
"5","5","encoding","encoding","107","HairClipper.jpg","37","0","511"
"5","5","encoding","encoding","108","Headphones.jpg","37","0","560"
"5","5","encoding","encoding","109","GasBurner.jpg","37","0","598"
"5","5","encoding","encoding","110","Paddle_Beach.jpg","37","0","770"
"5","5","encoding","encoding","111","Glass_Bowl.jpg","37","0","809"
"5","5","encoding","encoding","112","Desk_School.jpg","36","0","514"
"5","5","encoding","encoding","113","Pot_Cooking.jpg","36","0","860"
"5","5","encoding","encoding","114","Lighter_Black.jpg","37","0","748"
"5","5","encoding","encoding","115","Weights_Dumbells.jpg","36","0","905"
"5","5","encoding","encoding","116","Whip.jpg","37","0","788"
"5","5","encoding","encoding","117","Costume_Wizard.jpg","37","0","844"
"5","5","encoding","encoding","118","Pen_Calligraphy.jpg","37","0","596"
"5","5","encoding","encoding","119","Lock_Door.jpg","37","0","1270"
"5","5","encoding","encoding","120","Toy_TableSet.jpg","36","0","839"
"5","5","encoding","encoding","121","Bagpipes.jpg","36","0","926"
"5","5","encoding","encoding","123","Toy_Firetruck.jpg","37","0","728"
"5","5","encoding","encoding","124","Cologne.jpg","37","0","581"
"5","5","encoding","encoding","125","Heater_Outdoor.jpg","36","0","825"
"5","5","encoding","encoding","126","Lamp_Table.jpg","36","0","718"
"5","5","encoding","encoding","127","Radish.jpg","37","0","536"
"5","5","encoding","encoding","128","Drum_Conga.jpg","36","0","760"
"5","5","encoding","encoding","129","Pickaxe.jpg","37","0","659"
"5","5","encoding","encoding","130","Parcel.jpg","37","0","514"
"5","5","encoding","encoding","131","Boots_KneeHigh.jpg","36","0","574"
"5","5","encoding","encoding","132","Bench_Wooden.jpg","36","0","531"
"5","5","encoding","encoding","133","Cake_Cheese.jpg","37","0","610"
"5","5","encoding","encoding","134","HorseshoeCrab.jpg","37","0","1014"
"5","5","encoding","encoding","135","Bucket_Rusty.jpg","36","0","1042"
"5","5","encoding","encoding","136","Lollipop_Rainbow.jpg","37","0","634"
"5","5","encoding","encoding","137","Sign_TrafficArrow.jpg","37","0","854"
"5","5","encoding","encoding","138","House_Doll.jpg","36","0","799"
"5","5","encoding","encoding","139","Toy_Car.jpg","37","0","697"
"5","5","encoding","encoding","140","Staircase_Curving.jpg","36","0","687"
"5","5","encoding","encoding","141","Camel_Dromedary.jpg","36","0","617"
"5","5","encoding","encoding","142","OperaGlasses.jpg","37","0","918"
"5","5","encoding","encoding","143","LitterScoop.jpg","37","0","613"
"5","5","encoding","encoding","144","Flower_Basket.jpg","36","0","696"
"5","5","encoding","encoding","145","Cast.jpg","36","0","966"
"5","5","encoding","encoding","146","Dress_Blue.jpg","37","0","980"
"5","5","encoding","encoding","147","Bandage_Adhesive.jpg","37","0","523"
"5","5","encoding","encoding","148","Plate_Children.jpg","37","0","830"
"5","5","encoding","encoding","149","Squid_Orange.jpg","36","0","1185"
"5","5","encoding","encoding","150","Handbag.jpg","36","0","790"
"5","5","encoding","encoding","151","Caterpillar.jpg","37","0","658"
"5","5","encoding","encoding","152","Case_DVD.jpg","37","0","663"
"5","5","encoding","encoding","153","Bolt_WithNut.jpg","37","0","468"
"5","5","encoding","encoding","154","Bag_PaperWithFlour.jpg","36","0","1003"
"5","5","encoding","encoding","155","Stool_Camping.jpg","36","0","699"
"5","5","encoding","encoding","156","Bark.jpg","37","0","949"
"5","5","encoding","encoding","157","Yarmulke.jpg","37","0","577"
"5","5","encoding","encoding","158","SewingPin_Cushion.jpg","37","0","625"
"5","5","encoding","encoding","159","Origami_Bird.jpg","37","0","643"
"5","5","encoding","encoding","160","LicensePlate.jpg","37","0","972"
"5","5","encoding","encoding","161","Nuts_Pecan.jpg","37","0","763"
"5","5","encoding","encoding","162","Broccoli.jpg","37","0","569"
"5","5","encoding","encoding","163","Swing_Child.jpg","36","0","576"
"5","5","encoding","encoding","164","Boat_Dinghy.jpg","36","0","692"
"5","5","encoding","encoding","165","Heater_Infrared.jpg","36","0","926"
"5","5","encoding","encoding","166","Chicken_Dinner.jpg","37","0","870"
"5","5","encoding","encoding","167","Almond.jpg","37","0","570"
"5","5","encoding","encoding","168","Folder_Plastic.jpg","37","0","725"
"5","5","encoding","encoding","169","PencilCase.jpg","37","0","605"
"5","5","encoding","encoding","170","Gauge.jpg","37","0","587"
"5","5","encoding","encoding","171","ReindeerHeadband.jpg","37","0","615"
"5","5","encoding","encoding","172","Box_WoodCrate.jpg","36","0","637"
"5","5","encoding","encoding","173","Tray_Muffin.jpg","37","0","1086"
"5","5","encoding","encoding","174","TowelRack_Brown.jpg","36","0","857"
"5","5","encoding","encoding","175","DormerWindow.jpg","36","0","691"
"5","5","encoding","encoding","176","Shirt_SportsJersey.jpg","37","0","1016"
"5","5","encoding","encoding","177","Olives.jpg","37","0","672"
"5","5","retrieval","old_objects","1","Steam_Cleaner.jpg","36","1","1693"
"5","5","retrieval","new_objects","2","Toy_ElephantPlastic.jpg","37","1","958"
"5","5","retrieval","old_objects","3","Shoes_DutchClogs.jpg","36","1","986"
"5","5","retrieval","new_objects","4","Leaf_Yellow.jpg","37","1","879"
"5","5","retrieval","new_objects","5","Sheep.jpg","37","1","702"
"5","5","retrieval","new_objects","6","SetSquare.jpg","37","1","711"
"5","5","retrieval","old_objects","7","Lock_Door.jpg","36","1","792"
"5","5","retrieval","old_objects","8","Pickaxe.jpg","36","1","669"
"5","5","retrieval","old_objects","9","Paddle_Canoe.jpg","36","1","622"
"5","5","retrieval","new_objects","10","Can_OilSpout.jpg","36","0","800"
"5","5","retrieval","old_objects","11","Rock_Agate.jpg","36","1","670"
"5","5","retrieval","old_objects","12","Toy_Firetruck.jpg","36","1","594"
"5","5","retrieval","new_objects","13","Lemon.jpg","37","1","797"
"5","5","retrieval","old_objects","14","Paddle_Beach.jpg","36","1","785"
"5","5","retrieval","new_objects","15","ToothBrush.jpg","37","1","689"
"5","5","retrieval","new_objects","16","PaperTowel_Brown.jpg","37","1","565"
"5","5","retrieval","old_objects","17","CoinRolls.jpg","36","1","725"
"5","5","retrieval","new_objects","18","ToothPaste.jpg","37","1","841"
"5","5","retrieval","old_objects","19","PencilCase.jpg","36","1","721"
"5","5","retrieval","new_objects","20","Fossil.jpg","37","1","913"
"5","5","retrieval","new_objects","21","Spool_Thread.jpg","37","1","1413"
"5","5","retrieval","old_objects","22","Toy_Ladybug.jpg","36","1","631"
"5","5","retrieval","new_objects","23","Lens_Camera.jpg","36","0","898"
"5","5","retrieval","old_objects","24","MovieSlate.jpg","36","1","676"
"5","5","retrieval","new_objects","25","Jug_GallonWhite.jpg","37","1","606"
"5","5","retrieval","new_objects","26","Keychain_Metal.jpg","37","1","669"
"5","5","retrieval","old_objects","27","Jetski.jpg","37","0","1321"
"5","5","retrieval","old_objects","28","Cologne.jpg","36","1","1332"
"5","5","retrieval","new_objects","29","Coral.jpg","37","1","814"
"5","5","retrieval","old_objects","30","Grill_Gas.jpg","36","1","762"
"5","5","retrieval","new_objects","31","Car_Vintage.jpg","36","0","910"
"5","5","retrieval","new_objects","32","MilkPitcher.jpg","37","1","653"
"5","5","retrieval","old_objects","33","Staircase_Curving.jpg","36","1","687"
"5","5","retrieval","new_objects","34","Pyramid.jpg","37","1","600"
"5","5","retrieval","new_objects","35","Jar_Honey.jpg","37","1","1083"
"5","5","retrieval","new_objects","36","Hotdog_WithBun.jpg","37","1","1614"
"5","5","retrieval","old_objects","37","Microphone.jpg","36","1","843"
"5","5","retrieval","new_objects","38","Chicken_Raw.jpg","36","0","940"
"5","5","retrieval","old_objects","39","Blackboard.jpg","36","1","621"
"5","5","retrieval","old_objects","40","House_Doll.jpg","36","1","545"
"5","5","retrieval","old_objects","41","Stool_Foot.jpg","36","1","1087"
"5","5","retrieval","new_objects","42","Box_FirstAidOpen.jpg","37","1","607"
"5","5","retrieval","old_objects","43","Sign_Caution.jpg","36","1","926"
"5","5","retrieval","old_objects","44","Drum_Conga.jpg","36","1","631"
"5","5","retrieval","old_objects","45","Radish.jpg","36","1","503"
"5","5","retrieval","old_objects","46","CameoPortrait.jpg","36","1","719"
"5","5","retrieval","new_objects","47","Cable_JumpStart.jpg","37","1","775"
"5","5","retrieval","new_objects","48","Swan.jpg","37","1","999"
"5","5","retrieval","old_objects","49","Bagpipes.jpg","37","0","1819"
"5","5","retrieval","old_objects","50","Bucket_Halloween.jpg","36","1","732"
"5","5","retrieval","new_objects","51","DogHouse.jpg","37","1","695"
"5","5","retrieval","new_objects","52","ThreeHolePunch.jpg","37","1","1552"
"5","5","retrieval","new_objects","53","Spatula_1.jpg","37","1","811"
"5","5","retrieval","new_objects","54","Quartz.jpg","37","1","872"
"5","5","retrieval","old_objects","55","Almond.jpg","36","1","686"
"5","5","retrieval","new_objects","56","Book_Leather.jpg","37","1","904"
"5","5","retrieval","old_objects","57","Chair_MedicalToilet.jpg","36","1","810"
"5","5","retrieval","new_objects","58","Star.jpg","37","1","641"
"5","5","retrieval","old_objects","59","TigerWhite.jpg","36","1","647"
"5","5","retrieval","old_objects","60","Squid_Orange.jpg","36","1","646"
"5","5","retrieval","new_objects","62","Lollipop_Grape.jpg","37","1","1317"
"5","5","retrieval","old_objects","63","Flower_Daisy.jpg","36","1","1158"
"5","5","retrieval","new_objects","64","Camera_Security.jpg","37","1","786"
"5","5","retrieval","new_objects","65","Bottle_Blue.jpg","36","0","1046"
"5","5","retrieval","old_objects","66","Toy_Car.jpg","36","1","522"
"5","5","retrieval","old_objects","67","Spoon_Wooden.jpg","36","1","1094"
"5","5","retrieval","new_objects","68","Carrot.jpg","37","1","737"
"5","5","retrieval","new_objects","69","Barrel_Upright.jpg","36","0","790"
"5","5","retrieval","new_objects","70","Castle_Sand.jpg","37","1","816"
"5","5","retrieval","new_objects","71","MemoPaperSpike.jpg","37","1","562"
"5","5","retrieval","old_objects","72","SoapBottle.jpg","36","1","608"
"5","5","retrieval","new_objects","73","Shoes_Pumps.jpg","37","1","709"
"5","5","retrieval","new_objects","74","HoseNozzle.jpg","37","1","629"
"5","5","retrieval","old_objects","75","Makeup_Mascara.jpg","36","1","677"
"5","5","retrieval","new_objects","76","Pajamas.jpg","37","1","746"
"5","5","retrieval","old_objects","77","Olives.jpg","36","1","647"
"5","5","retrieval","old_objects","78","Headphones.jpg","36","1","1008"
"5","5","retrieval","old_objects","79","WateringCan_Antique.jpg","36","1","685"
"5","5","retrieval","new_objects","80","WaterHeater.jpg","36","0","723"
"5","5","retrieval","old_objects","81","Shoes_Mould.jpg","36","1","550"
"5","5","retrieval","old_objects","82","Sign_Open.jpg","36","1","860"
"5","5","retrieval","new_objects","83","Sign_SlipperyRoad.jpg","37","1","598"
"5","5","retrieval","old_objects","84","Toy_TableSet.jpg","36","1","615"
"5","5","retrieval","old_objects","85","TubeRing.jpg","36","1","603"
"5","5","retrieval","old_objects","86","Tricycle.jpg","36","1","590"
"5","5","retrieval","old_objects","87","Helmet_Football.jpg","36","1","508"
"5","5","retrieval","old_objects","88","Table_Magazine.jpg","36","1","502"
"5","5","retrieval","old_objects","89","Pen_Calligraphy.jpg","36","1","661"
"5","5","retrieval","new_objects","90","Fan_Ceiling.jpg","37","1","836"
"5","5","retrieval","new_objects","91","Missile.jpg","37","1","870"
"5","5","retrieval","new_objects","92","KeyHook_Empty.jpg","37","1","1064"
"5","5","retrieval","new_objects","93","Lighter_Yellow.jpg","36","0","794"
"5","5","retrieval","old_objects","94","Sign_SpeedLimit25.jpg","36","1","679"
"5","5","retrieval","new_objects","95","Decoration_ChristmasWhite.jpg","36","0","855"
"5","5","retrieval","new_objects","96","Statue_Head.jpg","37","1","768"
"5","5","retrieval","new_objects","97","Golf_Bag.jpg","36","0","1250"
"5","5","retrieval","new_objects","98","Spoons_MeasuringAttached.jpg","36","0","646"
"5","5","retrieval","old_objects","99","Tray_Muffin.jpg","36","1","575"
"5","5","retrieval","old_objects","100","Tribunal_Wooden.jpg","36","1","690"
"5","5","retrieval","new_objects","101","PylonTraffic.jpg","37","1","602"
"5","5","retrieval","old_objects","102","Boat_Dinghy.jpg","36","1","994"
"5","5","retrieval","new_objects","103","Chime.jpg","37","1","658"
"5","5","retrieval","old_objects","104","Costume_Wizard.jpg","36","1","719"
"5","5","retrieval","old_objects","105","Lion.jpg","36","1","992"
"5","5","retrieval","old_objects","106","Vase_EarthToned.jpg","36","1","1556"
"5","5","retrieval","old_objects","107","BadgeSpecialAgent.jpg","36","1","540"
"5","5","retrieval","old_objects","108","Box_Wine.jpg","36","1","530"
"5","5","retrieval","old_objects","109","White_Screen.jpg","36","1","1907"
"5","5","retrieval","old_objects","110","JuicerCitrus.jpg","37","0","639"
"5","5","retrieval","old_objects","111","Swing_Child.jpg","36","1","897"
"5","5","retrieval","old_objects","112","Cake_Cheese.jpg","36","1","635"
"5","5","retrieval","new_objects","113","Cake_Wedding.jpg","37","1","692"
"5","5","retrieval","new_objects","114","Toy_ModelMolecule.jpg","36","0","1012"
"5","5","retrieval","new_objects","115","Basket_Plastic.jpg","37","1","633"
"5","5","retrieval","new_objects","116","BicycleBrake.jpg","37","1","1046"
"5","5","retrieval","old_objects","117","Stool_Camping.jpg","36","1","598"
"5","5","retrieval","new_objects","118","Canister_Tea.jpg","37","1","752"
"5","5","retrieval","new_objects","119","SafetyPin.jpg","36","0","540"
"5","5","retrieval","old_objects","120","OperaGlasses.jpg","36","1","753"
"5","5","retrieval","old_objects","121","Sign_TrafficArrow.jpg","36","1","554"
"5","5","retrieval","new_objects","123","SmokeDetector.jpg","37","1","791"
"5","5","retrieval","new_objects","124","WashRack.jpg","37","1","832"
"5","5","retrieval","old_objects","125","Lamp_Table.jpg","36","1","778"
"5","5","retrieval","new_objects","126","Bottle_Plastic.jpg","37","1","648"
"5","5","retrieval","old_objects","127","Plate_Children.jpg","36","1","887"
"5","5","retrieval","old_objects","128","Pot_Cooking.jpg","36","1","542"
"5","5","retrieval","new_objects","129","Kangaroo_WithJoey.jpg","37","1","983"
"5","5","retrieval","old_objects","130","Bag_Gift.jpg","36","1","616"
"5","5","retrieval","old_objects","131","Dropper.jpg","36","1","599"
"5","5","retrieval","new_objects","132","MixingGlass.jpg","37","1","766"
"5","5","retrieval","new_objects","133","Bird_Falcon.jpg","37","1","700"
"5","5","retrieval","old_objects","134","ComputerKey_Escape.jpg","36","1","583"
"5","5","retrieval","old_objects","135","Mug_Travel.jpg","36","1","535"
"5","5","retrieval","new_objects","136","Kazoo.jpg","36","0","667"
"5","5","retrieval","old_objects","137","Chicken_Dinner.jpg","36","1","772"
"5","5","retrieval","new_objects","138","Lens_ColourFilter.jpg","37","1","737"
"5","5","retrieval","new_objects","139","Fruit_Cactus.jpg","36","0","977"
"5","5","retrieval","new_objects","140","Fish_Rockbass.jpg","36","0","510"
"5","5","retrieval","old_objects","141","ReindeerHeadband.jpg","36","1","542"
"5","5","retrieval","old_objects","142","Flower_Crane.jpg","36","1","560"
"5","5","retrieval","old_objects","143","Ball_Squashball.jpg","37","0","671"
"5","5","retrieval","old_objects","144","Dreamcatcher.jpg","36","1","554"
"5","5","retrieval","new_objects","145","ShearsGarden.jpg","36","0","712"
"5","5","retrieval","old_objects","146","Handbag.jpg","36","1","725"
"5","5","retrieval","new_objects","147","Pipe_Drain.jpg","36","0","880"
"5","5","retrieval","old_objects","148","Nuts_Pecan.jpg","36","1","637"
"5","5","retrieval","new_objects","149","Backhoe.jpg","37","1","519"
"5","5","retrieval","old_objects","150","Beater_Electric.jpg","36","1","581"
"5","5","retrieval","old_objects","151","ComputerKeyboard_F1.jpg","36","1","479"
"5","5","retrieval","new_objects","152","Cheeseburger.jpg","37","1","726"
"5","5","retrieval","new_objects","153","Fireplace_Outdoor.jpg","36","0","976"
"5","5","retrieval","old_objects","154","Bag_PaperWithFlour.jpg","36","1","645"
"5","5","retrieval","new_objects","155","Basket_Bread.jpg","37","1","678"
"5","5","retrieval","new_objects","156","Toy_DonkeyPlastic.jpg","37","1","799"
"5","5","retrieval","new_objects","157","Lacrosse_Stick.jpg","36","0","572"
"5","5","retrieval","new_objects","158","Flowers_DryBouquet.jpg","37","1","700"
"5","5","retrieval","new_objects","159","Lock_Combination.jpg","37","1","1117"
"5","5","retrieval","old_objects","160","Dresser.jpg","36","1","645"
"5","5","retrieval","old_objects","161","Cord_usb.jpg","36","1","455"
"5","5","retrieval","old_objects","162","Cast.jpg","36","1","583"
"5","5","retrieval","old_objects","163","Desk_School.jpg","36","1","500"
"5","5","retrieval","new_objects","164","PillBottle_Spilled.jpg","36","0","500"
"5","5","retrieval","old_objects","165","Origami_Bird.jpg","36","1","493"
"5","5","retrieval","new_objects","166","Clippers_Glass.jpg","37","1","651"
"5","5","retrieval","new_objects","167","Harmonica.jpg","36","0","747"
"5","5","retrieval","new_objects","168","Mask_Buddhist.jpg","36","0","571"
"5","5","retrieval","new_objects","169","Jar_Cookie.jpg","37","1","933"
"5","5","retrieval","new_objects","170","Nutcracker.jpg","36","0","579"
"5","5","retrieval","new_objects","171","Socks_Winter.jpg","37","1","721"
"5","5","retrieval","new_objects","172","Leek.jpg","36","0","861"
"5","5","retrieval","old_objects","173","Spotlight.jpg","36","1","664"
"5","5","retrieval","new_objects","174","Bird_CanadianGoose.jpg","36","0","692"
"5","5","retrieval","new_objects","175","Stool_Metal.jpg","36","0","815"
"5","5","retrieval","old_objects","176","Lollipop_Rainbow.jpg","36","1","548"
"5","5","retrieval","new_objects","177","PlantPotted.jpg","37","1","615"
"5","5","retrieval","old_objects","178","Artichoke.jpg","36","1","1028"
"5","5","retrieval","new_objects","179","Machine_Arm.jpg","37","1","679"
"5","5","retrieval","old_objects","180","DeepFryer.jpg","36","1","687"
"5","5","retrieval","new_objects","181","Seashell_AlternateTellin.jpg","36","0","692"
"5","5","retrieval","old_objects","182","Glass_Bowl.jpg","36","1","753"
"5","5","retrieval","new_objects","184","Key_Car.jpg","37","1","797"
"5","5","retrieval","new_objects","185","Elephant.jpg","37","1","824"
"5","5","retrieval","old_objects","186","Hotdog_Weiner.jpg","36","1","657"
"5","5","retrieval","new_objects","187","Box_Package.jpg","36","0","657"
"5","5","retrieval","new_objects","188","Glove_Baseball.jpg","37","1","610"
"5","5","retrieval","new_objects","189","Butterfly.jpg","37","1","558"
"5","5","retrieval","new_objects","190","Knee.jpg","37","1","798"
"5","5","retrieval","old_objects","191","Stroboscope.jpg","37","0","1313"
"5","5","retrieval","new_objects","192","Fan_Blades.jpg","37","1","704"
"5","5","retrieval","new_objects","193","Toy_BlocksMultiShape.jpg","36","0","965"
"5","5","retrieval","new_objects","194","Eraser.jpg","37","1","977"
"5","5","retrieval","old_objects","195","Case_DVD.jpg","36","1","538"
"5","5","retrieval","new_objects","196","Garlic_Clove.jpg","36","0","511"
"5","5","retrieval","new_objects","197","Thermometer_Room.jpg","36","0","579"
"5","5","retrieval","new_objects","198","Earrings_Dangling.jpg","37","1","879"
"5","5","retrieval","old_objects","199","Boots_KneeHigh.jpg","36","1","799"
"5","5","retrieval","new_objects","200","NailFiles.jpg","36","0","536"
"5","5","retrieval","new_objects","201","Skirt_Long.jpg","37","1","693"
"5","5","retrieval","old_objects","202","SledgeHammer.jpg","36","1","551"
"5","5","retrieval","new_objects","203","FlipFlop_SingleRed.jpg","37","1","541"
"5","5","retrieval","new_objects","204","PizzaCutter.jpg","36","0","751"
"5","5","retrieval","old_objects","205","Bench_Wooden.jpg","36","1","475"
"5","5","retrieval","old_objects","206","Bucket_Rusty.jpg","37","0","732"
"5","5","retrieval","old_objects","207","Snowpea.jpg","36","1","599"
"5","5","retrieval","old_objects","208","Tire_Hollow.jpg","36","1","548"
"5","5","retrieval","old_objects","209","VacuumHead.jpg","36","1","658"
"5","5","retrieval","old_objects","210","Weights_Dumbells.jpg","36","1","552"
"5","5","retrieval","old_objects","211","Bolt_WithNut.jpg","36","1","504"
"5","5","retrieval","old_objects","212","Dress_Blue.jpg","36","1","605"
"5","5","retrieval","new_objects","213","Cactus.jpg","36","0","1032"
"5","5","retrieval","old_objects","214","Otoscope.jpg","36","1","715"
"5","5","retrieval","new_objects","215","Envelope_Letter.jpg","37","1","678"
"5","5","retrieval","old_objects","216","HorseshoeCrab.jpg","36","1","599"
"5","5","retrieval","new_objects","217","Bucket_Champagne.jpg","37","1","611"
"5","5","retrieval","new_objects","218","Toy_Babydoll.jpg","37","1","643"
"5","5","retrieval","old_objects","219","Rake_Long.jpg","36","1","741"
"5","5","retrieval","old_objects","220","Light_Traffic.jpg","36","1","559"
"5","5","retrieval","old_objects","221","Lighter_Black.jpg","36","1","553"
"5","5","retrieval","new_objects","222","Ladder.jpg","36","0","817"
"5","5","retrieval","new_objects","223","FlintIgniter.jpg","36","0","1046"
"5","5","retrieval","old_objects","224","Mixer_Hand.jpg","36","1","695"
"5","5","retrieval","old_objects","225","TowelRack_Brown.jpg","36","1","700"
"5","5","retrieval","new_objects","226","Shoes_Snow.jpg","37","1","617"
"5","5","retrieval","old_objects","227","Bugle.jpg","36","1","589"
"5","5","retrieval","old_objects","228","Hat_Beanie.jpg","36","1","711"
"5","5","retrieval","old_objects","229","Toy_BearBluePlushie.jpg","36","1","585"
"5","5","retrieval","old_objects","230","Buffalo.jpg","37","0","596"
"5","5","retrieval","new_objects","231","Perfume.jpg","36","0","591"
"5","5","retrieval","new_objects","232","Blueprints.jpg","37","1","1081"
"5","5","retrieval","old_objects","233","Toy_Train.jpg","36","1","538"
"5","5","retrieval","old_objects","234","Bird_Toucan.jpg","36","1","703"
"5","5","retrieval","old_objects","235","Broccoli.jpg","36","1","520"
"5","5","retrieval","old_objects","236","JuiceBox.jpg","36","1","559"
"5","5","retrieval","new_objects","237","ChocolateBar_Unwrapped.jpg","37","1","687"
"5","5","retrieval","old_objects","238","Hat_Cowboy.jpg","37","0","763"
"5","5","retrieval","old_objects","239","Glass_Ball.jpg","36","1","777"
"5","5","retrieval","old_objects","240","WaterGun.jpg","36","1","582"
"5","5","retrieval","old_objects","241","SundaeBanana.jpg","36","1","605"
"5","5","retrieval","new_objects","242","Mask_VenetianCat.jpg","37","1","845"
"5","5","retrieval","new_objects","243","Mop.jpg","36","0","739"
"5","5","retrieval","new_objects","245","Ball_Bowling.jpg","36","0","1069"
"5","5","retrieval","new_objects","246","Basket_Firewood.jpg","37","1","571"
"5","5","retrieval","new_objects","247","Sword.jpg","37","1","560"
"5","5","retrieval","old_objects","248","Bread_Pita.jpg","36","1","605"
"5","5","retrieval","old_objects","249","Hubcap.jpg","36","1","719"
"5","5","retrieval","old_objects","250","Bowl_Chopsticks.jpg","37","0","932"
"5","5","retrieval","old_objects","251","Shirt_SportsJersey.jpg","37","0","543"
"5","5","retrieval","new_objects","252","Man.jpg","37","1","621"
"5","5","retrieval","old_objects","253","PillBottle_Prescription.jpg","36","1","560"
"5","5","retrieval","old_objects","254","Camel_Dromedary.jpg","36","1","561"
"5","5","retrieval","old_objects","255","Barrel_Wine.jpg","36","1","616"
"5","5","retrieval","old_objects","256","Awning.jpg","36","1","561"
"5","5","retrieval","old_objects","257","Ladle.jpg","36","1","558"
"5","5","retrieval","old_objects","258","Cracker_Saltine.jpg","36","1","524"
"5","5","retrieval","old_objects","259","LifeJacket_Orangejpg.jpg","36","1","704"
"5","5","retrieval","new_objects","260","Bomb.jpg","37","1","952"
"5","5","retrieval","new_objects","261","Film_Single.jpg","37","1","1499"
"5","5","retrieval","new_objects","262","Gun_Revolver.jpg","36","0","675"
"5","5","retrieval","old_objects","263","Chair_Car.jpg","36","1","510"
"5","5","retrieval","new_objects","264","RugRoled.jpg","37","1","636"
"5","5","retrieval","old_objects","265","Arch.jpg","36","1","584"
"5","5","retrieval","old_objects","266","Whip.jpg","36","1","686"
"5","5","retrieval","old_objects","267","Harp.jpg","36","1","481"
"5","5","retrieval","new_objects","268","Bowl_Pasta.jpg","36","0","484"
"5","5","retrieval","new_objects","269","TeethModel.jpg","37","1","654"
"5","5","retrieval","new_objects","270","SpiderWeb.jpg","37","1","769"
"5","5","retrieval","new_objects","271","SpinalCord.jpg","37","1","644"
"5","5","retrieval","new_objects","272","GranolaBar.jpg","37","1","585"
"5","5","retrieval","old_objects","273","Bandage_Adhesive.jpg","37","0","696"
"5","5","retrieval","new_objects","274","Bag_Grains.jpg","36","0","762"
"5","5","retrieval","old_objects","275","Jar_Empty.jpg","36","1","784"
"5","5","retrieval","old_objects","276","LicensePlate.jpg","36","1","531"
"5","5","retrieval","new_objects","277","DrainPlug.jpg","36","0","615"
"5","5","retrieval","new_objects","278","Bib.jpg","37","1","644"
"5","5","retrieval","old_objects","279","Foam_Accoustic.jpg","36","1","555"
"5","5","retrieval","old_objects","280","Keyhole.jpg","36","1","524"
"5","5","retrieval","old_objects","281","DormerWindow.jpg","36","1","516"
"5","5","retrieval","old_objects","282","Folder_Plastic.jpg","36","1","731"
"5","5","retrieval","new_objects","283","Garlic_Whole.jpg","36","0","640"
"5","5","retrieval","old_objects","284","Toy_GasPump.jpg","36","1","613"
"5","5","retrieval","new_objects","285","Bolt.jpg","36","0","499"
"5","5","retrieval","new_objects","286","Toy_Slinky.jpg","36","0","836"
"5","5","retrieval","old_objects","287","Corkboard.jpg","37","0","994"
"5","5","retrieval","new_objects","288","Condom.jpg","37","1","882"
"5","5","retrieval","new_objects","289","Hat_Explorer.jpg","36","0","697"
"5","5","retrieval","new_objects","290","Bus_School.jpg","37","1","705"
"5","5","retrieval","new_objects","291","Bird_Tern.jpg","36","0","709"
"5","5","retrieval","old_objects","292","HairClipper.jpg","36","1","587"
"5","5","retrieval","new_objects","293","PaintSprayer.jpg","36","0","931"
"5","5","retrieval","new_objects","294","Hook_Ceiling.jpg","37","1","776"
"5","5","retrieval","new_objects","295","HandMixer.jpg","37","1","1268"
"5","5","retrieval","old_objects","296","Box_WoodCrate.jpg","36","1","559"
"5","5","retrieval","old_objects","297","SewingPin_Cushion.jpg","36","1","849"
"5","5","retrieval","new_objects","298","Brace_Neck.jpg","37","1","781"
"5","5","retrieval","new_objects","299","Mask_Gas.jpg","36","0","797"
"5","5","retrieval","old_objects","300","Gauge.jpg","36","1","497"
"5","5","retrieval","old_objects","301","Heater_ElectricUpright.jpg","36","1","710"
"5","5","retrieval","new_objects","302","Box_Chocolate.jpg","36","0","579"
"5","5","retrieval","new_objects","303","JoustingSpear.jpg","37","1","929"
"5","5","retrieval","new_objects","304","Bucket_Ice.jpg","37","1","607"
"5","5","retrieval","new_objects","306","Crutches.jpg","36","0","746"
"5","5","retrieval","old_objects","307","Screw.jpg","36","1","553"
"5","5","retrieval","new_objects","308","Gun_Bazooka.jpg","37","1","668"
"5","5","retrieval","old_objects","309","Window.jpg","36","1","660"
"5","5","retrieval","new_objects","310","BottleOpener.jpg","37","1","714"
"5","5","retrieval","new_objects","311","PillBottle_Closed.jpg","36","0","657"
"5","5","retrieval","new_objects","312","Gameboy.jpg","37","1","668"
"5","5","retrieval","new_objects","313","Ferret.jpg","37","1","629"
"5","5","retrieval","old_objects","314","Noisemaker_Streamers.jpg","36","1","603"
"5","5","retrieval","new_objects","315","Clamp_Screw.jpg","0","0","2000"
"5","5","retrieval","old_objects","316","Toy_FigurineEngineer.jpg","36","1","822"
"5","5","retrieval","old_objects","317","Mitt_Oven.jpg","37","0","982"
"5","5","retrieval","new_objects","318","LaundryHamper.jpg","36","0","651"
"5","5","retrieval","new_objects","319","DryRack_Clothes.jpg","37","1","604"
"5","5","retrieval","new_objects","320","Coatrack.jpg","37","1","847"
"5","5","retrieval","new_objects","321","NailClipper.jpg","37","1","582"
"5","5","retrieval","new_objects","322","Bowl_Glass.jpg","36","0","662"
"5","5","retrieval","old_objects","323","IceCream_Chocolate.jpg","37","0","916"
"5","5","retrieval","new_objects","324","Tray_Medical.jpg","37","1","622"
"5","5","retrieval","old_objects","325","Heater_Outdoor.jpg","36","1","790"
"5","5","retrieval","new_objects","326","Bagel.jpg","36","0","562"
"5","5","retrieval","old_objects","327","Bench_Park.jpg","36","1","548"
"5","5","retrieval","old_objects","328","LitterScoop.jpg","36","1","754"
"5","5","retrieval","new_objects","329","Flower_Hibiscus.jpg","37","1","677"
"5","5","retrieval","old_objects","330","DogLeash.jpg","36","1","557"
"5","5","retrieval","old_objects","331","GasBurner.jpg","36","1","583"
"5","5","retrieval","old_objects","332","Bag_Computer.jpg","36","1","583"
"5","5","retrieval","new_objects","333","Sink_Bathroom.jpg","37","1","698"
"5","5","retrieval","old_objects","334","Gum_Pack.jpg","36","1","561"
"5","5","retrieval","new_objects","335","Soap.jpg","37","1","594"
"5","5","retrieval","new_objects","336","PictureFrame.jpg","37","1","987"
"5","5","retrieval","new_objects","337","Barbecue_Gas.jpg","36","0","577"
"5","5","retrieval","old_objects","338","Yarmulke.jpg","36","1","631"
"5","5","retrieval","old_objects","339","Ruler_Wooden.jpg","36","1","532"
"5","5","retrieval","new_objects","340","Kettle.jpg","36","0","586"
"5","5","retrieval","new_objects","341","Toy_Shapesorter.jpg","37","1","698"
"5","5","retrieval","new_objects","342","Dice.jpg","37","1","561"
"5","5","retrieval","old_objects","343","Parcel.jpg","36","1","631"
"5","5","retrieval","old_objects","344","Bark.jpg","36","1","589"
"5","5","retrieval","new_objects","345","CartonEggs.jpg","37","1","690"
"5","5","retrieval","old_objects","346","Speaker_Single.jpg","36","1","783"
"5","5","retrieval","old_objects","347","Caterpillar.jpg","36","1","942"
"5","5","retrieval","new_objects","348","Car_Totalled.jpg","37","1","578"
"5","5","retrieval","old_objects","349","Computer_ExpansionCard.jpg","36","1","567"
"5","5","retrieval","old_objects","350","Spider.jpg","36","1","544"
"5","5","retrieval","old_objects","351","Sphinx.jpg","36","1","580"
"5","5","retrieval","old_objects","352","Heater_Infrared.jpg","36","1","769"
"5","5","retrieval","old_objects","353","Hockey_Puck.jpg","36","1","564"
"5","5","retrieval","old_objects","354","Flower_Basket.jpg","36","1","517"
"5","5","retrieval","new_objects","355","Dog_ChowChow.jpg","37","1","801"
"5","5","demographics_block","gender","1","Dog_ChowChow.jpg","female","1","11059"
"5","5","demographics_block","age","1","Dog_ChowChow.jpg","37","1","11059"
"5","5","demographics_block","education","1","Dog_ChowChow.jpg","16","1","11059"
"5","5","demographics_block","left_right_handed","2","Dog_ChowChow.jpg","Right","1","8233"
"5","5","demographics_block","raceoption1","2","Dog_ChowChow.jpg","0","1","8233"
"5","5","demographics_block","raceoption2","2","Dog_ChowChow.jpg","","1","8233"
"5","5","demographics_block","raceoption3","2","Dog_ChowChow.jpg","","1","8233"
"5","5","demographics_block","raceoption4","2","Dog_ChowChow.jpg","","1","8233"
"5","5","demographics_block","raceoption5","2","Dog_ChowChow.jpg","","1","8233"
"5","5","demographics_block","raceoption6","2","Dog_ChowChow.jpg","","1","8233"
"5","5","demographics_block","raceoption7","2","Dog_ChowChow.jpg","","1","8233"
"5","5","demographics_block","raceoption8","2","Dog_ChowChow.jpg","","1","8233"
"5","5","demographics_block","raceoption9","2","Dog_ChowChow.jpg","","1","8233"
"5","5","demographics_block","raceother","2","Dog_ChowChow.jpg","","1","8233"
"5","5","demographics_block","raceother","2","Dog_ChowChow.jpg","","1","8233"
"5","5","demographics_block","english_language","2","Dog_ChowChow.jpg","Yes","1","8233"
"5","5","demographics_block","english_languageother","2","Dog_ChowChow.jpg","","1","8233"
"5","5","demographics_block","eyesight","3","Dog_ChowChow.jpg","Yes","1","5114"
"5","5","demographics_block","colorblind","3","Dog_ChowChow.jpg","No","1","5114"
"5","5","worker_id_block","worker_id_textbox","1","Dog_ChowChow.jpg","AXAO7UJYYEFCO","1","4717"
"8","8","encoding","encoding","1","Lollipop_Rainbow.jpg","37","0","696"
"8","8","encoding","encoding","2","Bench_Wooden.jpg","36","0","990"
"8","8","encoding","encoding","3","Dress_Blue.jpg","36","0","738"
"8","8","encoding","encoding","4","Squid_Orange.jpg","37","0","681"
"8","8","encoding","encoding","5","Lion.jpg","36","0","532"
"8","8","encoding","encoding","6","Spoon_Wooden.jpg","37","0","641"
"8","8","encoding","encoding","7","Bagpipes.jpg","36","0","613"
"8","8","encoding","encoding","8","Glass_Ball.jpg","37","0","1190"
"8","8","encoding","encoding","9","JuiceBox.jpg","37","0","789"
"8","8","encoding","encoding","10","Stool_Camping.jpg","37","0","931"
"8","8","encoding","encoding","11","Helmet_Football.jpg","36","0","1093"
"8","8","encoding","encoding","12","Handbag.jpg","36","0","819"
"8","8","encoding","encoding","13","Cake_Cheese.jpg","37","0","672"
"8","8","encoding","encoding","14","Noisemaker_Streamers.jpg","37","0","965"
"8","8","encoding","encoding","15","Cracker_Saltine.jpg","37","0","650"
"8","8","encoding","encoding","16","Boat_Dinghy.jpg","36","0","674"
"8","8","encoding","encoding","17","Bolt_WithNut.jpg","37","0","613"
"8","8","encoding","encoding","18","Ball_Squashball.jpg","36","0","945"
"8","8","encoding","encoding","19","PillBottle_Prescription.jpg","37","0","770"
"8","8","encoding","encoding","20","Shoes_Mould.jpg","36","0","1058"
"8","8","encoding","encoding","21","Heater_Infrared.jpg","37","0","1394"
"8","8","encoding","encoding","22","Radish.jpg","37","0","693"
"8","8","encoding","encoding","23","Artichoke.jpg","37","0","889"
"8","8","encoding","encoding","24","Staircase_Curving.jpg","36","0","1068"
"8","8","encoding","encoding","25","TowelRack_Brown.jpg","37","0","691"
"8","8","encoding","encoding","26","Awning.jpg","36","0","643"
"8","8","encoding","encoding","27","SewingPin_Cushion.jpg","37","0","913"
"8","8","encoding","encoding","28","Heater_Outdoor.jpg","36","0","692"
"8","8","encoding","encoding","29","Hubcap.jpg","36","0","748"
"8","8","encoding","encoding","30","WateringCan_Antique.jpg","36","0","885"
"8","8","encoding","encoding","31","Tricycle.jpg","36","0","777"
"8","8","encoding","encoding","32","Tire_Hollow.jpg","36","0","653"
"8","8","encoding","encoding","33","Microphone.jpg","36","0","941"
"8","8","encoding","encoding","34","SledgeHammer.jpg","36","0","890"
"8","8","encoding","encoding","35","Bag_Gift.jpg","37","0","1161"
"8","8","encoding","encoding","36","Bread_Pita.jpg","37","0","881"
"8","8","encoding","encoding","37","Vase_EarthToned.jpg","36","0","1068"
"8","8","encoding","encoding","38","Bucket_Halloween.jpg","36","0","1033"
"8","8","encoding","encoding","39","LicensePlate.jpg","37","0","1534"
"8","8","encoding","encoding","40","Whip.jpg","36","0","1344"
"8","8","encoding","encoding","41","Snowpea.jpg","37","0","777"
"8","8","encoding","encoding","42","Otoscope.jpg","37","0","857"
"8","8","encoding","encoding","43","Chair_Car.jpg","36","0","577"
"8","8","encoding","encoding","44","Flower_Daisy.jpg","37","0","635"
"8","8","encoding","encoding","45","BadgeSpecialAgent.jpg","37","0","685"
"8","8","encoding","encoding","46","Swing_Child.jpg","36","0","738"
"8","8","encoding","encoding","47","Sign_Open.jpg","36","0","1217"
"8","8","encoding","encoding","48","Table_Magazine.jpg","36","0","1059"
"8","8","encoding","encoding","49","Speaker_Single.jpg","36","0","553"
"8","8","encoding","encoding","50","Shirt_SportsJersey.jpg","36","0","911"
"8","8","encoding","encoding","51","SundaeBanana.jpg","37","0","910"
"8","8","encoding","encoding","52","Hat_Cowboy.jpg","37","0","1113"
"8","8","encoding","encoding","53","IceCream_Chocolate.jpg","37","0","737"
"8","8","encoding","encoding","54","Gum_Pack.jpg","37","0","651"
"8","8","encoding","encoding","55","WaterGun.jpg","37","0","797"
"8","8","encoding","encoding","56","Flower_Basket.jpg","36","0","1228"
"8","8","encoding","encoding","57","Mitt_Oven.jpg","37","0","804"
"8","8","encoding","encoding","58","Gauge.jpg","37","0","783"
"8","8","encoding","encoding","59","Bag_Computer.jpg","36","0","577"
"8","8","encoding","encoding","60","Box_Wine.jpg","36","0","758"
"8","8","encoding","encoding","62","Keyhole.jpg","37","0","1184"
"8","8","encoding","encoding","63","White_Screen.jpg","0","0","2000"
"8","8","encoding","encoding","64","Stroboscope.jpg","36","0","949"
"8","8","encoding","encoding","65","Grill_Gas.jpg","36","0","620"
"8","8","encoding","encoding","66","Barrel_Wine.jpg","36","0","592"
"8","8","encoding","encoding","67","Tribunal_Wooden.jpg","36","0","664"
"8","8","encoding","encoding","68","Case_DVD.jpg","37","0","867"
"8","8","encoding","encoding","69","Cord_usb.jpg","37","0","721"
"8","8","encoding","encoding","70","HorseshoeCrab.jpg","37","0","781"
"8","8","encoding","encoding","71","TigerWhite.jpg","36","0","569"
"8","8","encoding","encoding","72","Light_Traffic.jpg","36","0","997"
"8","8","encoding","encoding","73","Almond.jpg","37","0","576"
"8","8","encoding","encoding","74","ReindeerHeadband.jpg","37","0","886"
"8","8","encoding","encoding","75","Bench_Park.jpg","36","0","610"
"8","8","encoding","encoding","76","CameoPortrait.jpg","37","0","876"
"8","8","encoding","encoding","77","Corkboard.jpg","36","0","708"
"8","8","encoding","encoding","78","Bowl_Chopsticks.jpg","37","0","910"
"8","8","encoding","encoding","79","Mug_Travel.jpg","37","0","822"
"8","8","encoding","encoding","80","Jar_Empty.jpg","37","0","861"
"8","8","encoding","encoding","81","Tray_Muffin.jpg","36","0","1162"
"8","8","encoding","encoding","82","VacuumHead.jpg","37","0","841"
"8","8","encoding","encoding","83","PencilCase.jpg","37","0","672"
"8","8","encoding","encoding","84","Ruler_Wooden.jpg","37","0","548"
"8","8","encoding","encoding","85","TubeRing.jpg","36","0","883"
"8","8","encoding","encoding","86","Bird_Toucan.jpg","37","0","576"
"8","8","encoding","encoding","87","House_Doll.jpg","36","0","587"
"8","8","encoding","encoding","88","Broccoli.jpg","37","0","735"
"8","8","encoding","encoding","89","Pickaxe.jpg","37","0","668"
"8","8","encoding","encoding","90","DeepFryer.jpg","36","0","829"
"8","8","encoding","encoding","91","ComputerKeyboard_F1.jpg","37","0","766"
"8","8","encoding","encoding","92","Lighter_Black.jpg","37","0","672"
"8","8","encoding","encoding","93","Rake_Long.jpg","36","0","671"
"8","8","encoding","encoding","94","Pot_Cooking.jpg","36","0","815"
"8","8","encoding","encoding","95","Steam_Cleaner.jpg","36","0","978"
"8","8","encoding","encoding","96","Olives.jpg","37","0","719"
"8","8","encoding","encoding","97","Cologne.jpg","37","0","825"
"8","8","encoding","encoding","98","ComputerKey_Escape.jpg","37","0","685"
"8","8","encoding","encoding","99","Folder_Plastic.jpg","36","0","811"
"8","8","encoding","encoding","100","Paddle_Canoe.jpg","36","0","816"
"8","8","encoding","encoding","101","Window.jpg","36","0","622"
"8","8","encoding","encoding","102","Sign_Caution.jpg","36","0","730"
"8","8","encoding","encoding","103","Glass_Bowl.jpg","36","0","747"
"8","8","encoding","encoding","104","Cast.jpg","37","0","1227"
"8","8","encoding","encoding","105","Toy_Firetruck.jpg","37","0","827"
"8","8","encoding","encoding","106","Arch.jpg","36","0","988"
"8","8","encoding","encoding","107","Dresser.jpg","36","0","684"
"8","8","encoding","encoding","108","Foam_Accoustic.jpg","37","0","639"
"8","8","encoding","encoding","109","Sign_TrafficArrow.jpg","36","0","986"
"8","8","encoding","encoding","110","Pen_Calligraphy.jpg","37","0","664"
"8","8","encoding","encoding","111","Hat_Beanie.jpg","37","0","708"
"8","8","encoding","encoding","112","LifeJacket_Orangejpg.jpg","36","0","619"
"8","8","encoding","encoding","113","Boots_KneeHigh.jpg","36","0","589"
"8","8","encoding","encoding","114","Beater_Electric.jpg","36","0","576"
"8","8","encoding","encoding","115","Costume_Wizard.jpg","36","0","613"
"8","8","encoding","encoding","116","Heater_ElectricUpright.jpg","36","0","694"
"8","8","encoding","encoding","117","CoinRolls.jpg","37","0","1073"
"8","8","encoding","encoding","118","DormerWindow.jpg","36","0","594"
"8","8","encoding","encoding","119","Stool_Foot.jpg","36","0","814"
"8","8","encoding","encoding","120","Toy_FigurineEngineer.jpg","37","0","994"
"8","8","encoding","encoding","121","Headphones.jpg","37","0","1155"
"8","8","encoding","encoding","123","Toy_GasPump.jpg","36","0","806"
"8","8","encoding","encoding","124","JuicerCitrus.jpg","36","0","665"
"8","8","encoding","encoding","125","Bag_PaperWithFlour.jpg","36","0","1229"
"8","8","encoding","encoding","126","Plate_Children.jpg","37","0","783"
"8","8","encoding","encoding","127","Paddle_Beach.jpg","37","0","736"
"8","8","encoding","encoding","128","OperaGlasses.jpg","37","0","1086"
"8","8","encoding","encoding","129","Toy_BearBluePlushie.jpg","37","0","792"
"8","8","encoding","encoding","130","Harp.jpg","36","0","583"
"8","8","encoding","encoding","131","Toy_TableSet.jpg","36","0","747"
"8","8","encoding","encoding","132","GasBurner.jpg","37","0","894"
"8","8","encoding","encoding","133","Lock_Door.jpg","37","0","848"
"8","8","encoding","encoding","134","Mixer_Hand.jpg","37","0","1024"
"8","8","encoding","encoding","135","LitterScoop.jpg","37","0","774"
"8","8","encoding","encoding","136","Desk_School.jpg","36","0","989"
"8","8","encoding","encoding","137","DogLeash.jpg","37","0","684"
"8","8","encoding","encoding","138","Rock_Agate.jpg","37","0","1100"
"8","8","encoding","encoding","139","Dreamcatcher.jpg","37","0","968"
"8","8","encoding","encoding","140","Bucket_Rusty.jpg","36","0","757"
"8","8","encoding","encoding","141","Spider.jpg","37","0","1014"
"8","8","encoding","encoding","142","Screw.jpg","37","0","636"
"8","8","encoding","encoding","143","Hockey_Puck.jpg","37","0","919"
"8","8","encoding","encoding","144","Jetski.jpg","36","0","776"
"8","8","encoding","encoding","145","Blackboard.jpg","36","0","651"
"8","8","encoding","encoding","146","Sign_SpeedLimit25.jpg","36","0","1245"
"8","8","encoding","encoding","147","Toy_Ladybug.jpg","37","0","751"
"8","8","encoding","encoding","148","Yarmulke.jpg","36","0","1017"
"8","8","encoding","encoding","149","Hotdog_Weiner.jpg","37","0","1071"
"8","8","encoding","encoding","150","Buffalo.jpg","36","0","624"
"8","8","encoding","encoding","151","Bark.jpg","37","0","1133"
"8","8","encoding","encoding","152","Toy_Car.jpg","36","0","701"
"8","8","encoding","encoding","153","Nuts_Pecan.jpg","37","0","750"
"8","8","encoding","encoding","154","Origami_Bird.jpg","37","0","1051"
"8","8","encoding","encoding","155","Weights_Dumbells.jpg","37","0","835"
"8","8","encoding","encoding","156","Sphinx.jpg","36","0","745"
"8","8","encoding","encoding","157","Lamp_Table.jpg","36","0","1041"
"8","8","encoding","encoding","158","Toy_Train.jpg","37","0","1103"
"8","8","encoding","encoding","159","Camel_Dromedary.jpg","36","0","635"
"8","8","encoding","encoding","160","Makeup_Mascara.jpg","37","0","608"
"8","8","encoding","encoding","161","Chair_MedicalToilet.jpg","36","0","975"
"8","8","encoding","encoding","162","MovieSlate.jpg","37","0","802"
"8","8","encoding","encoding","163","Caterpillar.jpg","37","0","650"
"8","8","encoding","encoding","164","Dropper.jpg","37","0","647"
"8","8","encoding","encoding","165","Chicken_Dinner.jpg","37","0","1345"
"8","8","encoding","encoding","166","Parcel.jpg","37","0","1238"
"8","8","encoding","encoding","167","Ladle.jpg","37","0","783"
"8","8","encoding","encoding","168","Flower_Crane.jpg","37","0","739"
"8","8","encoding","encoding","169","HairClipper.jpg","37","0","890"
"8","8","encoding","encoding","170","Shoes_DutchClogs.jpg","36","0","1787"
"8","8","encoding","encoding","171","Drum_Conga.jpg","36","0","617"
"8","8","encoding","encoding","172","Spotlight.jpg","36","0","750"
"8","8","encoding","encoding","173","Computer_ExpansionCard.jpg","37","0","1084"
"8","8","encoding","encoding","174","Bugle.jpg","36","0","958"
"8","8","encoding","encoding","175","Bandage_Adhesive.jpg","37","0","553"
"8","8","encoding","encoding","176","Box_WoodCrate.jpg","36","0","576"
"8","8","encoding","encoding","177","SoapBottle.jpg","37","0","558"
"8","8","retrieval","old_objects","1","Screw.jpg","36","1","935"
"8","8","retrieval","old_objects","2","Helmet_Football.jpg","36","1","670"
"8","8","retrieval","old_objects","3","White_Screen.jpg","37","0","1712"
"8","8","retrieval","old_objects","4","Toy_Car.jpg","36","1","753"
"8","8","retrieval","new_objects","5","Sheep.jpg","37","1","775"
"8","8","retrieval","old_objects","6","Toy_TableSet.jpg","36","1","1107"
"8","8","retrieval","new_objects","7","DrainPlug.jpg","37","1","778"
"8","8","retrieval","new_objects","8","Glove_Baseball.jpg","37","1","720"
"8","8","retrieval","old_objects","9","Box_Wine.jpg","37","0","635"
"8","8","retrieval","old_objects","10","Ball_Squashball.jpg","36","1","738"
"8","8","retrieval","old_objects","11","Pot_Cooking.jpg","36","1","749"
"8","8","retrieval","old_objects","12","Bucket_Rusty.jpg","36","1","666"
"8","8","retrieval","old_objects","13","DormerWindow.jpg","36","1","685"
"8","8","retrieval","new_objects","14","Elephant.jpg","37","1","1160"
"8","8","retrieval","old_objects","15","Hat_Beanie.jpg","37","0","809"
"8","8","retrieval","new_objects","16","Hat_Explorer.jpg","36","0","743"
"8","8","retrieval","new_objects","17","Seashell_AlternateTellin.jpg","37","1","730"
"8","8","retrieval","old_objects","18","Dreamcatcher.jpg","36","1","717"
"8","8","retrieval","new_objects","19","NailClipper.jpg","37","1","679"
"8","8","retrieval","old_objects","20","Tricycle.jpg","36","1","1108"
"8","8","retrieval","new_objects","21","Swan.jpg","37","1","692"
"8","8","retrieval","old_objects","22","SundaeBanana.jpg","36","1","779"
"8","8","retrieval","old_objects","23","Drum_Conga.jpg","36","1","764"
"8","8","retrieval","new_objects","24","Lens_ColourFilter.jpg","37","1","834"
"8","8","retrieval","old_objects","25","Gauge.jpg","36","1","1215"
"8","8","retrieval","old_objects","26","Foam_Accoustic.jpg","36","1","794"
"8","8","retrieval","new_objects","27","Bottle_Blue.jpg","37","1","696"
"8","8","retrieval","old_objects","28","VacuumHead.jpg","37","0","877"
"8","8","retrieval","new_objects","29","Bomb.jpg","37","1","701"
"8","8","retrieval","old_objects","30","HairClipper.jpg","36","1","720"
"8","8","retrieval","old_objects","31","Hubcap.jpg","36","1","979"
"8","8","retrieval","old_objects","32","Flower_Crane.jpg","36","1","770"
"8","8","retrieval","new_objects","33","Backhoe.jpg","37","1","725"
"8","8","retrieval","new_objects","34","Lacrosse_Stick.jpg","37","1","764"
"8","8","retrieval","old_objects","35","DogLeash.jpg","36","1","756"
"8","8","retrieval","new_objects","36","Castle_Sand.jpg","37","1","736"
"8","8","retrieval","old_objects","37","Chair_Car.jpg","36","1","719"
"8","8","retrieval","new_objects","38","Statue_Head.jpg","37","1","1592"
"8","8","retrieval","old_objects","39","Stool_Camping.jpg","36","1","753"
"8","8","retrieval","old_objects","40","Bag_Computer.jpg","36","1","661"
"8","8","retrieval","old_objects","41","Bread_Pita.jpg","36","1","954"
"8","8","retrieval","old_objects","42","JuiceBox.jpg","36","1","722"
"8","8","retrieval","new_objects","43","Toy_BlocksMultiShape.jpg","37","1","703"
"8","8","retrieval","new_objects","44","Brace_Neck.jpg","37","1","799"
"8","8","retrieval","new_objects","45","Ball_Bowling.jpg","37","1","636"
"8","8","retrieval","old_objects","46","TubeRing.jpg","36","1","634"
"8","8","retrieval","new_objects","47","SpinalCord.jpg","37","1","941"
"8","8","retrieval","old_objects","48","Almond.jpg","37","0","1312"
"8","8","retrieval","new_objects","49","Tray_Medical.jpg","37","1","698"
"8","8","retrieval","old_objects","50","Stool_Foot.jpg","37","0","682"
"8","8","retrieval","new_objects","51","HoseNozzle.jpg","37","1","627"
"8","8","retrieval","new_objects","52","Basket_Bread.jpg","37","1","644"
"8","8","retrieval","new_objects","53","Star.jpg","37","1","670"
"8","8","retrieval","new_objects","54","Cactus.jpg","37","1","633"
"8","8","retrieval","new_objects","55","HandMixer.jpg","0","0","2000"
"8","8","retrieval","old_objects","56","Dresser.jpg","36","1","1369"
"8","8","retrieval","new_objects","57","Bucket_Champagne.jpg","37","1","735"
"8","8","retrieval","new_objects","58","Cake_Wedding.jpg","37","1","678"
"8","8","retrieval","new_objects","59","MilkPitcher.jpg","37","1","774"
"8","8","retrieval","new_objects","60","Lollipop_Grape.jpg","37","1","701"
"8","8","retrieval","new_objects","62","Kettle.jpg","37","1","1099"
"8","8","retrieval","new_objects","63","Thermometer_Room.jpg","37","1","613"
"8","8","retrieval","new_objects","64","Ladder.jpg","37","1","535"
"8","8","retrieval","old_objects","65","Makeup_Mascara.jpg","36","1","746"
"8","8","retrieval","old_objects","66","Cord_usb.jpg","36","1","737"
"8","8","retrieval","old_objects","67","Staircase_Curving.jpg","36","1","821"
"8","8","retrieval","new_objects","68","Leek.jpg","37","1","718"
"8","8","retrieval","new_objects","69","WaterHeater.jpg","37","1","992"
"8","8","retrieval","old_objects","70","IceCream_Chocolate.jpg","36","1","744"
"8","8","retrieval","new_objects","71","Quartz.jpg","37","1","591"
"8","8","retrieval","old_objects","72","Jar_Empty.jpg","37","0","649"
"8","8","retrieval","old_objects","73","LitterScoop.jpg","36","1","674"
"8","8","retrieval","new_objects","74","Missile.jpg","37","1","655"
"8","8","retrieval","old_objects","75","Otoscope.jpg","36","1","745"
"8","8","retrieval","old_objects","76","Gum_Pack.jpg","36","1","642"
"8","8","retrieval","old_objects","77","Mug_Travel.jpg","36","1","680"
"8","8","retrieval","old_objects","78","Dropper.jpg","36","1","872"
"8","8","retrieval","old_objects","79","SledgeHammer.jpg","36","1","1777"
"8","8","retrieval","old_objects","80","HorseshoeCrab.jpg","36","1","710"
"8","8","retrieval","new_objects","81","Sword.jpg","37","1","697"
"8","8","retrieval","old_objects","82","Costume_Wizard.jpg","36","1","1045"
"8","8","retrieval","new_objects","83","Jar_Cookie.jpg","37","1","778"
"8","8","retrieval","old_objects","84","PillBottle_Prescription.jpg","36","1","733"
"8","8","retrieval","new_objects","85","NailFiles.jpg","37","1","625"
"8","8","retrieval","old_objects","86","WaterGun.jpg","36","1","854"
"8","8","retrieval","new_objects","87","Garlic_Clove.jpg","37","1","692"
"8","8","retrieval","old_objects","88","BadgeSpecialAgent.jpg","36","1","771"
"8","8","retrieval","new_objects","89","Fan_Ceiling.jpg","37","1","675"
"8","8","retrieval","old_objects","90","Awning.jpg","36","1","752"
"8","8","retrieval","old_objects","91","Bag_PaperWithFlour.jpg","36","1","798"
"8","8","retrieval","old_objects","92","Speaker_Single.jpg","36","1","672"
"8","8","retrieval","old_objects","93","Lollipop_Rainbow.jpg","36","1","999"
"8","8","retrieval","new_objects","94","Fish_Rockbass.jpg","37","1","658"
