"group","subject","blockcode","trialcode","trialnum","values.stimulus","response","correct","latency"
"1","1","encoding","encoding","1","Toy_FigurineSwing.jpg","0","0","2001"
"1","1","encoding","encoding","2","Belt.jpg","0","0","2001"
"1","1","encoding","encoding","3","Chest_Toys.jpg","0","0","2001"
"1","1","encoding","encoding","4","Candy_Cotton.jpg","Ctrl+'B'","1","1164"
"1","1","retrieval","new_objects","1","Defribrillator.jpg","0","0","2001"
"1","1","retrieval","new_objects","2","BumperCar.jpg","Ctrl+'B'","1","1494"
"1","1","demographics_block","gender","1","BumperCar.jpg","","1","1599"
"1","1","demographics_block","age","1","BumperCar.jpg","","1","1599"
"1","1","demographics_block","education","1","BumperCar.jpg","","1","1599"
"2","2","encoding","encoding","1","Waffle.jpg","37","0","1790"
"2","2","encoding","encoding","2","Dragonfly.jpg","37","0","844"
"2","2","encoding","encoding","3","Garbage_Can.jpg","36","0","1056"
"2","2","encoding","encoding","4","Box_FirstAid.jpg","37","0","1253"
"2","2","encoding","encoding","5","Box_WoodenOpen.jpg","36","0","1090"
"2","2","encoding","encoding","6","Bindings_Snowboard.jpg","37","0","1904"
"2","2","encoding","encoding","7","Nuts_PeanutsPeeled.jpg","37","0","739"
"2","2","encoding","encoding","8","Tree_Fir.jpg","36","0","1481"
"2","2","encoding","encoding","9","Organ.jpg","37","0","1338"
"2","2","encoding","encoding","10","DVDPlayer.jpg","37","0","1851"
"2","2","encoding","encoding","11","Chimpanzee.jpg","36","0","1798"
"2","2","encoding","encoding","12","Honeycomb.jpg","37","0","1040"
"2","2","encoding","encoding","13","Fork_Regular.jpg","37","0","1086"
"2","2","encoding","encoding","14","Shield_Antique.jpg","37","0","1474"
"2","2","encoding","encoding","15","FloorTile.jpg","37","0","1248"
"2","2","encoding","encoding","16","Book_Paper.jpg","37","0","1553"
"2","2","encoding","encoding","17","Mailbox_Community.jpg","37","0","1270"
"2","2","encoding","encoding","18","Table_Picnic.jpg","36","0","1221"
"2","2","encoding","encoding","19","Corn.jpg","37","0","1053"
"2","2","encoding","encoding","20","Accordion.jpg","37","0","1015"
"2","2","encoding","encoding","21","SaltShaker.jpg","37","0","892"
"2","2","encoding","encoding","22","TrapAnimal.jpg","37","0","718"
"2","2","encoding","encoding","23","Hammer_Reflex.jpg","37","0","651"
"2","2","encoding","encoding","24","Bell_Hand.jpg","37","0","1164"
"2","2","encoding","encoding","25","EyeChart.jpg","37","0","771"
"2","2","encoding","encoding","26","Radio_Antique.jpg","37","0","610"
"2","2","encoding","encoding","27","Pliers_ViceGrip.jpg","37","0","889"
"2","2","encoding","encoding","28","SlideViewer.jpg","37","0","1436"
"2","2","encoding","encoding","29","AirVent.jpg","37","0","789"
"2","2","encoding","encoding","30","Instrument_African.jpg","37","0","1825"
"2","2","encoding","encoding","31","VinylRecord.jpg","37","0","593"
"2","2","encoding","encoding","32","Sandwich_Egg.jpg","37","0","1913"
"2","2","encoding","encoding","33","Giraffe.jpg","36","0","937"
"2","2","encoding","encoding","34","LightBulb_Blue.jpg","37","0","1417"
"2","2","encoding","encoding","35","Branches_Campfire.jpg","37","0","1134"
"2","2","encoding","encoding","36","Spoons_Musical.jpg","37","0","600"
"2","2","encoding","encoding","37","Grill_Electric.jpg","37","0","844"
"2","2","encoding","encoding","38","Stapler_Gun.jpg","37","0","545"
"2","2","encoding","encoding","39","SolderingWire.jpg","37","0","1266"
"2","2","encoding","encoding","40","Jack.jpg","37","0","569"
"2","2","encoding","encoding","41","Taco.jpg","37","0","1824"
"2","2","encoding","encoding","42","Hawk.jpg","37","0","1690"
"2","2","encoding","encoding","43","ButterDish.jpg","37","0","1620"
"2","2","encoding","encoding","44","Clam.jpg","0","0","2000"
"2","2","encoding","encoding","45","Candy_Cane.jpg","37","0","831"
"2","2","encoding","encoding","46","Box_GiftTopView.jpg","37","0","816"
"2","2","encoding","encoding","47","PyramidWooden.jpg","37","0","504"
"2","2","encoding","encoding","48","Glasses_Reading.jpg","37","0","873"
"2","2","encoding","encoding","49","Booth_Carnival.jpg","37","0","1449"
"2","2","encoding","encoding","50","Projector_Film.jpg","0","0","2000"
"2","2","encoding","encoding","51","StockingChristmas.jpg","37","0","673"
"2","2","encoding","encoding","52","Knife_Kitchen.jpg","37","0","1863"
"2","2","encoding","encoding","53","HairScrunchie.jpg","37","0","914"
"2","2","encoding","encoding","54","Umbrella_Retractable.jpg","36","0","1295"
"2","2","encoding","encoding","55","Scrabble.jpg","37","0","845"
"2","2","encoding","encoding","56","Clip_Paper.jpg","37","0","588"
"2","2","encoding","encoding","57","AlcoholBar.jpg","37","0","637"
"2","2","encoding","encoding","58","Bowl_Wooden.jpg","37","0","701"
"2","2","encoding","encoding","59","Toy_Motorcycle.jpg","37","0","985"
"2","2","encoding","encoding","60","Fish_Swordfish.jpg","37","0","646"
"2","2","encoding","encoding","62","Tetrahedron.jpg","37","0","697"
"2","2","encoding","encoding","63","Shark_Hammerhead.jpg","37","0","664"
"2","2","encoding","encoding","64","Chest_Toys.jpg","37","0","713"
"2","2","encoding","encoding","65","Briefcase_Leather.jpg","37","0","631"
"2","2","encoding","encoding","66","Dress_Cocktail.jpg","37","0","1319"
"2","2","encoding","encoding","67","Hose_Garden.jpg","36","0","1359"
"2","2","encoding","encoding","68","CinderBlock.jpg","37","0","1414"
"2","2","encoding","encoding","69","IceCubes copy.jpg","37","0","729"
"2","2","encoding","encoding","70","Brace_Leg.jpg","37","0","731"
"2","2","encoding","encoding","71","Compressor.jpg","36","0","1534"
"2","2","encoding","encoding","72","VialLab.jpg","37","0","780"
"2","2","encoding","encoding","73","Pottery.jpg","37","0","899"
"2","2","encoding","encoding","74","Briefcase_Open.jpg","37","0","1095"
"2","2","encoding","encoding","75","Altar.jpg","37","0","1105"
"2","2","encoding","encoding","76","Kneepad.jpg","37","0","741"
"2","2","encoding","encoding","77","Scoop_IceCream.jpg","37","0","627"
"2","2","encoding","encoding","78","Bird_Parrot.jpg","37","0","606"
"2","2","encoding","encoding","79","Fortress.jpg","36","0","1326"
"2","2","encoding","encoding","80","LumiereBeautyBeast.jpg","37","0","840"
"2","2","encoding","encoding","81","Balalaika.jpg","36","0","937"
"2","2","encoding","encoding","82","Bag_Camera.jpg","37","0","802"
"2","2","encoding","encoding","83","Hippopotamus.jpg","36","0","1533"
"2","2","encoding","encoding","84","Mat_Car.jpg","0","0","2000"
"2","2","encoding","encoding","85","Toy_FigurineSwing.jpg","37","0","1407"
"2","2","encoding","encoding","86","ShakerShekere.jpg","37","0","1367"
"2","2","encoding","encoding","87","Tickets_Blank.jpg","37","0","816"
"2","2","encoding","encoding","88","Binoculars.jpg","37","0","1082"
"2","2","encoding","encoding","89","Brush_Nail.jpg","37","0","863"
"2","2","encoding","encoding","90","Van.jpg","37","0","624"
"2","2","encoding","encoding","91","Toy_BeadMaze.jpg","37","0","824"
"2","2","encoding","encoding","92","Statue_Jesus.jpg","36","0","936"
"2","2","encoding","encoding","93","MetalDetector.jpg","36","0","994"
"2","2","encoding","encoding","94","Helicopter.jpg","36","0","576"
"2","2","encoding","encoding","95","Shampoo.jpg","37","0","676"
"2","2","encoding","encoding","96","Hat_Sheriff.jpg","37","0","1272"
"2","2","encoding","encoding","97","ClothRed.jpg","37","0","1094"
"2","2","encoding","encoding","98","Toy_Truck.jpg","37","0","1064"
"2","2","encoding","encoding","99","LightBulb_Christmas.jpg","37","0","922"
"2","2","encoding","encoding","100","Toy_RockingHorseBlack.jpg","37","0","1144"
"2","2","encoding","encoding","101","Toy_WinnieThePooh.jpg","37","0","1089"
"2","2","encoding","encoding","102","Candy_Cotton.jpg","37","0","753"
"2","2","encoding","encoding","103","Toolbox_BlackOpen.jpg","37","0","873"
"2","2","encoding","encoding","104","Jug_GallonRed.jpg","37","0","1423"
"2","2","encoding","encoding","105","Belt.jpg","37","0","680"
"2","2","encoding","encoding","106","Catheter.jpg","37","0","675"
"2","2","encoding","encoding","107","Light_Siren.jpg","37","0","618"
"2","2","encoding","encoding","108","SandBagThrowGame.jpg","36","0","1195"
"2","2","encoding","encoding","109","Candle_Blue.jpg","37","0","1133"
"2","2","encoding","encoding","110","Truck_Tanker.jpg","36","0","1074"
"2","2","encoding","encoding","111","Toy_Wooden rings.jpg","37","0","1106"
"2","2","encoding","encoding","112","Baster.jpg","37","0","1681"
"2","2","encoding","encoding","113","Decoration_WallOrnament.jpg","37","0","1582"
"2","2","encoding","encoding","114","Toy_PandaPlushie.jpg","37","0","776"
"2","2","encoding","encoding","115","MetalChain.jpg","37","0","746"
"2","2","encoding","encoding","116","Mask_Viking.jpg","37","0","852"
"2","2","encoding","encoding","117","Corn_Kernels.jpg","37","0","528"
"2","2","encoding","encoding","118","Table_AntiqueWooden.jpg","36","0","840"
"2","2","encoding","encoding","119","Truck_Army.jpg","36","0","1230"
"2","2","encoding","encoding","120","Hammock.jpg","36","0","1649"
"2","2","encoding","encoding","121","House_Wooden.jpg","36","0","1395"
"2","2","encoding","encoding","123","Drum_Ramadan.jpg","0","0","2000"
"2","2","encoding","encoding","124","WaterCooler.jpg","36","0","846"
"2","2","encoding","encoding","125","Colosseum.jpg","36","0","936"
"2","2","encoding","encoding","126","BicycleWheel.jpg","36","0","841"
"2","2","encoding","encoding","127","CuttingBoard.jpg","36","0","913"
"2","2","encoding","encoding","128","Chest.jpg","36","0","589"
"2","2","encoding","encoding","129","RecorderCassette.jpg","0","0","2000"
"2","2","encoding","encoding","130","Dress_Party.jpg","0","0","2000"
"2","2","encoding","encoding","131","Phone_Military.jpg","36","0","1014"
"2","2","encoding","encoding","132","Coin.jpg","36","0","1538"
"2","2","encoding","encoding","133","DogSled.jpg","36","0","1116"
"2","2","encoding","encoding","134","Bag_Satchel.jpg","37","0","1565"
"2","2","encoding","encoding","135","Toy_Chicken.jpg","37","0","706"
"2","2","encoding","encoding","136","Sign_HumpBridgeAhead.jpg","37","0","1057"
"2","2","encoding","encoding","137","ShoppingCart.jpg","36","0","1861"
"2","2","encoding","encoding","138","FileFolder.jpg","37","0","1478"
"2","2","encoding","encoding","139","ColoringSet.jpg","37","0","1366"
"2","2","encoding","encoding","140","Speaker_OnStand.jpg","36","0","1544"
"2","2","encoding","encoding","141","GPS.jpg","37","0","1391"
"2","2","encoding","encoding","142","Torpedo.jpg","36","0","1571"
"2","2","encoding","encoding","143","Scythe.jpg","36","0","1280"
"2","2","encoding","encoding","144","Blueberry.jpg","37","0","1189"
"2","2","encoding","encoding","145","TomatoSauce.jpg","37","0","1542"
"2","2","encoding","encoding","146","ShinPads.jpg","37","0","1404"
"2","2","encoding","encoding","147","DogToy.jpg","37","0","1302"
"2","2","encoding","encoding","148","Telephone_Dial.jpg","37","0","1229"
"2","2","encoding","encoding","149","Blade_Tablesaw.jpg","37","0","945"
"2","2","encoding","encoding","150","Tickets_PrintWords.jpg","37","0","639"
"2","2","encoding","encoding","151","Boat_Colourful.jpg","37","0","1184"
"2","2","encoding","encoding","152","Swing_Porch.jpg","0","0","2000"
"2","2","encoding","encoding","153","CertificateFramed.jpg","36","0","1715"
"2","2","encoding","encoding","154","DrawingCompass.jpg","37","0","1748"
"2","2","encoding","encoding","155","Bench_Concrete.jpg","36","0","920"
"2","2","encoding","encoding","156","OvenElement.jpg","37","0","1343"
"2","2","encoding","encoding","157","Toy_LambPlushie.jpg","37","0","1554"
"2","2","encoding","encoding","158","Hookah.jpg","37","0","1669"
"2","2","encoding","encoding","159","Shrub_Cedar.jpg","36","0","1212"
"2","2","encoding","encoding","160","Cougar.jpg","36","0","1317"
"2","2","encoding","encoding","161","Bottle_Baby.jpg","37","0","930"
"2","2","encoding","encoding","162","Sign_NoParking.jpg","37","0","760"
"2","2","encoding","encoding","163","Shorts_Sports.jpg","37","0","988"
"2","2","encoding","encoding","164","Toy_WoodenPlainSingle.jpg","36","0","1019"
"2","2","encoding","encoding","165","Drum_Brazilan.jpg","36","0","836"
"2","2","encoding","encoding","166","Maraca.jpg","37","0","740"
"2","2","encoding","encoding","167","Hook_Fish.jpg","37","0","699"
"2","2","encoding","encoding","168","Lips_Real.jpg","37","0","1261"
"2","2","encoding","encoding","169","Tie.jpg","37","0","930"
"2","2","encoding","encoding","170","Camel_Bactrian.jpg","37","0","1295"
"2","2","encoding","encoding","171","Toy_Rooster.jpg","37","0","1116"
"2","2","encoding","encoding","172","PotatoMasher_Zigzag.jpg","37","0","1366"
"2","2","encoding","encoding","173","AllTerrain.jpg","0","0","2000"
"2","2","encoding","encoding","174","Steamer.jpg","37","0","1491"
"2","2","encoding","encoding","175","Knife_Hunting.jpg","37","0","953"
"2","2","encoding","encoding","176","Steeple.jpg","0","0","2000"
"2","2","encoding","encoding","177","Squash_Butternut.jpg","37","0","1358"
"2","2","retrieval","new_objects","1","Pasta_Spaghetti.jpg","37","1","1726"
"2","2","retrieval","new_objects","2","Shoes_WomenBoots.jpg","37","1","772"
"2","2","retrieval","new_objects","3","ShowerCap.jpg","37","1","920"
"2","2","retrieval","new_objects","4","Stamper.jpg","37","1","631"
"2","2","retrieval","old_objects","5","Candy_Cotton.jpg","36","1","750"
"2","2","retrieval","old_objects","6","Giraffe.jpg","36","1","580"
"2","2","retrieval","new_objects","7","Notepad_WithPen.jpg","37","1","662"
"2","2","retrieval","old_objects","8","AirVent.jpg","36","1","798"
"2","2","retrieval","new_objects","9","AirPump.jpg","37","1","751"
"2","2","retrieval","new_objects","10","Pretzel_Knot.jpg","37","1","848"
"2","2","retrieval","new_objects","11","sign_traffic.jpg","36","0","781"
"2","2","retrieval","new_objects","12","Glass_Martini.jpg","37","1","801"
"2","2","retrieval","old_objects","13","ColoringSet.jpg","36","1","919"
"2","2","retrieval","new_objects","14","Jars_PetFood.jpg","37","1","1020"
"2","2","retrieval","new_objects","15","OnionRed.jpg","37","1","1362"
"2","2","retrieval","old_objects","16","OvenElement.jpg","36","1","892"
"2","2","retrieval","old_objects","17","FloorTile.jpg","36","1","812"
"2","2","retrieval","new_objects","18","Cannister_Gas.jpg","37","1","754"
"2","2","retrieval","old_objects","19","SaltShaker.jpg","37","0","1449"
"2","2","retrieval","new_objects","20","Walker_Blue.jpg","37","1","1493"
"2","2","retrieval","old_objects","21","EyeChart.jpg","36","1","985"
"2","2","retrieval","old_objects","22","Table_AntiqueWooden.jpg","36","1","961"
"2","2","retrieval","new_objects","23","Cane_Wooden.jpg","37","1","1082"
"2","2","retrieval","new_objects","24","Phone_Flip.jpg","37","1","1469"
"2","2","retrieval","old_objects","25","Waffle.jpg","37","0","840"
"2","2","retrieval","new_objects","26","Toy_PoliceCar.jpg","37","1","853"
"2","2","retrieval","new_objects","27","CodeDoorLock.jpg","37","1","722"
"2","2","retrieval","new_objects","28","Slippers.jpg","37","1","537"
"2","2","retrieval","new_objects","29","Purse.jpg","37","1","826"
"2","2","retrieval","new_objects","30","RecordPlayer.jpg","36","0","1147"
"2","2","retrieval","old_objects","31","Hat_Sheriff.jpg","36","1","917"
"2","2","retrieval","old_objects","32","Colosseum.jpg","36","1","777"
"2","2","retrieval","old_objects","33","Steeple.jpg","36","1","946"
"2","2","retrieval","old_objects","34","Hook_Fish.jpg","36","1","652"
"2","2","retrieval","new_objects","35","Mallet.jpg","36","0","925"
"2","2","retrieval","new_objects","36","Light_Fixtures.jpg","37","1","935"
"2","2","retrieval","new_objects","37","Panda.jpg","37","1","1012"
"2","2","retrieval","new_objects","38","RAMchip.jpg","37","1","797"
"2","2","retrieval","new_objects","39","Machine_EKG.jpg","37","1","859"
"2","2","retrieval","new_objects","40","Cinnamonroll.jpg","37","1","717"
"2","2","retrieval","new_objects","41","LintRemover.jpg","37","1","820"
"2","2","retrieval","old_objects","42","Cougar.jpg","36","1","823"
"2","2","retrieval","old_objects","43","Fork_Regular.jpg","36","1","1018"
"2","2","retrieval","new_objects","44","DogTreat.jpg","36","0","1918"
"2","2","retrieval","old_objects","45","VinylRecord.jpg","37","0","638"
"2","2","retrieval","old_objects","46","Kneepad.jpg","37","0","1097"
"2","2","retrieval","new_objects","47","Mask_CPR.jpg","36","0","1334"
"2","2","retrieval","new_objects","48","Toy_SandRake.jpg","37","1","698"
"2","2","retrieval","old_objects","49","Toy_LambPlushie.jpg","37","0","1152"
"2","2","retrieval","new_objects","50","Drink_Green.jpg","37","1","1091"
"2","2","retrieval","new_objects","51","Truck_VintageBlue.jpg","37","1","823"
"2","2","retrieval","old_objects","52","Tickets_Blank.jpg","36","1","851"
"2","2","retrieval","old_objects","53","Toy_FigurineSwing.jpg","37","0","752"
"2","2","retrieval","old_objects","54","Torpedo.jpg","36","1","564"
"2","2","retrieval","old_objects","55","Booth_Carnival.jpg","37","0","773"
"2","2","retrieval","old_objects","56","Mask_Viking.jpg","36","1","727"
"2","2","retrieval","old_objects","57","Dragonfly.jpg","36","1","843"
"2","2","retrieval","new_objects","58","Seahorse.jpg","37","1","627"
"2","2","retrieval","new_objects","59","Chopsticks.jpg","37","1","582"
"2","2","retrieval","new_objects","60","DoorBell.jpg","37","1","1146"
"2","2","retrieval","old_objects","62","Taco.jpg","36","1","825"
"2","2","retrieval","old_objects","63","Briefcase_Open.jpg","37","0","669"
"2","2","retrieval","new_objects","64","Bird_Eagle.jpg","36","0","838"
"2","2","retrieval","new_objects","65","Clave.jpg","36","0","996"
"2","2","retrieval","old_objects","66","Chest.jpg","36","1","522"
"2","2","retrieval","new_objects","67","Can_Olives.jpg","37","1","794"
"2","2","retrieval","new_objects","68","ProcessorFood_Old.jpg","37","1","567"
"2","2","retrieval","new_objects","69","Lunchbox.jpg","37","1","641"
"2","2","retrieval","old_objects","70","Maraca.jpg","36","1","806"
"2","2","retrieval","old_objects","71","ClothRed.jpg","36","1","740"
"2","2","retrieval","new_objects","72","ColumnMarble.jpg","37","1","560"
"2","2","retrieval","old_objects","73","Speaker_OnStand.jpg","36","1","656"
"2","2","retrieval","old_objects","74","Shield_Antique.jpg","36","1","841"
"2","2","retrieval","old_objects","75","Toy_BeadMaze.jpg","36","1","737"
"2","2","retrieval","new_objects","76","PencilSharpener.jpg","37","1","581"
"2","2","retrieval","old_objects","77","Bird_Parrot.jpg","36","1","580"
"2","2","retrieval","old_objects","78","WaterCooler.jpg","36","1","574"
"2","2","retrieval","old_objects","79","Clip_Paper.jpg","37","0","793"
"2","2","retrieval","old_objects","80","CinderBlock.jpg","36","1","540"
"2","2","retrieval","old_objects","81","Toy_RockingHorseBlack.jpg","37","0","570"
"2","2","retrieval","old_objects","82","SandBagThrowGame.jpg","37","0","653"
"2","2","retrieval","new_objects","83","Thermos_MetalSleek.jpg","37","1","1017"
"2","2","retrieval","old_objects","84","Helicopter.jpg","36","1","572"
"2","2","retrieval","old_objects","85","Drum_Brazilan.jpg","36","1","701"
"2","2","retrieval","new_objects","86","Cauliflower.jpg","37","1","681"
"2","2","retrieval","new_objects","87","Milkshake_StrawberryStraw.jpg","37","1","788"
"2","2","retrieval","new_objects","88","Deodorant.jpg","37","1","1023"
"2","2","retrieval","old_objects","89","AllTerrain.jpg","36","1","939"
"2","2","retrieval","old_objects","90","Bindings_Snowboard.jpg","36","1","673"
"2","2","retrieval","new_objects","91","Toy_Top.jpg","37","1","642"
"2","2","retrieval","old_objects","92","Jug_GallonRed.jpg","37","0","931"
"2","2","retrieval","new_objects","93","RickShaw.jpg","37","1","695"
"2","2","retrieval","old_objects","94","AlcoholBar.jpg","37","0","756"
"2","2","retrieval","new_objects","95","Brush_Shoe.jpg","37","1","598"
"2","2","retrieval","old_objects","96","Swing_Porch.jpg","37","0","908"
"2","2","retrieval","old_objects","97","Table_Picnic.jpg","36","1","845"
"2","2","retrieval","old_objects","98","Tickets_PrintWords.jpg","36","1","735"
"2","2","retrieval","new_objects","99","SofaAntique.jpg","37","1","606"
"2","2","retrieval","new_objects","100","Loofa.jpg","37","1","556"
"2","2","retrieval","new_objects","101","Thermostat_Digital.jpg","37","1","744"
"2","2","retrieval","new_objects","102","Sculpture_MetalMan.jpg","37","1","628"
"2","2","retrieval","new_objects","103","Monitor.jpg","37","1","579"
"2","2","retrieval","old_objects","104","Scrabble.jpg","36","1","770"
"2","2","retrieval","old_objects","105","Sign_HumpBridgeAhead.jpg","37","0","511"
"2","2","retrieval","old_objects","106","Toolbox_BlackOpen.jpg","36","1","652"
"2","2","retrieval","new_objects","107","Origami_Boat.jpg","37","1","584"
"2","2","retrieval","new_objects","108","Peach.jpg","37","1","638"
"2","2","retrieval","new_objects","109","Lantern_Tea.jpg","37","1","508"
"2","2","retrieval","old_objects","110","Brace_Leg.jpg","36","1","1162"
"2","2","retrieval","old_objects","111","Glasses_Reading.jpg","36","1","896"
"2","2","retrieval","old_objects","112","MetalChain.jpg","36","1","802"
"2","2","retrieval","old_objects","113","Chimpanzee.jpg","36","1","1059"
"2","2","retrieval","new_objects","114","Boardgame_Chess.jpg","37","1","1339"
"2","2","retrieval","old_objects","115","Dress_Party.jpg","36","1","748"
"2","2","retrieval","new_objects","116","Exercise_Stretch.jpg","37","1","939"
"2","2","retrieval","new_objects","117","Toy_DonkeyFur.jpg","37","1","991"
"2","2","retrieval","new_objects","118","Acorn.jpg","37","1","753"
"2","2","retrieval","new_objects","119","Mitt_Blue.jpg","37","1","587"
"2","2","retrieval","old_objects","120","Nuts_PeanutsPeeled.jpg","36","1","891"
"2","2","retrieval","old_objects","121","Hookah.jpg","36","1","916"
"2","2","retrieval","new_objects","123","CarJack.jpg","37","1","972"
"2","2","retrieval","new_objects","124","Ball_8.jpg","37","1","625"
"2","2","retrieval","new_objects","125","Sushi.jpg","37","1","918"
"2","2","retrieval","old_objects","126","DrawingCompass.jpg","37","0","909"
"2","2","retrieval","new_objects","127","Mask_HockeyGoalie.jpg","37","1","933"
"2","2","retrieval","old_objects","128","ShoppingCart.jpg","36","1","1000"
"2","2","retrieval","old_objects","129","TrapAnimal.jpg","36","1","1036"
"2","2","retrieval","old_objects","130","Bowl_Wooden.jpg","37","0","987"
"2","2","retrieval","old_objects","131","ShinPads.jpg","37","0","975"
"2","2","retrieval","old_objects","132","Toy_Chicken.jpg","36","1","1047"
"2","2","retrieval","old_objects","133","HairScrunchie.jpg","36","1","731"
"2","2","retrieval","old_objects","134","Truck_Army.jpg","37","0","717"
"2","2","retrieval","old_objects","135","Box_WoodenOpen.jpg","36","1","793"
"2","2","retrieval","new_objects","136","DoubleBass.jpg","37","1","769"
"2","2","retrieval","old_objects","137","Umbrella_Retractable.jpg","36","1","792"
"2","2","retrieval","new_objects","138","Grape.jpg","37","1","972"
"2","2","retrieval","old_objects","139","Belt.jpg","37","0","725"
"2","2","retrieval","old_objects","140","Drum_Ramadan.jpg","36","1","651"
"2","2","retrieval","old_objects","141","Knife_Hunting.jpg","36","1","1103"
"2","2","retrieval","new_objects","142","SoundMixer_White.jpg","37","1","824"
"2","2","retrieval","new_objects","143","Balcony.jpg","37","1","909"
"2","2","retrieval","old_objects","144","LightBulb_Blue.jpg","36","1","880"
"2","2","retrieval","old_objects","145","Radio_Antique.jpg","37","0","760"
"2","2","retrieval","new_objects","146","Igloo.jpg","37","1","853"
"2","2","retrieval","old_objects","147","Compressor.jpg","36","1","865"
"2","2","retrieval","old_objects","148","Toy_WoodenPlainSingle.jpg","36","1","823"
"2","2","retrieval","old_objects","149","DogSled.jpg","36","1","1052"
"2","2","retrieval","new_objects","150","Shark_GreatWhite.jpg","37","1","827"
"2","2","retrieval","new_objects","151","Plate_Ceramic.jpg","37","1","937"
"2","2","retrieval","new_objects","152","Bus_DoubleDecker.jpg","37","1","669"
"2","2","retrieval","old_objects","153","House_Wooden.jpg","36","1","1169"
"2","2","retrieval","new_objects","154","Tube.jpg","37","1","846"
"2","2","retrieval","new_objects","155","Toy_Alien.jpg","37","1","717"
"2","2","retrieval","old_objects","156","Light_Siren.jpg","37","0","1000"
"2","2","retrieval","old_objects","157","Toy_WinnieThePooh.jpg","36","1","786"
"2","2","retrieval","old_objects","158","Phone_Military.jpg","37","0","800"
"2","2","retrieval","old_objects","159","Balalaika.jpg","37","0","667"
"2","2","retrieval","new_objects","160","Stick_Drum.jpg","37","1","976"
"2","2","retrieval","old_objects","161","PyramidWooden.jpg","37","0","748"
"2","2","retrieval","old_objects","162","IceCubes copy.jpg","36","1","692"
"2","2","retrieval","old_objects","163","Clam.jpg","36","1","1178"
"2","2","retrieval","new_objects","164","Leg.jpg","37","1","1272"
"2","2","retrieval","new_objects","165","CDstack.jpg","37","1","621"
"2","2","retrieval","old_objects","166","Camel_Bactrian.jpg","0","0","2000"
"2","2","retrieval","new_objects","167","BakingDish.jpg","37","1","1919"
"2","2","retrieval","old_objects","168","Bench_Concrete.jpg","36","1","989"
"2","2","retrieval","new_objects","169","Boar.jpg","37","1","846"
"2","2","retrieval","new_objects","170","Cucumber.jpg","37","1","1926"
"2","2","retrieval","old_objects","171","TomatoSauce.jpg","37","0","824"
"2","2","retrieval","new_objects","172","Bird_Cardinal.jpg","37","1","1119"
"2","2","retrieval","new_objects","173","Ladybug.jpg","37","1","1695"
"2","2","retrieval","new_objects","174","Hottub.jpg","37","1","786"
"2","2","retrieval","old_objects","175","Steamer.jpg","37","0","1034"
"2","2","retrieval","new_objects","176","FileDivider.jpg","37","1","1529"
"2","2","retrieval","new_objects","177","Canteen.jpg","37","1","778"
"2","2","retrieval","new_objects","178","Exercise_HandTrainer.jpg","37","1","704"
"2","2","retrieval","old_objects","179","Box_GiftTopView.jpg","37","0","729"
"2","2","retrieval","old_objects","180","Scythe.jpg","37","0","1234"
"2","2","retrieval","new_objects","181","Pot_CastIron.jpg","37","1","748"
"2","2","retrieval","old_objects","182","Candy_Cane.jpg","37","0","714"
"2","2","retrieval","new_objects","184","Hand.jpg","37","1","1642"
"2","2","retrieval","old_objects","185","Projector_Film.jpg","36","1","843"
"2","2","retrieval","new_objects","186","Box_Staples.jpg","37","1","620"
"2","2","retrieval","new_objects","187","Defribrillator.jpg","37","1","692"
"2","2","retrieval","new_objects","188","Pants_Jeans.jpg","37","1","570"
"2","2","retrieval","new_objects","189","ContactLens.jpg","37","1","453"
"2","2","retrieval","old_objects","190","BicycleWheel.jpg","37","0","713"
"2","2","retrieval","new_objects","191","Cord_Ethernet.jpg","37","1","613"
"2","2","retrieval","new_objects","192","Mat_Door.jpg","37","1","616"
"2","2","retrieval","new_objects","193","PeasSplit.jpg","37","1","658"
"2","2","retrieval","old_objects","194","Boat_Colourful.jpg","37","0","652"
"2","2","retrieval","new_objects","195","Stick_Stirring.jpg","37","1","632"
"2","2","retrieval","new_objects","196","Truck_Pickup.jpg","37","1","835"
"2","2","retrieval","old_objects","197","Knife_Kitchen.jpg","37","0","1079"
"2","2","retrieval","new_objects","198","Stone_Mill.jpg","37","1","840"
"2","2","retrieval","old_objects","199","Bottle_Baby.jpg","37","0","559"
"2","2","retrieval","old_objects","200","ShakerShekere.jpg","36","1","1062"
"2","2","retrieval","old_objects","201","Toy_Motorcycle.jpg","37","0","828"
"2","2","retrieval","new_objects","202","Generator.jpg","37","1","763"
"2","2","retrieval","new_objects","203","TeethMould.jpg","37","1","986"
"2","2","retrieval","new_objects","204","Bowl_Cereal.jpg","37","1","661"
"2","2","retrieval","new_objects","205","EyeExamDevice.jpg","37","1","767"
"2","2","retrieval","old_objects","206","Corn.jpg","37","0","949"
"2","2","retrieval","new_objects","207","HairClip.jpg","37","1","598"
"2","2","retrieval","new_objects","208","Cabinet_Display.jpg","37","1","1066"
"2","2","retrieval","new_objects","209","Jacket_Suit.jpg","37","1","745"
"2","2","retrieval","new_objects","210","Candy_Caramel.jpg","37","1","836"
"2","2","retrieval","new_objects","211","Fridge.jpg","37","1","791"
"2","2","retrieval","new_objects","212","Bird_Peacock.jpg","37","1","953"
"2","2","retrieval","old_objects","213","Bag_Satchel.jpg","37","0","538"
"2","2","retrieval","new_objects","214","Keys_Bunch.jpg","37","1","1106"
"2","2","retrieval","new_objects","215","Beaker.jpg","37","1","727"
"2","2","retrieval","old_objects","216","SolderingWire.jpg","37","0","546"
"2","2","retrieval","new_objects","217","Booties_Blue.jpg","37","1","718"
"2","2","retrieval","old_objects","218","Mailbox_Community.jpg","37","0","506"
"2","2","retrieval","old_objects","219","Chest_Toys.jpg","37","0","694"
"2","2","retrieval","old_objects","220","Shrub_Cedar.jpg","36","1","1281"
"2","2","retrieval","old_objects","221","Branches_Campfire.jpg","0","0","2000"
"2","2","retrieval","new_objects","222","Cork.jpg","37","1","1062"
"2","2","retrieval","new_objects","223","Plate_Decorative.jpg","37","1","724"
"2","2","retrieval","new_objects","224","Mirror_Carside.jpg","37","1","612"
"2","2","retrieval","new_objects","225","Cart_Wooden.jpg","37","1","567"
"2","2","retrieval","old_objects","226","Catheter.jpg","37","0","519"
"2","2","retrieval","new_objects","227","ComputerKeyboard_Backspace.jpg","37","1","653"
"2","2","retrieval","new_objects","228","Candy_Toffee.jpg","37","1","823"
"2","2","retrieval","old_objects","229","Binoculars.jpg","36","1","720"
"2","2","retrieval","new_objects","230","SelfieStick.jpg","37","1","464"
"2","2","retrieval","new_objects","231","Chair_Deck.jpg","37","1","477"
"2","2","retrieval","old_objects","232","Altar.jpg","37","0","462"
"2","2","retrieval","old_objects","233","Shorts_Sports.jpg","37","0","544"
"2","2","retrieval","old_objects","234","CuttingBoard.jpg","36","1","648"
"2","2","retrieval","old_objects","235","GPS.jpg","36","1","1010"
"2","2","retrieval","new_objects","236","Domino.jpg","37","1","622"
"2","2","retrieval","new_objects","237","ChewingGum.jpg","37","1","746"
"2","2","retrieval","new_objects","238","Chair_Airplane.jpg","37","1","663"
"2","2","retrieval","old_objects","239","Organ.jpg","36","1","841"
"2","2","retrieval","old_objects","240","Stapler_Gun.jpg","37","0","774"
"2","2","retrieval","old_objects","241","StockingChristmas.jpg","36","1","861"
"2","2","retrieval","new_objects","242","Car_Buggy.jpg","37","1","828"
"2","2","retrieval","old_objects","243","Van.jpg","37","0","1192"
"2","2","retrieval","new_objects","245","Ball_Disco.jpg","37","1","764"
"2","2","retrieval","new_objects","246","CapGraduation.jpg","37","1","525"
"2","2","retrieval","old_objects","247","Grill_Electric.jpg","37","0","653"
"2","2","retrieval","new_objects","248","Flask_Metal.jpg","37","1","755"
"2","2","retrieval","old_objects","249","Sandwich_Egg.jpg","37","0","667"
"2","2","retrieval","new_objects","250","Brace_Back.jpg","37","1","736"
"2","2","retrieval","old_objects","251","Accordion.jpg","37","0","864"
"2","2","retrieval","old_objects","252","Pottery.jpg","37","0","759"
"2","2","retrieval","new_objects","253","Nail.jpg","37","1","691"
"2","2","retrieval","new_objects","254","Drill.jpg","37","1","740"
"2","2","retrieval","new_objects","255","Spoon_WoodenLight.jpg","37","1","753"
"2","2","retrieval","old_objects","256","Box_FirstAid.jpg","36","1","796"
"2","2","retrieval","old_objects","257","DogToy.jpg","36","1","1141"
"2","2","retrieval","new_objects","258","Sign_Washroom.jpg","37","1","623"
"2","2","retrieval","old_objects","259","PotatoMasher_Zigzag.jpg","37","0","634"
"2","2","retrieval","new_objects","260","Towel.jpg","37","1","797"
"2","2","retrieval","old_objects","261","Bell_Hand.jpg","37","0","647"
"2","2","retrieval","new_objects","262","AngleGrinder.jpg","37","1","941"
"2","2","retrieval","old_objects","263","Honeycomb.jpg","36","1","1145"
"2","2","retrieval","old_objects","264","Decoration_WallOrnament.jpg","36","1","897"
"2","2","retrieval","new_objects","265","DartBoard.jpg","37","1","657"
"2","2","retrieval","new_objects","266","Box_Present.jpg","37","1","720"
"2","2","retrieval","old_objects","267","Toy_PandaPlushie.jpg","36","1","774"
"2","2","retrieval","old_objects","268","Tree_Fir.jpg","37","0","838"
"2","2","retrieval","old_objects","269","Spoons_Musical.jpg","37","0","922"
"2","2","retrieval","old_objects","270","Lips_Real.jpg","36","1","810"
"2","2","retrieval","old_objects","271","Telephone_Dial.jpg","37","0","661"
"2","2","retrieval","new_objects","272","Bellows.jpg","37","1","762"
"2","2","retrieval","new_objects","273","Printer.jpg","37","1","1073"
"2","2","retrieval","old_objects","274","Tie.jpg","36","1","726"
"2","2","retrieval","old_objects","275","Instrument_African.jpg","37","0","742"
"2","2","retrieval","old_objects","276","Dress_Cocktail.jpg","36","1","941"
"2","2","retrieval","old_objects","277","FileFolder.jpg","37","0","1490"
"2","2","retrieval","old_objects","278","Truck_Tanker.jpg","37","0","845"
"2","2","retrieval","old_objects","279","Squash_Butternut.jpg","37","0","741"
"2","2","retrieval","new_objects","280","Tomato.jpg","37","1","824"
"2","2","retrieval","new_objects","281","Pepper_Chili.jpg","37","1","725"
"2","2","retrieval","old_objects","282","Baster.jpg","36","1","785"
"2","2","retrieval","new_objects","283","Ambulance.jpg","37","1","670"
"2","2","retrieval","new_objects","284","Comb_1.jpg","37","1","756"
"2","2","retrieval","new_objects","285","Fryingpan.jpg","37","1","770"
"2","2","retrieval","old_objects","286","Jack.jpg","36","1","1547"
"2","2","retrieval","old_objects","287","Fish_Swordfish.jpg","36","1","1070"
"2","2","retrieval","old_objects","288","LightBulb_Christmas.jpg","37","0","872"
"2","2","retrieval","new_objects","289","Sand.jpg","37","1","946"
"2","2","retrieval","new_objects","290","Sign_Parking.jpg","37","1","748"
"2","2","retrieval","old_objects","291","Mat_Car.jpg","36","1","1234"
"2","2","retrieval","old_objects","292","Toy_Wooden rings.jpg","37","0","1122"
"2","2","retrieval","old_objects","293","MetalDetector.jpg","37","0","1007"
"2","2","retrieval","new_objects","294","Bottle_Beer.jpg","37","1","765"
"2","2","retrieval","old_objects","295","Hawk.jpg","36","1","1214"
"2","2","retrieval","old_objects","296","Corn_Kernels.jpg","37","0","1155"
"2","2","retrieval","old_objects","297","Scoop_IceCream.jpg","37","0","1461"
"2","2","retrieval","old_objects","298","Shampoo.jpg","37","0","889"
"2","2","retrieval","old_objects","299","Fortress.jpg","36","1","1001"
"2","2","retrieval","old_objects","300","Briefcase_Leather.jpg","36","1","1385"
"2","2","retrieval","new_objects","301","Bread_Loaf.jpg","37","1","865"
"2","2","retrieval","old_objects","302","Blade_Tablesaw.jpg","37","0","743"
"2","2","retrieval","new_objects","303","Pot_FlowerClay.jpg","37","1","734"
"2","2","retrieval","new_objects","304","Shoes_Sneakers.jpg","37","1","734"
"2","2","retrieval","old_objects","306","Book_Paper.jpg","37","0","898"
"2","2","retrieval","new_objects","307","Bread_Roll.jpg","37","1","1039"
"2","2","retrieval","old_objects","308","Pliers_ViceGrip.jpg","37","0","565"
"2","2","retrieval","new_objects","309","Apple_RedAndGreen.jpg","37","1","769"
"2","2","retrieval","old_objects","310","Statue_Jesus.jpg","37","0","1176"
"2","2","retrieval","old_objects","311","Garbage_Can.jpg","36","1","1037"
"2","2","retrieval","new_objects","312","Mask_Masquerade.jpg","37","1","732"
"2","2","retrieval","new_objects","313","Shoe_WomenHeals.jpg","37","1","668"
"2","2","retrieval","new_objects","314","Brush_BathBack.jpg","37","1","534"
"2","2","retrieval","new_objects","315","Toy_JackInTheBox.jpg","37","1","488"
"2","2","retrieval","new_objects","316","Helmet_Soldier.jpg","37","1","578"
"2","2","retrieval","new_objects","317","CoffeeGrinder.jpg","37","1","522"
"2","2","retrieval","old_objects","318","Hippopotamus.jpg","37","0","455"
"2","2","retrieval","new_objects","319","Pasta_Fusilli.jpg","37","1","561"
"2","2","retrieval","old_objects","320","ButterDish.jpg","37","0","578"
"2","2","retrieval","old_objects","321","DVDPlayer.jpg","37","0","422"
"2","2","retrieval","new_objects","322","Heelpad.jpg","37","1","516"
"2","2","retrieval","old_objects","323","Toy_Truck.jpg","37","0","446"
"2","2","retrieval","new_objects","324","Escalator.jpg","37","1","597"
"2","2","retrieval","new_objects","325","Bible.jpg","37","1","620"
"2","2","retrieval","old_objects","326","Candle_Blue.jpg","37","0","631"
"2","2","retrieval","old_objects","327","Tetrahedron.jpg","37","0","510"
"2","2","retrieval","new_objects","328","BumperCar.jpg","37","1","679"
"2","2","retrieval","old_objects","329","RecorderCassette.jpg","37","0","886"
"2","2","retrieval","new_objects","330","Kebab_Meat.jpg","37","1","611"
"2","2","retrieval","old_objects","331","Sign_NoParking.jpg","37","0","639"
"2","2","retrieval","old_objects","332","Blueberry.jpg","37","0","693"
"2","2","retrieval","old_objects","333","Hammer_Reflex.jpg","37","0","566"
"2","2","retrieval","old_objects","334","Coin.jpg","36","1","586"
"2","2","retrieval","old_objects","335","Shark_Hammerhead.jpg","36","1","562"
"2","2","retrieval","new_objects","336","Dynamite.jpg","37","1","608"
"2","2","retrieval","old_objects","337","LumiereBeautyBeast.jpg","37","0","497"
"2","2","retrieval","old_objects","338","CertificateFramed.jpg","36","1","834"
"2","2","retrieval","old_objects","339","VialLab.jpg","36","1","728"
"2","2","retrieval","old_objects","340","Brush_Nail.jpg","37","0","714"
"2","2","retrieval","new_objects","341","Outhouse.jpg","37","1","636"
"2","2","retrieval","old_objects","342","Hammock.jpg","37","0","926"
"2","2","retrieval","new_objects","343","Cup_Styrofoam.jpg","37","1","569"
"2","2","retrieval","new_objects","344","Pasta_Macaroni.jpg","37","1","676"
"2","2","retrieval","new_objects","345","Lantern_TeaBox.jpg","37","1","450"
"2","2","retrieval","new_objects","346","Chair_Office.jpg","37","1","692"
"2","2","retrieval","new_objects","347","BrainSagittal.jpg","37","1","633"
"2","2","retrieval","old_objects","348","Bag_Camera.jpg","37","0","686"
"2","2","retrieval","old_objects","349","Hose_Garden.jpg","37","0","610"
"2","2","retrieval","new_objects","350","Fence_Wooden.jpg","37","1","686"
"2","2","retrieval","new_objects","351","IceCream_Popsicle.jpg","37","1","694"
"2","2","retrieval","new_objects","352","Barbecue_Charcoal.jpg","37","1","829"
"2","2","retrieval","old_objects","353","Toy_Rooster.jpg","37","0","809"
"2","2","retrieval","old_objects","354","SlideViewer.jpg","37","0","718"
"2","2","retrieval","new_objects","355","CasketOpen.jpg","37","1","1084"
"2","2","demographics_block","gender","1","CasketOpen.jpg","male","1","17160"
"2","2","demographics_block","age","1","CasketOpen.jpg","25","1","17160"
"2","2","demographics_block","education","1","CasketOpen.jpg","College","1","17160"
"2","2","demographics_block","left_right_handed","2","CasketOpen.jpg","Right","1","15406"
"2","2","demographics_block","raceoption1","2","CasketOpen.jpg","0","1","15406"
"2","2","demographics_block","raceoption2","2","CasketOpen.jpg","","1","15406"
"2","2","demographics_block","raceoption3","2","CasketOpen.jpg","","1","15406"
"2","2","demographics_block","raceoption4","2","CasketOpen.jpg","","1","15406"
"2","2","demographics_block","raceoption5","2","CasketOpen.jpg","","1","15406"
"2","2","demographics_block","raceoption6","2","CasketOpen.jpg","","1","15406"
"2","2","demographics_block","raceoption7","2","CasketOpen.jpg","","1","15406"
"2","2","demographics_block","raceoption8","2","CasketOpen.jpg","","1","15406"
"2","2","demographics_block","raceoption9","2","CasketOpen.jpg","","1","15406"
"2","2","demographics_block","raceother","2","CasketOpen.jpg","","1","15406"
"2","2","demographics_block","raceother","2","CasketOpen.jpg","","1","15406"
"2","2","demographics_block","english_language","2","CasketOpen.jpg","Yes","1","15406"
"2","2","demographics_block","english_languageother","2","CasketOpen.jpg","","1","15406"
"2","2","demographics_block","eyesight","3","CasketOpen.jpg","Yes","1","13430"
"2","2","demographics_block","colorblind","3","CasketOpen.jpg","No","1","13430"
"2","2","worker_id_block","worker_id_textbox","1","CasketOpen.jpg","A3MHKFOJIXO7QN","1","27354"
"3","3","encoding","encoding","1","Bindings_Snowboard.jpg","37","0","1522"
"3","3","encoding","encoding","2","HairScrunchie.jpg","37","0","1050"
"3","3","encoding","encoding","3","Mat_Car.jpg","36","0","1788"
"3","3","encoding","encoding","4","ButterDish.jpg","37","0","963"
"3","3","encoding","encoding","5","Camel_Bactrian.jpg","36","0","725"
"3","3","encoding","encoding","6","Hook_Fish.jpg","37","0","801"
"3","3","encoding","encoding","7","Tetrahedron.jpg","37","0","813"
"3","3","encoding","encoding","8","Decoration_WallOrnament.jpg","36","0","1175"
"3","3","encoding","encoding","9","Branches_Campfire.jpg","36","0","949"
"3","3","encoding","encoding","10","Fork_Regular.jpg","37","0","685"
"3","3","encoding","encoding","11","AllTerrain.jpg","36","0","661"
"3","3","encoding","encoding","12","Spoons_Musical.jpg","37","0","782"
"3","3","encoding","encoding","13","LightBulb_Christmas.jpg","37","0","795"
"3","3","encoding","encoding","14","Toy_Wooden rings.jpg","36","0","1309"
"3","3","encoding","encoding","15","Jug_GallonRed.jpg","36","0","715"
"3","3","encoding","encoding","16","Sign_HumpBridgeAhead.jpg","36","0","1361"
"3","3","encoding","encoding","17","SaltShaker.jpg","37","0","708"
"3","3","encoding","encoding","18","Hat_Sheriff.jpg","36","0","1074"
"3","3","encoding","encoding","19","Tickets_PrintWords.jpg","37","0","666"
"3","3","encoding","encoding","20","TomatoSauce.jpg","37","0","1103"
"3","3","encoding","encoding","21","Speaker_OnStand.jpg","36","0","738"
"3","3","encoding","encoding","22","Tie.jpg","37","0","879"
"3","3","encoding","encoding","23","Instrument_African.jpg","37","0","1501"
"3","3","encoding","encoding","24","Hippopotamus.jpg","36","0","662"
"3","3","encoding","encoding","25","Statue_Jesus.jpg","36","0","734"
"3","3","encoding","encoding","26","SolderingWire.jpg","36","0","1258"
"3","3","encoding","encoding","27","Candle_Blue.jpg","37","0","651"
"3","3","encoding","encoding","28","Toy_Rooster.jpg","36","0","1207"
"3","3","encoding","encoding","29","Box_WoodenOpen.jpg","37","0","891"
"3","3","encoding","encoding","30","Balalaika.jpg","36","0","858"
"3","3","encoding","encoding","31","Sign_NoParking.jpg","36","0","1042"
"3","3","encoding","encoding","32","Steamer.jpg","37","0","1106"
"3","3","encoding","encoding","33","Truck_Army.jpg","36","0","737"
"3","3","encoding","encoding","34","VinylRecord.jpg","37","0","1640"
"3","3","encoding","encoding","35","Squash_Butternut.jpg","37","0","1081"
"3","3","encoding","encoding","36","ShinPads.jpg","36","0","1323"
"3","3","encoding","encoding","37","Mailbox_Community.jpg","36","0","1007"
"3","3","encoding","encoding","38","Chimpanzee.jpg","36","0","871"
"3","3","encoding","encoding","39","Projector_Film.jpg","36","0","1054"
"3","3","encoding","encoding","40","House_Wooden.jpg","36","0","715"
"3","3","encoding","encoding","41","DogToy.jpg","37","0","873"
"3","3","encoding","encoding","42","BicycleWheel.jpg","36","0","737"
"3","3","encoding","encoding","43","PotatoMasher_Zigzag.jpg","37","0","886"
"3","3","encoding","encoding","44","Shampoo.jpg","37","0","854"
"3","3","encoding","encoding","45","Maraca.jpg","37","0","1137"
"3","3","encoding","encoding","46","Tree_Fir.jpg","36","0","650"
"3","3","encoding","encoding","47","Stapler_Gun.jpg","37","0","1163"
"3","3","encoding","encoding","48","RecorderCassette.jpg","37","0","1028"
"3","3","encoding","encoding","49","Organ.jpg","36","0","763"
"3","3","encoding","encoding","50","Blueberry.jpg","37","0","800"
"3","3","encoding","encoding","51","CertificateFramed.jpg","37","0","1306"
"3","3","encoding","encoding","52","Scoop_IceCream.jpg","37","0","963"
"3","3","encoding","encoding","53","StockingChristmas.jpg","37","0","984"
"3","3","encoding","encoding","54","Corn.jpg","37","0","1085"
"3","3","encoding","encoding","55","Clam.jpg","37","0","861"
"3","3","encoding","encoding","56","TrapAnimal.jpg","37","0","1400"
"3","3","encoding","encoding","57","Toy_WoodenPlainSingle.jpg","37","0","1178"
"3","3","encoding","encoding","58","Hookah.jpg","36","0","681"
"3","3","encoding","encoding","59","Van.jpg","36","0","648"
"3","3","encoding","encoding","60","Garbage_Can.jpg","36","0","839"
"3","3","encoding","encoding","62","ColoringSet.jpg","36","0","1468"
"3","3","encoding","encoding","63","Torpedo.jpg","37","0","767"
"3","3","encoding","encoding","64","Phone_Military.jpg","36","0","1096"
"3","3","encoding","encoding","65","Chest_Toys.jpg","36","0","921"
"3","3","encoding","encoding","66","Pottery.jpg","36","0","1509"
"3","3","encoding","encoding","67","Toy_Chicken.jpg","37","0","825"
"3","3","encoding","encoding","68","Waffle.jpg","37","0","1025"
"3","3","encoding","encoding","69","Baster.jpg","37","0","855"
"3","3","encoding","encoding","70","Toolbox_BlackOpen.jpg","36","0","1366"
"3","3","encoding","encoding","71","Bowl_Wooden.jpg","37","0","1165"
"3","3","encoding","encoding","72","Dress_Cocktail.jpg","37","0","882"
"3","3","encoding","encoding","73","ClothRed.jpg","37","0","1119"
"3","3","encoding","encoding","74","CuttingBoard.jpg","37","0","939"
"3","3","encoding","encoding","75","Hammock.jpg","36","0","932"
"3","3","encoding","encoding","76","Cougar.jpg","36","0","794"
"3","3","encoding","encoding","77","Scrabble.jpg","37","0","1288"
"3","3","encoding","encoding","78","Fish_Swordfish.jpg","36","0","1009"
"3","3","encoding","encoding","79","Glasses_Reading.jpg","37","0","986"
"3","3","encoding","encoding","80","Catheter.jpg","37","0","1230"
"3","3","encoding","encoding","81","Bird_Parrot.jpg","37","0","1059"
"3","3","encoding","encoding","82","Light_Siren.jpg","36","0","1255"
"3","3","encoding","encoding","83","Bell_Hand.jpg","37","0","864"
"3","3","encoding","encoding","84","Bag_Satchel.jpg","36","0","1134"
"3","3","encoding","encoding","85","Knife_Kitchen.jpg","37","0","725"
"3","3","encoding","encoding","86","Toy_Motorcycle.jpg","37","0","1902"
"3","3","encoding","encoding","87","DVDPlayer.jpg","36","0","906"
"3","3","encoding","encoding","88","PyramidWooden.jpg","37","0","1689"
"3","3","encoding","encoding","89","Shrub_Cedar.jpg","36","0","921"
"3","3","encoding","encoding","90","Colosseum.jpg","36","0","924"
"3","3","encoding","encoding","91","SandBagThrowGame.jpg","36","0","1090"
"3","3","encoding","encoding","92","Drum_Brazilan.jpg","36","0","983"
"3","3","encoding","encoding","93","LightBulb_Blue.jpg","37","0","724"
"3","3","encoding","encoding","94","Honeycomb.jpg","37","0","1137"
"3","3","encoding","encoding","95","Bag_Camera.jpg","37","0","1456"
"3","3","encoding","encoding","96","Giraffe.jpg","36","0","645"
"3","3","encoding","encoding","97","MetalDetector.jpg","36","0","952"
"3","3","encoding","encoding","98","Steeple.jpg","36","0","849"
"3","3","encoding","encoding","99","Dragonfly.jpg","37","0","713"
"3","3","encoding","encoding","100","Box_FirstAid.jpg","37","0","1209"
"3","3","encoding","encoding","101","Coin.jpg","37","0","933"
"3","3","encoding","encoding","102","Shorts_Sports.jpg","37","0","1020"
"3","3","encoding","encoding","103","Bench_Concrete.jpg","36","0","795"
"3","3","encoding","encoding","104","Toy_LambPlushie.jpg","37","0","1164"
"3","3","encoding","encoding","105","Candy_Cane.jpg","37","0","834"
"3","3","encoding","encoding","106","Toy_FigurineSwing.jpg","37","0","1112"
"3","3","encoding","encoding","107","Knife_Hunting.jpg","37","0","1037"
"3","3","encoding","encoding","108","Hawk.jpg","36","0","1136"
"3","3","encoding","encoding","109","Telephone_Dial.jpg","37","0","1756"
"3","3","encoding","encoding","110","Shark_Hammerhead.jpg","36","0","905"
"3","3","encoding","encoding","111","Mask_Viking.jpg","36","0","1180"
"3","3","encoding","encoding","112","Bottle_Baby.jpg","37","0","856"
"3","3","encoding","encoding","113","Radio_Antique.jpg","36","0","1162"
"3","3","encoding","encoding","114","Toy_PandaPlushie.jpg","36","0","1400"
"3","3","encoding","encoding","115","SlideViewer.jpg","37","0","1408"
"3","3","encoding","encoding","116","Lips_Real.jpg","37","0","1001"
"3","3","encoding","encoding","117","Accordion.jpg","36","0","984"
"3","3","encoding","encoding","118","Taco.jpg","37","0","880"
"3","3","encoding","encoding","119","Truck_Tanker.jpg","36","0","816"
"3","3","encoding","encoding","120","ShakerShekere.jpg","37","0","1394"
"3","3","encoding","encoding","121","Kneepad.jpg","37","0","986"
"3","3","encoding","encoding","123","Brace_Leg.jpg","37","0","1083"
"3","3","encoding","encoding","124","MetalChain.jpg","37","0","880"
"3","3","encoding","encoding","125","LumiereBeautyBeast.jpg","37","0","1204"
"3","3","encoding","encoding","126","Shield_Antique.jpg","36","0","967"
"3","3","encoding","encoding","127","GPS.jpg","37","0","1382"
"3","3","encoding","encoding","128","Hammer_Reflex.jpg","37","0","917"
"3","3","encoding","encoding","129","Briefcase_Open.jpg","36","0","768"
"3","3","encoding","encoding","130","FloorTile.jpg","36","0","1138"
"3","3","encoding","encoding","131","Toy_WinnieThePooh.jpg","37","0","961"
"3","3","encoding","encoding","132","IceCubes copy.jpg","37","0","894"
"3","3","encoding","encoding","133","Book_Paper.jpg","36","0","1067"
"3","3","encoding","encoding","134","Compressor.jpg","36","0","703"
"3","3","encoding","encoding","135","Helicopter.jpg","36","0","1212"
"3","3","encoding","encoding","136","Clip_Paper.jpg","37","0","787"
"3","3","encoding","encoding","137","Altar.jpg","36","0","848"
"3","3","encoding","encoding","138","DrawingCompass.jpg","37","0","1164"
"3","3","encoding","encoding","139","Boat_Colourful.jpg","36","0","865"
"3","3","encoding","encoding","140","Toy_Truck.jpg","36","0","1333"
"3","3","encoding","encoding","141","AirVent.jpg","36","0","1268"
"3","3","encoding","encoding","142","Blade_Tablesaw.jpg","36","0","1541"
"3","3","encoding","encoding","143","OvenElement.jpg","37","0","1248"
"3","3","encoding","encoding","144","WaterCooler.jpg","36","0","1152"
"3","3","encoding","encoding","145","Corn_Kernels.jpg","37","0","1020"
"3","3","encoding","encoding","146","Grill_Electric.jpg","36","0","927"
"3","3","encoding","encoding","147","DogSled.jpg","36","0","1066"
"3","3","encoding","encoding","148","CinderBlock.jpg","36","0","938"
"3","3","encoding","encoding","149","Hose_Garden.jpg","36","0","1180"
"3","3","encoding","encoding","150","AlcoholBar.jpg","36","0","936"
"3","3","encoding","encoding","151","Candy_Cotton.jpg","37","0","1124"
"3","3","encoding","encoding","152","Table_AntiqueWooden.jpg","36","0","705"
"3","3","encoding","encoding","153","Dress_Party.jpg","36","0","887"
"3","3","encoding","encoding","154","Pliers_ViceGrip.jpg","37","0","844"
"3","3","encoding","encoding","155","Toy_RockingHorseBlack.jpg","36","0","953"
"3","3","encoding","encoding","156","Table_Picnic.jpg","36","0","694"
"3","3","encoding","encoding","157","Chest.jpg","36","0","782"
"3","3","encoding","encoding","158","Umbrella_Retractable.jpg","37","0","853"
"3","3","encoding","encoding","159","FileFolder.jpg","37","0","1056"
"3","3","encoding","encoding","160","Booth_Carnival.jpg","36","0","630"
"3","3","encoding","encoding","161","EyeChart.jpg","36","0","1797"
"3","3","encoding","encoding","162","ShoppingCart.jpg","36","0","636"
"3","3","encoding","encoding","163","Jack.jpg","37","0","768"
"3","3","encoding","encoding","164","Swing_Porch.jpg","36","0","789"
"3","3","encoding","encoding","165","Toy_BeadMaze.jpg","37","0","1255"
"3","3","encoding","encoding","166","Scythe.jpg","36","0","1133"
"3","3","encoding","encoding","167","Sandwich_Egg.jpg","37","0","1065"
"3","3","encoding","encoding","168","Nuts_PeanutsPeeled.jpg","37","0","960"
"3","3","encoding","encoding","169","VialLab.jpg","37","0","1013"
"3","3","encoding","encoding","170","Fortress.jpg","36","0","611"
"3","3","encoding","encoding","171","Belt.jpg","37","0","868"
"3","3","encoding","encoding","172","Briefcase_Leather.jpg","36","0","1053"
"3","3","encoding","encoding","173","Brush_Nail.jpg","37","0","959"
"3","3","encoding","encoding","174","Box_GiftTopView.jpg","37","0","1344"
"3","3","encoding","encoding","175","Drum_Ramadan.jpg","36","0","898"
"3","3","encoding","encoding","176","Tickets_Blank.jpg","37","0","814"
"3","3","encoding","encoding","177","Binoculars.jpg","37","0","1134"
"3","3","retrieval","old_objects","1","Spoons_Musical.jpg","0","0","2000"
"3","3","retrieval","new_objects","2","Cucumber.jpg","37","1","1671"
"3","3","retrieval","old_objects","3","DrawingCompass.jpg","36","1","1489"
"3","3","retrieval","old_objects","4","Pottery.jpg","36","1","1211"
"3","3","retrieval","old_objects","5","Knife_Kitchen.jpg","36","1","1206"
"3","3","retrieval","old_objects","6","Briefcase_Leather.jpg","36","1","951"
"3","3","retrieval","new_objects","7","Igloo.jpg","37","1","847"
"3","3","retrieval","new_objects","8","SoundMixer_White.jpg","37","1","1246"
"3","3","retrieval","new_objects","9","Stamper.jpg","37","1","1338"
"3","3","retrieval","old_objects","10","Bell_Hand.jpg","36","1","1659"
"3","3","retrieval","old_objects","11","Shrub_Cedar.jpg","36","1","861"
"3","3","retrieval","new_objects","12","Thermostat_Digital.jpg","37","1","1028"
"3","3","retrieval","old_objects","13","Shorts_Sports.jpg","36","1","1457"
"3","3","retrieval","old_objects","14","LumiereBeautyBeast.jpg","36","1","1022"
"3","3","retrieval","new_objects","15","Shoes_WomenBoots.jpg","37","1","809"
"3","3","retrieval","old_objects","16","Blueberry.jpg","36","1","971"
"3","3","retrieval","new_objects","17","CDstack.jpg","37","1","1579"
"3","3","retrieval","old_objects","18","Altar.jpg","36","1","1039"
"3","3","retrieval","new_objects","19","Leg.jpg","37","1","1002"
"3","3","retrieval","new_objects","20","Toy_Top.jpg","37","1","965"
"3","3","retrieval","old_objects","21","Garbage_Can.jpg","36","1","1274"
"3","3","retrieval","old_objects","22","Toy_PandaPlushie.jpg","36","1","947"
"3","3","retrieval","old_objects","23","Bag_Camera.jpg","36","1","904"
"3","3","retrieval","new_objects","24","Walker_Blue.jpg","36","0","1271"
"3","3","retrieval","new_objects","25","Truck_VintageBlue.jpg","37","1","902"
"3","3","retrieval","old_objects","26","Chest.jpg","36","1","889"
"3","3","retrieval","new_objects","27","ProcessorFood_Old.jpg","36","0","1631"
"3","3","retrieval","new_objects","28","DoubleBass.jpg","37","1","862"
"3","3","retrieval","new_objects","29","Phone_Flip.jpg","37","1","1090"
"3","3","retrieval","new_objects","30","Clave.jpg","37","1","1189"
"3","3","retrieval","old_objects","31","SandBagThrowGame.jpg","36","1","933"
"3","3","retrieval","new_objects","32","FileDivider.jpg","37","1","1125"
"3","3","retrieval","old_objects","33","Box_FirstAid.jpg","36","1","1044"
"3","3","retrieval","old_objects","34","SlideViewer.jpg","36","1","1322"
"3","3","retrieval","new_objects","35","Booties_Blue.jpg","37","1","852"
"3","3","retrieval","old_objects","36","Mask_Viking.jpg","36","1","978"
"3","3","retrieval","old_objects","37","Toy_BeadMaze.jpg","36","1","800"
"3","3","retrieval","old_objects","38","Toy_WoodenPlainSingle.jpg","36","1","1502"
"3","3","retrieval","old_objects","39","Dragonfly.jpg","36","1","1203"
"3","3","retrieval","new_objects","40","Cannister_Gas.jpg","37","1","1486"
"3","3","retrieval","new_objects","41","Mask_Masquerade.jpg","37","1","1065"
"3","3","retrieval","new_objects","42","Jars_PetFood.jpg","37","1","1024"
"3","3","retrieval","old_objects","43","Steeple.jpg","36","1","1022"
"3","3","retrieval","old_objects","44","Fish_Swordfish.jpg","36","1","735"
"3","3","retrieval","new_objects","45","DoorBell.jpg","37","1","879"
"3","3","retrieval","old_objects","46","ShakerShekere.jpg","36","1","1425"
"3","3","retrieval","old_objects","47","Candy_Cane.jpg","36","1","872"
"3","3","retrieval","old_objects","48","Bird_Parrot.jpg","36","1","985"
"3","3","retrieval","new_objects","49","Ladybug.jpg","37","1","744"
"3","3","retrieval","new_objects","50","Cart_Wooden.jpg","37","1","1163"
"3","3","retrieval","old_objects","51","Coin.jpg","36","1","1289"
"3","3","retrieval","new_objects","52","Flask_Metal.jpg","37","1","1209"
"3","3","retrieval","new_objects","53","Car_Buggy.jpg","37","1","1482"
"3","3","retrieval","new_objects","54","Boar.jpg","37","1","987"
"3","3","retrieval","new_objects","55","Drill.jpg","37","1","1493"
"3","3","retrieval","new_objects","56","CarJack.jpg","37","1","1147"
"3","3","retrieval","old_objects","57","MetalDetector.jpg","36","1","962"
"3","3","retrieval","old_objects","58","Clam.jpg","36","1","1040"
"3","3","retrieval","old_objects","59","Bindings_Snowboard.jpg","36","1","823"
"3","3","retrieval","old_objects","60","Scythe.jpg","36","1","773"
"3","3","retrieval","old_objects","62","Toy_Rooster.jpg","36","1","1281"
"3","3","retrieval","old_objects","63","LightBulb_Blue.jpg","36","1","868"
"3","3","retrieval","new_objects","64","PeasSplit.jpg","36","0","914"
"3","3","retrieval","new_objects","65","Jacket_Suit.jpg","37","1","730"
"3","3","retrieval","old_objects","66","Van.jpg","37","0","893"
"3","3","retrieval","new_objects","67","Deodorant.jpg","37","1","1045"
"3","3","retrieval","new_objects","68","Fridge.jpg","37","1","1307"
"3","3","retrieval","old_objects","69","Shark_Hammerhead.jpg","36","1","1372"
"3","3","retrieval","old_objects","70","RecorderCassette.jpg","36","1","771"
"3","3","retrieval","new_objects","71","OnionRed.jpg","37","1","794"
"3","3","retrieval","new_objects","72","Purse.jpg","37","1","1107"
"3","3","retrieval","old_objects","73","ButterDish.jpg","36","1","1040"
"3","3","retrieval","old_objects","74","DogSled.jpg","36","1","795"
"3","3","retrieval","new_objects","75","Bellows.jpg","36","0","918"
"3","3","retrieval","new_objects","76","Stick_Drum.jpg","37","1","827"
"3","3","retrieval","new_objects","77","Outhouse.jpg","37","1","884"
"3","3","retrieval","new_objects","78","Fryingpan.jpg","37","1","783"
"3","3","retrieval","new_objects","79","Plate_Decorative.jpg","37","1","1199"
"3","3","retrieval","new_objects","80","BrainSagittal.jpg","37","1","927"
"3","3","retrieval","new_objects","81","CoffeeGrinder.jpg","36","0","870"
"3","3","retrieval","old_objects","82","Mailbox_Community.jpg","36","1","876"
"3","3","retrieval","new_objects","83","Brace_Back.jpg","37","1","1059"
"3","3","retrieval","new_objects","84","Seahorse.jpg","37","1","975"
"3","3","retrieval","new_objects","85","BumperCar.jpg","37","1","1072"
"3","3","retrieval","old_objects","86","Decoration_WallOrnament.jpg","36","1","920"
"3","3","retrieval","old_objects","87","Giraffe.jpg","36","1","934"
"3","3","retrieval","new_objects","88","Toy_Alien.jpg","37","1","845"
"3","3","retrieval","old_objects","89","Table_AntiqueWooden.jpg","36","1","1454"
"3","3","retrieval","new_objects","90","Lunchbox.jpg","37","1","1668"
"3","3","retrieval","new_objects","91","Can_Olives.jpg","37","1","881"
"3","3","retrieval","new_objects","92","Mallet.jpg","37","1","793"
"3","3","retrieval","old_objects","93","GPS.jpg","36","1","874"
"3","3","retrieval","old_objects","94","Hammock.jpg","36","1","823"
"3","3","retrieval","new_objects","95","TeethMould.jpg","37","1","799"
"3","3","retrieval","old_objects","96","Lips_Real.jpg","36","1","870"
"3","3","retrieval","new_objects","97","Comb_1.jpg","37","1","790"
"3","3","retrieval","new_objects","98","sign_traffic.jpg","37","1","973"
"3","3","retrieval","new_objects","99","Helmet_Soldier.jpg","37","1","686"
"3","3","retrieval","new_objects","100","Shark_GreatWhite.jpg","36","0","1468"
"3","3","retrieval","new_objects","101","RecordPlayer.jpg","36","0","1372"
"3","3","retrieval","new_objects","102","Drink_Green.jpg","37","1","757"
"3","3","retrieval","old_objects","103","Toy_LambPlushie.jpg","37","0","998"
"3","3","retrieval","new_objects","104","Canteen.jpg","37","1","1014"
"3","3","retrieval","old_objects","105","Chest_Toys.jpg","36","1","1159"
"3","3","retrieval","old_objects","106","Nuts_PeanutsPeeled.jpg","36","1","1137"
"3","3","retrieval","new_objects","107","Pasta_Macaroni.jpg","37","1","868"
"3","3","retrieval","new_objects","108","Ball_Disco.jpg","37","1","779"
"3","3","retrieval","old_objects","109","Dress_Cocktail.jpg","36","1","1142"
"3","3","retrieval","new_objects","110","Pants_Jeans.jpg","37","1","832"
"3","3","retrieval","old_objects","111","Hat_Sheriff.jpg","37","0","822"
"3","3","retrieval","new_objects","112","Notepad_WithPen.jpg","37","1","1226"
"3","3","retrieval","old_objects","113","Umbrella_Retractable.jpg","36","1","858"
"3","3","retrieval","new_objects","114","IceCream_Popsicle.jpg","37","1","857"
"3","3","retrieval","new_objects","115","AngleGrinder.jpg","37","1","1198"
"3","3","retrieval","old_objects","116","Grill_Electric.jpg","36","1","777"
"3","3","retrieval","new_objects","117","Loofa.jpg","37","1","1106"
"3","3","retrieval","old_objects","118","TomatoSauce.jpg","36","1","1466"
"3","3","retrieval","new_objects","119","Cabinet_Display.jpg","36","0","1069"
"3","3","retrieval","new_objects","120","Toy_SandRake.jpg","37","1","832"
"3","3","retrieval","old_objects","121","Drum_Ramadan.jpg","36","1","1516"
"3","3","retrieval","new_objects","123","Spoon_WoodenLight.jpg","37","1","1200"
"3","3","retrieval","old_objects","124","Bag_Satchel.jpg","36","1","772"
"3","3","retrieval","old_objects","125","Stapler_Gun.jpg","36","1","886"
"3","3","retrieval","old_objects","126","Hook_Fish.jpg","36","1","953"
"3","3","retrieval","new_objects","127","LintRemover.jpg","37","1","746"
"3","3","retrieval","old_objects","128","Instrument_African.jpg","36","1","971"
"3","3","retrieval","old_objects","129","Boat_Colourful.jpg","37","0","931"
"3","3","retrieval","old_objects","130","OvenElement.jpg","36","1","917"
"3","3","retrieval","new_objects","131","Boardgame_Chess.jpg","37","1","854"
"3","3","retrieval","new_objects","132","Monitor.jpg","37","1","795"
"3","3","retrieval","old_objects","133","Jug_GallonRed.jpg","36","1","789"
"3","3","retrieval","new_objects","134","Bowl_Cereal.jpg","37","1","829"
"3","3","retrieval","old_objects","135","Toy_FigurineSwing.jpg","36","1","1181"
"3","3","retrieval","old_objects","136","House_Wooden.jpg","36","1","952"
"3","3","retrieval","old_objects","137","Glasses_Reading.jpg","37","0","780"
"3","3","retrieval","old_objects","138","Steamer.jpg","37","0","1146"
"3","3","retrieval","new_objects","139","DogTreat.jpg","37","1","1067"
"3","3","retrieval","new_objects","140","Cinnamonroll.jpg","37","1","877"
"3","3","retrieval","old_objects","141","Waffle.jpg","36","1","1230"
"3","3","retrieval","new_objects","142","Bus_DoubleDecker.jpg","37","1","1741"
"3","3","retrieval","old_objects","143","Honeycomb.jpg","36","1","776"
"3","3","retrieval","old_objects","144","Organ.jpg","36","1","1049"
"3","3","retrieval","old_objects","145","Scoop_IceCream.jpg","37","0","1857"
"3","3","retrieval","old_objects","146","FloorTile.jpg","36","1","861"
"3","3","retrieval","new_objects","147","ComputerKeyboard_Backspace.jpg","37","1","954"
"3","3","retrieval","new_objects","148","Glass_Martini.jpg","37","1","881"
"3","3","retrieval","old_objects","149","Sign_HumpBridgeAhead.jpg","36","1","1048"
"3","3","retrieval","new_objects","150","Sushi.jpg","37","1","900"
"3","3","retrieval","new_objects","151","Chair_Airplane.jpg","37","1","1077"
"3","3","retrieval","new_objects","152","Chair_Deck.jpg","37","1","825"
"3","3","retrieval","new_objects","153","Heelpad.jpg","37","1","1341"
"3","3","retrieval","new_objects","154","Cup_Styrofoam.jpg","37","1","1468"
"3","3","retrieval","new_objects","155","Cord_Ethernet.jpg","37","1","1124"
"3","3","retrieval","old_objects","156","Squash_Butternut.jpg","36","1","1062"
"3","3","retrieval","new_objects","157","Stick_Stirring.jpg","37","1","713"
"3","3","retrieval","old_objects","158","Statue_Jesus.jpg","36","1","1188"
"3","3","retrieval","old_objects","159","DVDPlayer.jpg","36","1","927"
"3","3","retrieval","new_objects","160","Pasta_Fusilli.jpg","37","1","992"
"3","3","retrieval","old_objects","161","Truck_Tanker.jpg","36","1","1441"
"3","3","retrieval","old_objects","162","Box_WoodenOpen.jpg","36","1","809"
"3","3","retrieval","new_objects","163","CapGraduation.jpg","37","1","831"
"3","3","retrieval","old_objects","164","AlcoholBar.jpg","37","0","1477"
"3","3","retrieval","new_objects","165","Mitt_Blue.jpg","37","1","771"
"3","3","retrieval","old_objects","166","Bowl_Wooden.jpg","36","1","1311"
"3","3","retrieval","new_objects","167","Kebab_Meat.jpg","37","1","757"
"3","3","retrieval","new_objects","168","Truck_Pickup.jpg","37","1","704"
"3","3","retrieval","old_objects","169","Bottle_Baby.jpg","36","1","990"
"3","3","retrieval","old_objects","170","CertificateFramed.jpg","37","0","836"
"3","3","retrieval","old_objects","171","SolderingWire.jpg","36","1","891"
"3","3","retrieval","new_objects","172","Ambulance.jpg","37","1","1238"
"3","3","retrieval","new_objects","173","Mask_CPR.jpg","37","1","1478"
"3","3","retrieval","new_objects","174","Stone_Mill.jpg","37","1","1049"
"3","3","retrieval","old_objects","175","Table_Picnic.jpg","36","1","807"
"3","3","retrieval","new_objects","176","Acorn.jpg","37","1","818"
"3","3","retrieval","new_objects","177","Toy_JackInTheBox.jpg","36","0","1645"
"3","3","retrieval","old_objects","178","Tetrahedron.jpg","36","1","878"
"3","3","retrieval","new_objects","179","SofaAntique.jpg","37","1","805"
"3","3","retrieval","old_objects","180","Torpedo.jpg","36","1","865"
"3","3","retrieval","new_objects","181","Grape.jpg","37","1","1364"
"3","3","retrieval","old_objects","182","Toy_Motorcycle.jpg","36","1","784"
"3","3","retrieval","old_objects","184","Candle_Blue.jpg","37","0","1114"
"3","3","retrieval","new_objects","185","Box_Staples.jpg","37","1","1194"
"3","3","retrieval","old_objects","186","Sandwich_Egg.jpg","37","0","822"
"3","3","retrieval","old_objects","187","Colosseum.jpg","36","1","820"
"3","3","retrieval","old_objects","188","Knife_Hunting.jpg","36","1","839"
"3","3","retrieval","old_objects","189","Fortress.jpg","36","1","986"
"3","3","retrieval","new_objects","190","DartBoard.jpg","36","0","1776"
"3","3","retrieval","old_objects","191","Maraca.jpg","36","1","879"
"3","3","retrieval","old_objects","192","Toy_WinnieThePooh.jpg","36","1","865"
"3","3","retrieval","old_objects","193","SaltShaker.jpg","37","0","1468"
"3","3","retrieval","new_objects","194","Origami_Boat.jpg","37","1","1097"
"3","3","retrieval","new_objects","195","Fence_Wooden.jpg","37","1","738"
"3","3","retrieval","old_objects","196","DogToy.jpg","36","1","1400"
"3","3","retrieval","new_objects","197","Box_Present.jpg","36","0","854"
"3","3","retrieval","new_objects","198","Sculpture_MetalMan.jpg","37","1","1430"
"3","3","retrieval","old_objects","199","Tickets_Blank.jpg","36","1","811"
"3","3","retrieval","old_objects","200","Mat_Car.jpg","36","1","838"
"3","3","retrieval","new_objects","201","Lantern_TeaBox.jpg","37","1","940"
"3","3","retrieval","new_objects","202","Shoe_WomenHeals.jpg","37","1","834"
"3","3","retrieval","new_objects","203","Sign_Washroom.jpg","37","1","862"
"3","3","retrieval","new_objects","204","Tube.jpg","37","1","958"
"3","3","retrieval","old_objects","205","Box_GiftTopView.jpg","36","1","731"
"3","3","retrieval","old_objects","206","Telephone_Dial.jpg","36","1","1865"
"3","3","retrieval","new_objects","207","CasketOpen.jpg","37","1","768"
"3","3","retrieval","new_objects","208","Ball_8.jpg","37","1","673"
"3","3","retrieval","old_objects","209","Compressor.jpg","36","1","753"
"3","3","retrieval","old_objects","210","Swing_Porch.jpg","37","0","857"
"3","3","retrieval","new_objects","211","Dynamite.jpg","37","1","817"
"3","3","retrieval","new_objects","212","Peach.jpg","37","1","805"
"3","3","retrieval","old_objects","213","Brace_Leg.jpg","36","1","1042"
"3","3","retrieval","old_objects","214","Dress_Party.jpg","36","1","843"
"3","3","retrieval","new_objects","215","Mirror_Carside.jpg","37","1","859"
"3","3","retrieval","old_objects","216","Camel_Bactrian.jpg","36","1","708"
"3","3","retrieval","old_objects","217","Chimpanzee.jpg","36","1","720"
"3","3","retrieval","old_objects","218","Speaker_OnStand.jpg","36","1","744"
"3","3","retrieval","old_objects","219","Taco.jpg","36","1","879"
"3","3","retrieval","new_objects","220","Panda.jpg","37","1","1147"
"3","3","retrieval","old_objects","221","ClothRed.jpg","37","0","693"
"3","3","retrieval","new_objects","222","Pot_FlowerClay.jpg","37","1","811"
"3","3","retrieval","new_objects","223","Lantern_Tea.jpg","36","0","1140"
"3","3","retrieval","new_objects","224","CodeDoorLock.jpg","37","1","830"
"3","3","retrieval","old_objects","225","Fork_Regular.jpg","36","1","1446"
"3","3","retrieval","new_objects","226","Exercise_Stretch.jpg","37","1","1065"
"3","3","retrieval","new_objects","227","Cane_Wooden.jpg","37","1","925"
"3","3","retrieval","new_objects","228","Toy_PoliceCar.jpg","37","1","897"
"3","3","retrieval","new_objects","229","Printer.jpg","37","1","941"
"3","3","retrieval","new_objects","230","Plate_Ceramic.jpg","37","1","899"
"3","3","retrieval","new_objects","231","Exercise_HandTrainer.jpg","37","1","1358"
"3","3","retrieval","old_objects","232","Brush_Nail.jpg","36","1","1749"
"3","3","retrieval","old_objects","233","WaterCooler.jpg","36","1","847"
"3","3","retrieval","old_objects","234","Toy_Wooden rings.jpg","36","1","757"
"3","3","retrieval","new_objects","235","Generator.jpg","36","0","1200"
"3","3","retrieval","new_objects","236","Candy_Toffee.jpg","37","1","826"
"3","3","retrieval","new_objects","237","Milkshake_StrawberryStraw.jpg","37","1","780"
"3","3","retrieval","old_objects","238","Scrabble.jpg","36","1","833"
"3","3","retrieval","new_objects","239","HairClip.jpg","37","1","1249"
"3","3","retrieval","new_objects","240","ShowerCap.jpg","36","0","1188"
"3","3","retrieval","new_objects","241","Towel.jpg","37","1","786"
"3","3","retrieval","new_objects","242","Keys_Bunch.jpg","37","1","813"
"3","3","retrieval","old_objects","243","Phone_Military.jpg","36","1","1483"
"3","3","retrieval","new_objects","245","Sand.jpg","37","1","830"
"3","3","retrieval","old_objects","246","Light_Siren.jpg","36","1","1048"
"3","3","retrieval","new_objects","247","Beaker.jpg","37","1","737"
"3","3","retrieval","old_objects","248","Toolbox_BlackOpen.jpg","36","1","743"
"3","3","retrieval","old_objects","249","Accordion.jpg","36","1","1154"
"3","3","retrieval","old_objects","250","PyramidWooden.jpg","36","1","700"
"3","3","retrieval","old_objects","251","Toy_Chicken.jpg","36","1","1116"
"3","3","retrieval","old_objects","252","Hippopotamus.jpg","36","1","1847"
"3","3","retrieval","new_objects","253","Hand.jpg","37","1","787"
"3","3","retrieval","old_objects","254","Toy_RockingHorseBlack.jpg","37","0","884"
"3","3","retrieval","new_objects","255","Brush_BathBack.jpg","37","1","863"
"3","3","retrieval","old_objects","256","Shield_Antique.jpg","36","1","834"
"3","3","retrieval","new_objects","257","Barbecue_Charcoal.jpg","37","1","889"
"3","3","retrieval","new_objects","258","Cork.jpg","37","1","1001"
"3","3","retrieval","old_objects","259","Helicopter.jpg","36","1","820"
"3","3","retrieval","new_objects","260","Pepper_Chili.jpg","37","1","768"
"3","3","retrieval","new_objects","261","Bread_Loaf.jpg","37","1","923"
"3","3","retrieval","old_objects","262","EyeChart.jpg","37","0","767"
"3","3","retrieval","old_objects","263","Tree_Fir.jpg","37","0","1031"
"3","3","retrieval","old_objects","264","Clip_Paper.jpg","36","1","974"
"3","3","retrieval","new_objects","265","SelfieStick.jpg","36","0","1151"
"3","3","retrieval","old_objects","266","Bench_Concrete.jpg","36","1","736"
"3","3","retrieval","old_objects","267","AirVent.jpg","36","1","931"
"3","3","retrieval","new_objects","268","Candy_Caramel.jpg","37","1","729"
"3","3","retrieval","old_objects","269","Catheter.jpg","37","0","1625"
"3","3","retrieval","old_objects","270","Booth_Carnival.jpg","37","0","1314"
"3","3","retrieval","new_objects","271","Tomato.jpg","37","1","740"
"3","3","retrieval","old_objects","272","BicycleWheel.jpg","37","0","1249"
"3","3","retrieval","new_objects","273","ContactLens.jpg","37","1","889"
"3","3","retrieval","new_objects","274","Chopsticks.jpg","37","1","1093"
"3","3","retrieval","old_objects","275","VinylRecord.jpg","37","0","902"
"3","3","retrieval","old_objects","276","Balalaika.jpg","36","1","848"
"3","3","retrieval","old_objects","277","AllTerrain.jpg","36","1","766"
"3","3","retrieval","new_objects","278","EyeExamDevice.jpg","37","1","1089"
"3","3","retrieval","old_objects","279","Drum_Brazilan.jpg","37","0","815"
"3","3","retrieval","new_objects","280","Hottub.jpg","37","1","1176"
"3","3","retrieval","new_objects","281","Balcony.jpg","37","1","793"
"3","3","retrieval","old_objects","282","Hose_Garden.jpg","36","1","1112"
"3","3","retrieval","new_objects","283","Thermos_MetalSleek.jpg","37","1","917"
"3","3","retrieval","new_objects","284","Sign_Parking.jpg","37","1","790"
"3","3","retrieval","old_objects","285","Belt.jpg","36","1","969"
"3","3","retrieval","new_objects","286","RickShaw.jpg","37","1","1020"
"3","3","retrieval","new_objects","287","PencilSharpener.jpg","37","1","789"
"3","3","retrieval","old_objects","288","Shampoo.jpg","36","1","955"
"3","3","retrieval","old_objects","289","ShoppingCart.jpg","36","1","1323"
"3","3","retrieval","old_objects","290","ColoringSet.jpg","36","1","743"
"3","3","retrieval","old_objects","291","Blade_Tablesaw.jpg","36","1","1866"
"3","3","retrieval","old_objects","292","LightBulb_Christmas.jpg","36","1","941"
"3","3","retrieval","old_objects","293","CuttingBoard.jpg","37","0","1272"
"3","3","retrieval","old_objects","294","Kneepad.jpg","36","1","955"
"3","3","retrieval","old_objects","295","Sign_NoParking.jpg","36","1","937"
"3","3","retrieval","new_objects","296","Pretzel_Knot.jpg","37","1","812"
"3","3","retrieval","old_objects","297","Radio_Antique.jpg","36","1","819"
"3","3","retrieval","new_objects","298","Nail.jpg","37","1","658"
"3","3","retrieval","new_objects","299","Bottle_Beer.jpg","37","1","677"
"3","3","retrieval","new_objects","300","BakingDish.jpg","37","1","726"
"3","3","retrieval","new_objects","301","Brush_Shoe.jpg","37","1","783"
"3","3","retrieval","old_objects","302","Hawk.jpg","36","1","733"
"3","3","retrieval","new_objects","303","Chair_Office.jpg","37","1","1019"
"3","3","retrieval","new_objects","304","RAMchip.jpg","37","1","740"
"3","3","retrieval","old_objects","306","Hammer_Reflex.jpg","36","1","1073"
"3","3","retrieval","new_objects","307","ColumnMarble.jpg","37","1","1605"
"3","3","retrieval","new_objects","308","Machine_EKG.jpg","37","1","1048"
"3","3","retrieval","old_objects","309","Truck_Army.jpg","36","1","1303"
"3","3","retrieval","old_objects","310","VialLab.jpg","36","1","758"
"3","3","retrieval","new_objects","311","ChewingGum.jpg","37","1","654"
"3","3","retrieval","old_objects","312","Corn_Kernels.jpg","36","1","797"
"3","3","retrieval","old_objects","313","IceCubes copy.jpg","36","1","783"
"3","3","retrieval","old_objects","314","ShinPads.jpg","36","1","735"
"3","3","retrieval","old_objects","315","Binoculars.jpg","36","1","871"
"3","3","retrieval","new_objects","316","Light_Fixtures.jpg","37","1","777"
"3","3","retrieval","old_objects","317","Tickets_PrintWords.jpg","36","1","713"
"3","3","retrieval","new_objects","318","Escalator.jpg","37","1","1016"
"3","3","retrieval","new_objects","319","Bible.jpg","37","1","966"
"3","3","retrieval","old_objects","320","Branches_Campfire.jpg","36","1","777"
"3","3","retrieval","old_objects","321","CinderBlock.jpg","36","1","689"
"3","3","retrieval","old_objects","322","TrapAnimal.jpg","36","1","729"
"3","3","retrieval","new_objects","323","Pot_CastIron.jpg","37","1","900"
"3","3","retrieval","old_objects","324","Candy_Cotton.jpg","36","1","1221"
"3","3","retrieval","old_objects","325","Book_Paper.jpg","37","0","1193"
"3","3","retrieval","new_objects","326","Pasta_Spaghetti.jpg","37","1","1023"
"3","3","retrieval","old_objects","327","Corn.jpg","37","0","1176"
"3","3","retrieval","old_objects","328","Pliers_ViceGrip.jpg","36","1","995"
"3","3","retrieval","old_objects","329","Baster.jpg","36","1","1588"
"3","3","retrieval","new_objects","330","AirPump.jpg","37","1","812"
"3","3","retrieval","new_objects","331","Bird_Peacock.jpg","37","1","829"
"3","3","retrieval","old_objects","332","Briefcase_Open.jpg","36","1","988"
"3","3","retrieval","new_objects","333","Cauliflower.jpg","37","1","918"
"3","3","retrieval","old_objects","334","Projector_Film.jpg","36","1","1384"
"3","3","retrieval","new_objects","335","Toy_DonkeyFur.jpg","37","1","847"
"3","3","retrieval","old_objects","336","MetalChain.jpg","36","1","816"
"3","3","retrieval","old_objects","337","Hookah.jpg","36","1","777"
"3","3","retrieval","old_objects","338","FileFolder.jpg","36","1","1098"
"3","3","retrieval","new_objects","339","Bird_Cardinal.jpg","37","1","707"
"3","3","retrieval","old_objects","340","Cougar.jpg","36","1","846"
"3","3","retrieval","old_objects","341","Jack.jpg","36","1","730"
"3","3","retrieval","new_objects","342","Mat_Door.jpg","37","1","699"
"3","3","retrieval","new_objects","343","Slippers.jpg","37","1","665"
"3","3","retrieval","old_objects","344","StockingChristmas.jpg","36","1","1299"
"3","3","retrieval","new_objects","345","Bread_Roll.jpg","37","1","841"
"3","3","retrieval","new_objects","346","Defribrillator.jpg","37","1","1000"
"3","3","retrieval","new_objects","347","Bird_Eagle.jpg","36","0","754"
"3","3","retrieval","old_objects","348","Toy_Truck.jpg","36","1","692"
"3","3","retrieval","old_objects","349","HairScrunchie.jpg","36","1","1134"
"3","3","retrieval","new_objects","350","Domino.jpg","37","1","785"
"3","3","retrieval","new_objects","351","Apple_RedAndGreen.jpg","37","1","702"
"3","3","retrieval","old_objects","352","Tie.jpg","37","0","813"
"3","3","retrieval","new_objects","353","Mask_HockeyGoalie.jpg","37","1","928"
"3","3","retrieval","new_objects","354","Shoes_Sneakers.jpg","37","1","818"
"3","3","retrieval","old_objects","355","PotatoMasher_Zigzag.jpg","36","1","1106"
"3","3","demographics_block","gender","1","PotatoMasher_Zigzag.jpg","female","1","28932"
"3","3","demographics_block","age","1","PotatoMasher_Zigzag.jpg","34","1","28932"
"3","3","demographics_block","education","1","PotatoMasher_Zigzag.jpg","16","1","28932"
"3","3","demographics_block","left_right_handed","2","PotatoMasher_Zigzag.jpg","Right","1","7274"
"3","3","demographics_block","raceoption1","2","PotatoMasher_Zigzag.jpg","","1","7274"
"3","3","demographics_block","raceoption2","2","PotatoMasher_Zigzag.jpg","","1","7274"
"3","3","demographics_block","raceoption3","2","PotatoMasher_Zigzag.jpg","2","1","7274"
"3","3","demographics_block","raceoption4","2","PotatoMasher_Zigzag.jpg","","1","7274"
"3","3","demographics_block","raceoption5","2","PotatoMasher_Zigzag.jpg","","1","7274"
"3","3","demographics_block","raceoption6","2","PotatoMasher_Zigzag.jpg","","1","7274"
"3","3","demographics_block","raceoption7","2","PotatoMasher_Zigzag.jpg","","1","7274"
"3","3","demographics_block","raceoption8","2","PotatoMasher_Zigzag.jpg","","1","7274"
"3","3","demographics_block","raceoption9","2","PotatoMasher_Zigzag.jpg","","1","7274"
"3","3","demographics_block","raceother","2","PotatoMasher_Zigzag.jpg","","1","7274"
"3","3","demographics_block","raceother","2","PotatoMasher_Zigzag.jpg","","1","7274"
"3","3","demographics_block","english_language","2","PotatoMasher_Zigzag.jpg","Yes","1","7274"
"3","3","demographics_block","english_languageother","2","PotatoMasher_Zigzag.jpg","","1","7274"
"3","3","demographics_block","eyesight","3","PotatoMasher_Zigzag.jpg","Yes","1","5224"
"3","3","demographics_block","colorblind","3","PotatoMasher_Zigzag.jpg","No","1","5224"
"3","3","worker_id_block","worker_id_textbox","1","PotatoMasher_Zigzag.jpg","A9MGD6PRW1N7K","1","9033"
"5","5","encoding","encoding","1","Hippopotamus.jpg","36","0","781"
"5","5","encoding","encoding","2","PotatoMasher_Zigzag.jpg","37","0","781"
"5","5","encoding","encoding","3","Bench_Concrete.jpg","36","0","999"
"5","5","encoding","encoding","4","Book_Paper.jpg","36","0","1335"
"5","5","encoding","encoding","5","Drum_Brazilan.jpg","36","0","1713"
"5","5","encoding","encoding","6","Lips_Real.jpg","37","0","917"
"5","5","encoding","encoding","7","StockingChristmas.jpg","37","0","1572"
"5","5","encoding","encoding","8","Jug_GallonRed.jpg","36","0","1064"
"5","5","encoding","encoding","9","ShinPads.jpg","36","0","1046"
"5","5","encoding","encoding","10","Squash_Butternut.jpg","37","0","912"
"5","5","encoding","encoding","11","Truck_Tanker.jpg","36","0","687"
"5","5","encoding","encoding","12","MetalChain.jpg","37","0","762"
"5","5","encoding","encoding","13","Dragonfly.jpg","37","0","959"
"5","5","encoding","encoding","14","SandBagThrowGame.jpg","37","0","1415"
"5","5","encoding","encoding","15","Corn.jpg","37","0","807"
"5","5","encoding","encoding","16","Candy_Cane.jpg","37","0","624"
"5","5","encoding","encoding","17","FloorTile.jpg","36","0","1188"
"5","5","encoding","encoding","18","Fish_Swordfish.jpg","36","0","936"
"5","5","encoding","encoding","19","LightBulb_Blue.jpg","37","0","783"
"5","5","encoding","encoding","20","Box_GiftTopView.jpg","36","0","841"
"5","5","encoding","encoding","21","Table_Picnic.jpg","36","0","658"
"5","5","encoding","encoding","22","Baster.jpg","37","0","706"
"5","5","encoding","encoding","23","Belt.jpg","37","0","753"
"5","5","encoding","encoding","24","Cougar.jpg","36","0","743"
"5","5","encoding","encoding","25","DogToy.jpg","37","0","871"
"5","5","encoding","encoding","26","Binoculars.jpg","37","0","791"
"5","5","encoding","encoding","27","Toy_FigurineSwing.jpg","37","0","688"
"5","5","encoding","encoding","28","ClothRed.jpg","37","0","939"
"5","5","encoding","encoding","29","Shorts_Sports.jpg","37","0","831"
"5","5","encoding","encoding","30","Dress_Party.jpg","36","0","948"
"5","5","encoding","encoding","31","Candle_Blue.jpg","37","0","899"
"5","5","encoding","encoding","32","Toolbox_BlackOpen.jpg","36","0","956"
"5","5","encoding","encoding","33","Fortress.jpg","36","0","695"
"5","5","encoding","encoding","34","Altar.jpg","36","0","618"
"5","5","encoding","encoding","35","Nuts_PeanutsPeeled.jpg","37","0","946"
"5","5","encoding","encoding","36","Hook_Fish.jpg","37","0","943"
"5","5","encoding","encoding","37","AllTerrain.jpg","36","0","879"
"5","5","encoding","encoding","38","Knife_Kitchen.jpg","37","0","896"
"5","5","encoding","encoding","39","Booth_Carnival.jpg","36","0","976"
"5","5","encoding","encoding","40","Honeycomb.jpg","37","0","864"
"5","5","encoding","encoding","41","Waffle.jpg","37","0","872"
"5","5","encoding","encoding","42","Mailbox_Community.jpg","36","0","1233"
"5","5","encoding","encoding","43","Truck_Army.jpg","37","0","1586"
"5","5","encoding","encoding","44","PyramidWooden.jpg","37","0","1680"
"5","5","encoding","encoding","45","Boat_Colourful.jpg","36","0","1321"
"5","5","encoding","encoding","46","Sign_NoParking.jpg","36","0","1661"
"5","5","encoding","encoding","47","WaterCooler.jpg","36","0","825"
"5","5","encoding","encoding","48","Colosseum.jpg","36","0","722"
"5","5","encoding","encoding","49","Clam.jpg","37","0","1250"
"5","5","encoding","encoding","50","Balalaika.jpg","36","0","988"
"5","5","encoding","encoding","51","Steeple.jpg","36","0","757"
"5","5","encoding","encoding","52","House_Wooden.jpg","36","0","1000"
"5","5","encoding","encoding","53","Hose_Garden.jpg","36","0","1362"
"5","5","encoding","encoding","54","Torpedo.jpg","36","0","1577"
"5","5","encoding","encoding","55","IceCubes copy.jpg","37","0","1378"
"5","5","encoding","encoding","56","Branches_Campfire.jpg","36","0","1416"
"5","5","encoding","encoding","57","Statue_Jesus.jpg","36","0","888"
"5","5","encoding","encoding","58","Hat_Sheriff.jpg","36","0","1891"
"5","5","encoding","encoding","59","Toy_WinnieThePooh.jpg","37","0","935"
"5","5","encoding","encoding","60","Jack.jpg","37","0","781"
"5","5","encoding","encoding","62","Toy_Motorcycle.jpg","37","0","1020"
"5","5","encoding","encoding","63","Taco.jpg","37","0","1149"
"5","5","encoding","encoding","64","Coin.jpg","37","0","985"
"5","5","encoding","encoding","65","Radio_Antique.jpg","36","0","1088"
"5","5","encoding","encoding","66","AirVent.jpg","36","0","1432"
"5","5","encoding","encoding","67","Swing_Porch.jpg","36","0","692"
"5","5","encoding","encoding","68","Dress_Cocktail.jpg","37","0","1363"
"5","5","encoding","encoding","69","Hammer_Reflex.jpg","37","0","1446"
"5","5","encoding","encoding","70","Toy_Rooster.jpg","37","0","764"
"5","5","encoding","encoding","71","LightBulb_Christmas.jpg","37","0","1172"
"5","5","encoding","encoding","72","AlcoholBar.jpg","36","0","808"
"5","5","encoding","encoding","73","Spoons_Musical.jpg","36","0","1781"
"5","5","encoding","encoding","74","BicycleWheel.jpg","36","0","1178"
"5","5","encoding","encoding","75","Shampoo.jpg","37","0","1034"
"5","5","encoding","encoding","76","Accordion.jpg","36","0","927"
"5","5","encoding","encoding","77","VialLab.jpg","37","0","931"
"5","5","encoding","encoding","78","HairScrunchie.jpg","37","0","786"
"5","5","encoding","encoding","79","Shark_Hammerhead.jpg","36","0","1452"
"5","5","encoding","encoding","80","Sandwich_Egg.jpg","37","0","1145"
"5","5","encoding","encoding","81","VinylRecord.jpg","36","0","966"
"5","5","encoding","encoding","82","Toy_WoodenPlainSingle.jpg","37","0","1441"
"5","5","encoding","encoding","83","Telephone_Dial.jpg","36","0","990"
"5","5","encoding","encoding","84","Toy_LambPlushie.jpg","37","0","895"
"5","5","encoding","encoding","85","Shield_Antique.jpg","36","0","976"
"5","5","encoding","encoding","86","EyeChart.jpg","36","0","1418"
"5","5","encoding","encoding","87","Chimpanzee.jpg","36","0","957"
"5","5","encoding","encoding","88","Garbage_Can.jpg","36","0","918"
"5","5","encoding","encoding","89","Toy_BeadMaze.jpg","37","0","820"
"5","5","encoding","encoding","90","Chest_Toys.jpg","36","0","1172"
"5","5","encoding","encoding","91","Blade_Tablesaw.jpg","36","0","1193"
"5","5","encoding","encoding","92","SaltShaker.jpg","37","0","810"
"5","5","encoding","encoding","93","Tetrahedron.jpg","37","0","813"
"5","5","encoding","encoding","94","Van.jpg","36","0","1134"
"5","5","encoding","encoding","95","Bird_Parrot.jpg","36","0","1083"
"5","5","encoding","encoding","96","Toy_PandaPlushie.jpg","37","0","1626"
"5","5","encoding","encoding","97","Tickets_PrintWords.jpg","37","0","1048"
"5","5","encoding","encoding","98","Toy_RockingHorseBlack.jpg","36","0","1193"
"5","5","encoding","encoding","99","Brush_Nail.jpg","37","0","938"
"5","5","encoding","encoding","100","TomatoSauce.jpg","37","0","1020"
"5","5","encoding","encoding","101","Glasses_Reading.jpg","37","0","924"
"5","5","encoding","encoding","102","Table_AntiqueWooden.jpg","36","0","939"
"5","5","encoding","encoding","103","FileFolder.jpg","36","0","1183"
"5","5","encoding","encoding","104","Knife_Hunting.jpg","37","0","1355"
"5","5","encoding","encoding","105","ColoringSet.jpg","36","0","919"
"5","5","encoding","encoding","106","Hawk.jpg","36","0","934"
"5","5","encoding","encoding","107","Sign_HumpBridgeAhead.jpg","36","0","968"
"5","5","encoding","encoding","108","Bag_Satchel.jpg","36","0","979"
"5","5","encoding","encoding","109","RecorderCassette.jpg","36","0","1451"
"5","5","encoding","encoding","110","ButterDish.jpg","37","0","1647"
"5","5","encoding","encoding","111","Drum_Ramadan.jpg","36","0","1069"
"5","5","encoding","encoding","112","Scythe.jpg","36","0","1172"
"5","5","encoding","encoding","113","Bag_Camera.jpg","37","0","1405"
"5","5","encoding","encoding","114","Helicopter.jpg","36","0","774"
"5","5","encoding","encoding","115","Grill_Electric.jpg","36","0","1171"
"5","5","encoding","encoding","116","Stapler_Gun.jpg","37","0","1537"
"5","5","encoding","encoding","117","DVDPlayer.jpg","36","0","1045"
"5","5","encoding","encoding","118","Brace_Leg.jpg","37","0","1716"
"5","5","encoding","encoding","119","Mask_Viking.jpg","36","0","734"
"5","5","encoding","encoding","120","Toy_Chicken.jpg","37","0","907"
"5","5","encoding","encoding","121","CuttingBoard.jpg","36","0","1477"
"5","5","encoding","encoding","123","OvenElement.jpg","36","0","1504"
"5","5","encoding","encoding","124","Light_Siren.jpg","37","0","962"
"5","5","encoding","encoding","125","Scrabble.jpg","37","0","917"
"5","5","encoding","encoding","126","Scoop_IceCream.jpg","37","0","860"
"5","5","encoding","encoding","127","Hammock.jpg","36","0","1240"
"5","5","encoding","encoding","128","Camel_Bactrian.jpg","36","0","713"
"5","5","encoding","encoding","129","Umbrella_Retractable.jpg","37","0","1433"
"5","5","encoding","encoding","130","Candy_Cotton.jpg","37","0","820"
"5","5","encoding","encoding","131","Tickets_Blank.jpg","37","0","834"
"5","5","encoding","encoding","132","LumiereBeautyBeast.jpg","37","0","947"
"5","5","encoding","encoding","133","Briefcase_Leather.jpg","36","0","639"
"5","5","encoding","encoding","134","TrapAnimal.jpg","36","0","1578"
"5","5","encoding","encoding","135","DrawingCompass.jpg","37","0","861"
"5","5","encoding","encoding","136","Compressor.jpg","36","0","1024"
"5","5","encoding","encoding","137","Bottle_Baby.jpg","37","0","863"
"5","5","encoding","encoding","138","Shrub_Cedar.jpg","36","0","1341"
"5","5","encoding","encoding","139","Projector_Film.jpg","36","0","1488"
"5","5","encoding","encoding","140","Chest.jpg","36","0","866"
"5","5","encoding","encoding","141","Maraca.jpg","37","0","845"
"5","5","encoding","encoding","142","MetalDetector.jpg","36","0","1407"
"5","5","encoding","encoding","143","Box_FirstAid.jpg","36","0","880"
"5","5","encoding","encoding","144","Giraffe.jpg","36","0","740"
"5","5","encoding","encoding","145","Kneepad.jpg","37","0","1115"
"5","5","encoding","encoding","146","Catheter.jpg","37","0","1544"
"5","5","encoding","encoding","147","SolderingWire.jpg","37","0","1036"
"5","5","encoding","encoding","148","Pliers_ViceGrip.jpg","37","0","1054"
"5","5","encoding","encoding","149","Decoration_WallOrnament.jpg","37","0","1239"
"5","5","encoding","encoding","150","Corn_Kernels.jpg","37","0","1119"
"5","5","encoding","encoding","151","Instrument_African.jpg","36","0","1232"
"5","5","encoding","encoding","152","CertificateFramed.jpg","36","0","990"
"5","5","encoding","encoding","153","CinderBlock.jpg","36","0","1096"
"5","5","encoding","encoding","154","Bowl_Wooden.jpg","37","0","999"
"5","5","encoding","encoding","155","Bell_Hand.jpg","37","0","1049"
"5","5","encoding","encoding","156","SlideViewer.jpg","36","0","1237"
"5","5","encoding","encoding","157","Pottery.jpg","36","0","1426"
"5","5","encoding","encoding","158","Hookah.jpg","36","0","1184"
"5","5","encoding","encoding","159","Fork_Regular.jpg","37","0","716"
"5","5","encoding","encoding","160","Speaker_OnStand.jpg","36","0","822"
"5","5","encoding","encoding","161","Toy_Truck.jpg","37","0","1155"
"5","5","encoding","encoding","162","ShoppingCart.jpg","36","0","1101"
"5","5","encoding","encoding","163","DogSled.jpg","37","0","1168"
"5","5","encoding","encoding","164","Briefcase_Open.jpg","36","0","692"
"5","5","encoding","encoding","165","Tree_Fir.jpg","36","0","850"
"5","5","encoding","encoding","166","GPS.jpg","37","0","1437"
"5","5","encoding","encoding","167","Toy_Wooden rings.jpg","37","0","1496"
"5","5","encoding","encoding","168","Steamer.jpg","36","0","1019"
"5","5","encoding","encoding","169","Organ.jpg","36","0","901"
"5","5","encoding","encoding","170","Tie.jpg","37","0","909"
"5","5","encoding","encoding","171","Box_WoodenOpen.jpg","37","0","1572"
"5","5","encoding","encoding","172","Bindings_Snowboard.jpg","0","0","2000"
"5","5","encoding","encoding","173","Phone_Military.jpg","36","0","757"
"5","5","encoding","encoding","174","Blueberry.jpg","37","0","1005"
"5","5","encoding","encoding","175","Clip_Paper.jpg","37","0","791"
"5","5","encoding","encoding","176","ShakerShekere.jpg","36","0","1264"
"5","5","encoding","encoding","177","Mat_Car.jpg","37","0","874"
"5","5","retrieval","new_objects","1","DartBoard.jpg","37","1","809"
"5","5","retrieval","old_objects","2","TrapAnimal.jpg","36","1","729"
"5","5","retrieval","new_objects","3","LintRemover.jpg","37","1","756"
"5","5","retrieval","new_objects","4","Igloo.jpg","37","1","638"
"5","5","retrieval","new_objects","5","Monitor.jpg","37","1","734"
"5","5","retrieval","old_objects","6","Helicopter.jpg","36","1","713"
"5","5","retrieval","new_objects","7","Hand.jpg","37","1","647"
"5","5","retrieval","old_objects","8","Toy_WoodenPlainSingle.jpg","36","1","651"
"5","5","retrieval","new_objects","9","Bird_Cardinal.jpg","37","1","504"
"5","5","retrieval","new_objects","10","Ambulance.jpg","36","0","494"
"5","5","retrieval","new_objects","11","Bowl_Cereal.jpg","37","1","754"
"5","5","retrieval","old_objects","12","Tetrahedron.jpg","36","1","607"
"5","5","retrieval","new_objects","13","Plate_Ceramic.jpg","37","1","619"
"5","5","retrieval","new_objects","14","Mitt_Blue.jpg","37","1","553"
"5","5","retrieval","old_objects","15","LumiereBeautyBeast.jpg","36","1","613"
"5","5","retrieval","new_objects","16","Balcony.jpg","37","1","540"
"5","5","retrieval","new_objects","17","AngleGrinder.jpg","37","1","468"
"5","5","retrieval","old_objects","18","ShinPads.jpg","36","1","485"
"5","5","retrieval","old_objects","19","CuttingBoard.jpg","36","1","620"
"5","5","retrieval","new_objects","20","Jars_PetFood.jpg","37","1","458"
"5","5","retrieval","new_objects","21","Mallet.jpg","37","1","455"
"5","5","retrieval","new_objects","22","BrainSagittal.jpg","37","1","447"
"5","5","retrieval","new_objects","23","Deodorant.jpg","37","1","555"
"5","5","retrieval","old_objects","24","MetalDetector.jpg","36","1","477"
"5","5","retrieval","new_objects","25","Chair_Airplane.jpg","37","1","491"
"5","5","retrieval","old_objects","26","Hawk.jpg","36","1","531"
"5","5","retrieval","new_objects","27","Candy_Toffee.jpg","37","1","551"
"5","5","retrieval","new_objects","28","Stamper.jpg","37","1","616"
"5","5","retrieval","old_objects","29","LightBulb_Blue.jpg","36","1","533"
"5","5","retrieval","old_objects","30","Hammock.jpg","36","1","539"
"5","5","retrieval","old_objects","31","Clam.jpg","36","1","596"
"5","5","retrieval","old_objects","32","Sign_HumpBridgeAhead.jpg","36","1","571"
"5","5","retrieval","old_objects","33","Speaker_OnStand.jpg","36","1","480"
"5","5","retrieval","new_objects","34","Brush_Shoe.jpg","37","1","511"
"5","5","retrieval","new_objects","35","Truck_Pickup.jpg","37","1","562"
"5","5","retrieval","old_objects","36","Light_Siren.jpg","37","0","741"
"5","5","retrieval","new_objects","37","ContactLens.jpg","37","1","597"
"5","5","retrieval","new_objects","38","SelfieStick.jpg","37","1","673"
"5","5","retrieval","new_objects","39","Sushi.jpg","37","1","646"
"5","5","retrieval","old_objects","40","Sign_NoParking.jpg","36","1","629"
"5","5","retrieval","old_objects","41","Shield_Antique.jpg","36","1","528"
"5","5","retrieval","new_objects","42","Keys_Bunch.jpg","37","1","524"
"5","5","retrieval","old_objects","43","VialLab.jpg","36","1","613"
"5","5","retrieval","old_objects","44","Balalaika.jpg","36","1","758"
"5","5","retrieval","new_objects","45","Thermos_MetalSleek.jpg","37","1","563"
"5","5","retrieval","new_objects","46","Printer.jpg","36","0","811"
"5","5","retrieval","new_objects","47","CDstack.jpg","36","0","747"
"5","5","retrieval","new_objects","48","Canteen.jpg","37","1","610"
"5","5","retrieval","old_objects","49","Hammer_Reflex.jpg","36","1","678"
"5","5","retrieval","new_objects","50","ComputerKeyboard_Backspace.jpg","37","1","695"
"5","5","retrieval","new_objects","51","TeethMould.jpg","37","1","555"
"5","5","retrieval","old_objects","52","Giraffe.jpg","36","1","583"
"5","5","retrieval","new_objects","53","Outhouse.jpg","37","1","650"
"5","5","retrieval","old_objects","54","Truck_Army.jpg","36","1","638"
"5","5","retrieval","new_objects","55","Bible.jpg","37","1","550"
"5","5","retrieval","old_objects","56","SlideViewer.jpg","36","1","566"
"5","5","retrieval","new_objects","57","Leg.jpg","37","1","521"
"5","5","retrieval","old_objects","58","Boat_Colourful.jpg","36","1","580"
"5","5","retrieval","new_objects","59","Sign_Washroom.jpg","37","1","661"
"5","5","retrieval","old_objects","60","Drum_Brazilan.jpg","36","1","543"
"5","5","retrieval","new_objects","62","Mat_Door.jpg","37","1","580"
"5","5","retrieval","old_objects","63","CertificateFramed.jpg","36","1","502"
"5","5","retrieval","old_objects","64","Toy_LambPlushie.jpg","37","0","468"
"5","5","retrieval","old_objects","65","Steeple.jpg","36","1","503"
"5","5","retrieval","new_objects","66","Bus_DoubleDecker.jpg","37","1","613"
"5","5","retrieval","old_objects","67","Drum_Ramadan.jpg","36","1","602"
"5","5","retrieval","old_objects","68","Toy_Rooster.jpg","36","1","627"
"5","5","retrieval","new_objects","69","Mask_HockeyGoalie.jpg","37","1","578"
"5","5","retrieval","new_objects","70","Bird_Peacock.jpg","37","1","699"
"5","5","retrieval","new_objects","71","Cauliflower.jpg","37","1","611"
"5","5","retrieval","old_objects","72","Bench_Concrete.jpg","37","0","655"
"5","5","retrieval","new_objects","73","Cane_Wooden.jpg","37","1","643"
"5","5","retrieval","new_objects","74","Fence_Wooden.jpg","37","1","621"
"5","5","retrieval","new_objects","75","Seahorse.jpg","37","1","559"
"5","5","retrieval","old_objects","76","Fortress.jpg","36","1","535"
"5","5","retrieval","old_objects","77","MetalChain.jpg","36","1","546"
"5","5","retrieval","old_objects","78","DrawingCompass.jpg","36","1","686"
"5","5","retrieval","new_objects","79","Pants_Jeans.jpg","37","1","583"
"5","5","retrieval","new_objects","80","Drink_Green.jpg","37","1","579"
"5","5","retrieval","old_objects","81","House_Wooden.jpg","36","1","711"
"5","5","retrieval","old_objects","82","Knife_Kitchen.jpg","36","1","606"
"5","5","retrieval","old_objects","83","Toy_FigurineSwing.jpg","36","1","619"
"5","5","retrieval","old_objects","84","Shampoo.jpg","36","1","598"
"5","5","retrieval","new_objects","85","Cart_Wooden.jpg","37","1","675"
"5","5","retrieval","old_objects","86","Fish_Swordfish.jpg","36","1","532"
"5","5","retrieval","old_objects","87","SolderingWire.jpg","36","1","659"
"5","5","retrieval","new_objects","88","Slippers.jpg","37","1","592"
"5","5","retrieval","new_objects","89","Bottle_Beer.jpg","37","1","656"
"5","5","retrieval","new_objects","90","Exercise_Stretch.jpg","37","1","743"
"5","5","retrieval","new_objects","91","DoubleBass.jpg","37","1","736"
"5","5","retrieval","old_objects","92","Candy_Cotton.jpg","36","1","603"
"5","5","retrieval","old_objects","93","Scrabble.jpg","36","1","562"
"5","5","retrieval","new_objects","94","CasketOpen.jpg","37","1","598"
"5","5","retrieval","old_objects","95","LightBulb_Christmas.jpg","36","1","649"
"5","5","retrieval","new_objects","96","Stick_Drum.jpg","37","1","551"
"5","5","retrieval","new_objects","97","PeasSplit.jpg","36","0","839"
"5","5","retrieval","new_objects","98","Grape.jpg","37","1","759"
