"group","subject","blockcode","trialcode","trialnum","values.stimulus","response","correct","latency"
"1","1","encoding","encoding","1","FoodMill.jpg","0","0","2001"
"1","1","encoding","encoding","2","Bottle_Spray.jpg","0","0","2001"
"1","1","encoding","encoding","3","MortarPestle_WhiteMarble.jpg","Ctrl+'B'","1","1206"
"1","1","retrieval","old_objects","1","CookieCutter_Bell.jpg","0","0","2001"
"1","1","retrieval","new_objects","2","MouthGuard.jpg","Ctrl+'B'","1","394"
"1","1","demographics_block","gender","1","MouthGuard.jpg","","1","1669"
"1","1","demographics_block","age","1","MouthGuard.jpg","","1","1669"
"1","1","demographics_block","education","1","MouthGuard.jpg","","1","1669"
"2","2","encoding","encoding","1","EspressoMachine.jpg","36","0","1567"
"2","2","encoding","encoding","2","Toy_Boat.jpg","37","0","497"
"2","2","encoding","encoding","3","Flower_Sun.jpg","36","0","587"
"2","2","encoding","encoding","4","Hoodie.jpg","36","0","704"
"2","2","encoding","encoding","5","Bag_Hand.jpg","37","0","932"
"2","2","encoding","encoding","6","Desk_White.jpg","36","0","745"
"2","2","encoding","encoding","7","Hat_Tuque.jpg","36","0","1378"
"2","2","encoding","encoding","8","SoapDish.jpg","0","0","2000"
"2","2","encoding","encoding","9","SkullDeer.jpg","0","0","2000"
"2","2","encoding","encoding","10","CookieCutter_Bell.jpg","0","0","2000"
"2","2","encoding","encoding","11","Cassette_Audio.jpg","0","0","2000"
"2","2","encoding","encoding","12","Pineapple.jpg","0","0","2000"
"2","2","encoding","encoding","13","Stick_Bridge.jpg","0","0","2000"
"2","2","encoding","encoding","14","Chicken_FriedWing.jpg","0","0","2000"
"2","2","encoding","encoding","15","WorldMap.jpg","0","0","2000"
"2","2","encoding","encoding","16","DayPlanner.jpg","0","0","2000"
"2","2","encoding","encoding","17","Airplane_Commercial.jpg","0","0","2000"
"2","2","encoding","encoding","18","Light_PostIsolated.jpg","0","0","2000"
"2","2","encoding","encoding","19","Cup_Bathroom.jpg","0","0","2000"
"2","2","encoding","encoding","20","Ostrich.jpg","0","0","2000"
"2","2","encoding","encoding","21","BridgeWooden.jpg","0","0","2000"
"2","2","encoding","encoding","22","Candle_ChristmasDecor.jpg","0","0","2000"
"2","2","encoding","encoding","23","BusStop.jpg","0","0","2000"
"2","2","encoding","encoding","24","MortarPestle_WhiteMarble.jpg","0","0","2000"
"2","2","encoding","encoding","25","Gloves_Winter.jpg","37","0","1382"
"2","2","encoding","encoding","26","Can_Oblong.jpg","37","0","846"
"2","2","encoding","encoding","27","Clock_Grandfather.jpg","0","0","2000"
"2","2","encoding","encoding","28","Cymbals.jpg","37","0","792"
"2","2","encoding","encoding","29","Bottle_Spray.jpg","37","0","1123"
"2","2","encoding","encoding","30","Pricegun.jpg","0","0","2000"
"2","2","encoding","encoding","31","CoffeeLid.jpg","37","0","1640"
"2","2","encoding","encoding","32","Bag_Diaper.jpg","37","0","1860"
"2","2","encoding","encoding","33","Film_Roll.jpg","37","0","947"
"2","2","encoding","encoding","34","Puffin.jpg","37","0","941"
"2","2","encoding","encoding","35","Slide.jpg","0","0","2000"
"2","2","encoding","encoding","36","Car_Ferrari.jpg","0","0","2000"
"2","2","encoding","encoding","37","Backpack_Travel.jpg","37","0","1840"
"2","2","encoding","encoding","38","Cheque.jpg","0","0","2000"
"2","2","encoding","encoding","39","Tree_ChristmasMini.jpg","0","0","2000"
"2","2","encoding","encoding","40","Scoop_Flour.jpg","37","0","1420"
"2","2","encoding","encoding","41","Trumpet.jpg","37","0","1331"
"2","2","encoding","encoding","42","Bells_Christmas.jpg","37","0","1221"
"2","2","encoding","encoding","43","Clothespin_Beige.jpg","37","0","799"
"2","2","encoding","encoding","44","Jar_Cotton.jpg","37","0","933"
"2","2","encoding","encoding","45","Toy_BlocksPlastic Colourful.jpg","37","0","1298"
"2","2","encoding","encoding","46","HairBand.jpg","37","0","896"
"2","2","encoding","encoding","47","Ball_Basketball.jpg","37","0","1009"
"2","2","encoding","encoding","48","KnifeHolder.jpg","36","0","1307"
"2","2","encoding","encoding","49","CashRegister_Modern.jpg","37","0","512"
"2","2","encoding","encoding","50","PumpBreast.jpg","37","0","761"
"2","2","encoding","encoding","51","Dog_Bulldog.jpg","36","0","898"
"2","2","encoding","encoding","52","Pasta_Shell.jpg","37","0","659"
"2","2","encoding","encoding","53","DryRack_Dishes.jpg","36","0","1437"
"2","2","encoding","encoding","54","PuppetTheatre_BlueRed.jpg","36","0","904"
"2","2","encoding","encoding","55","Guitar_Electric.jpg","36","0","1476"
"2","2","encoding","encoding","56","JumpingJack.jpg","36","0","1525"
"2","2","encoding","encoding","57","Avocado.jpg","37","0","1324"
"2","2","encoding","encoding","58","Tractor_Yellow.jpg","37","0","1462"
"2","2","encoding","encoding","59","Lychee.jpg","37","0","1461"
"2","2","encoding","encoding","60","Ball_Golf.jpg","37","0","1398"
"2","2","encoding","encoding","62","Paddle_Bread.jpg","0","0","2000"
"2","2","encoding","encoding","63","Nyala.jpg","36","0","984"
"2","2","encoding","encoding","64","Ship_Cruise.jpg","36","0","992"
"2","2","encoding","encoding","65","Drink_Cocktail.jpg","37","0","785"
"2","2","encoding","encoding","66","Notepad.jpg","37","0","795"
"2","2","encoding","encoding","67","Pants.jpg","37","0","927"
"2","2","encoding","encoding","68","Boat_Sail.jpg","36","0","891"
"2","2","encoding","encoding","69","GiftBow.jpg","37","0","1113"
"2","2","encoding","encoding","70","Chairs_Stacked.jpg","36","0","681"
"2","2","encoding","encoding","71","LeafBlower.jpg","37","0","1290"
"2","2","encoding","encoding","72","Freezer.jpg","36","0","858"
"2","2","encoding","encoding","73","Hat_Party.jpg","37","0","917"
"2","2","encoding","encoding","74","BicycleGear.jpg","36","0","1194"
"2","2","encoding","encoding","75","Lamp_TableWhite.jpg","37","0","942"
"2","2","encoding","encoding","76","Makeup_Bag.jpg","36","0","1068"
"2","2","encoding","encoding","77","Stick_IceHockey.jpg","36","0","1101"
"2","2","encoding","encoding","78","PaintRollTray.jpg","37","0","746"
"2","2","encoding","encoding","79","Broom_Long.jpg","36","0","727"
"2","2","encoding","encoding","80","Jug_ClayAncient.jpg","37","0","1021"
"2","2","encoding","encoding","81","Bulldozer.jpg","36","0","615"
"2","2","encoding","encoding","82","Wheel_Steering.jpg","37","0","1025"
"2","2","encoding","encoding","83","Ring_Diamond.jpg","37","0","1000"
"2","2","encoding","encoding","84","WateringCan_PlasticDarkGreen.jpg","36","0","887"
"2","2","encoding","encoding","85","Telescope.jpg","37","0","1036"
"2","2","encoding","encoding","86","Mattress.jpg","36","0","1038"
"2","2","encoding","encoding","87","Flower_Rose.jpg","37","0","1058"
"2","2","encoding","encoding","88","Flute_Tin.jpg","37","0","1681"
"2","2","encoding","encoding","89","Puzzle_Piece.jpg","0","0","2000"
"2","2","encoding","encoding","90","ChalkLineTool.jpg","37","0","1498"
"2","2","encoding","encoding","91","Can_GasSpout.jpg","37","0","1571"
"2","2","encoding","encoding","92","LampPost_WhiteOrnate.jpg","36","0","942"
"2","2","encoding","encoding","93","Nuts_Walnut.jpg","37","0","1737"
"2","2","encoding","encoding","94","SoundMixer_Blue.jpg","36","0","1784"
"2","2","encoding","encoding","95","ElectricOutlet.jpg","37","0","1154"
"2","2","encoding","encoding","96","KiddiePool.jpg","0","0","2000"
"2","2","encoding","encoding","97","Bottle_Champagne.jpg","0","0","2000"
"2","2","encoding","encoding","98","WaterFountain.jpg","36","0","676"
"2","2","encoding","encoding","99","Milkshake_Chocolate.jpg","37","0","810"
"2","2","encoding","encoding","100","PumiceStone.jpg","37","0","847"
"2","2","encoding","encoding","101","Hanger.jpg","37","0","851"
"2","2","encoding","encoding","102","SkiPoles.jpg","37","0","782"
"2","2","encoding","encoding","103","PaintCan.jpg","36","0","883"
"2","2","encoding","encoding","104","Camera_Antique.jpg","36","0","821"
"2","2","encoding","encoding","105","Box_Cutlery.jpg","36","0","851"
"2","2","encoding","encoding","106","fries.jpg","37","0","751"
"2","2","encoding","encoding","107","HotWaterBottle.jpg","37","0","847"
"2","2","encoding","encoding","108","Caribou.jpg","36","0","688"
"2","2","encoding","encoding","109","Guitar_Acoustic.jpg","37","0","1249"
"2","2","encoding","encoding","110","CoolingFan_Engine.jpg","36","0","788"
"2","2","encoding","encoding","111","FoodMill.jpg","37","0","809"
"2","2","encoding","encoding","112","Computer_CPU.jpg","36","0","985"
"2","2","encoding","encoding","113","Piano_Upright.jpg","36","0","765"
"2","2","encoding","encoding","114","Hook_Double.jpg","37","0","673"
"2","2","encoding","encoding","115","Lynx.jpg","36","0","773"
"2","2","encoding","encoding","116","Toy_TrailerAirport.jpg","37","0","1573"
"2","2","encoding","encoding","117","Guacamole.jpg","36","0","659"
"2","2","encoding","encoding","118","Umbrella_Classic.jpg","37","0","1063"
"2","2","encoding","encoding","119","Candleholder_Tall.jpg","36","0","978"
"2","2","encoding","encoding","120","Oneholepunch.jpg","37","0","904"
"2","2","encoding","encoding","121","Ball_Football.jpg","37","0","891"
"2","2","encoding","encoding","123","ControlPanel.jpg","36","0","1109"
"2","2","encoding","encoding","124","InflatableSleepingBag.jpg","36","0","1021"
"2","2","encoding","encoding","125","Motorcycle.jpg","36","0","793"
"2","2","encoding","encoding","126","Box_Apples.jpg","37","0","847"
"2","2","encoding","encoding","127","Cage_Bird.jpg","37","0","1349"
"2","2","encoding","encoding","128","RadioactiveContainer.jpg","36","0","737"
"2","2","encoding","encoding","129","Hat_Visor.jpg","37","0","917"
"2","2","encoding","encoding","130","Boat_Ferry.jpg","36","0","778"
"2","2","encoding","encoding","131","Decoration_Chinese.jpg","37","0","1032"
"2","2","encoding","encoding","132","Sandwich_Ham.jpg","37","0","932"
"2","2","encoding","encoding","133","Bone.jpg","37","0","925"
"2","2","encoding","encoding","134","Jacks.jpg","37","0","936"
"2","2","encoding","encoding","135","Crayon_Green.jpg","37","0","734"
"2","2","encoding","encoding","136","RemoteControl.jpg","37","0","784"
"2","2","encoding","encoding","137","AmberWithMosquito.jpg","37","0","1216"
"2","2","encoding","encoding","138","Stationary.jpg","36","0","1142"
"2","2","encoding","encoding","139","Cup_Fruits.jpg","37","0","952"
"2","2","encoding","encoding","140","Drum_Bongos.jpg","36","0","1366"
"2","2","encoding","encoding","141","MeatRaw.jpg","37","0","1222"
"2","2","encoding","encoding","142","Kite_Rainbow.jpg","37","0","1701"
"2","2","encoding","encoding","143","TelephoneJack.jpg","37","0","1091"
"2","2","encoding","encoding","144","Stethoscope.jpg","37","0","1582"
"2","2","encoding","encoding","145","Toy_MrPotatoHeadjpg.jpg","0","0","2000"
"2","2","encoding","encoding","146","IceCubes.jpg","0","0","2000"
"2","2","encoding","encoding","147","Trash_Medical.jpg","37","0","1044"
"2","2","encoding","encoding","148","Flower_Tulip.jpg","36","0","1044"
"2","2","encoding","encoding","149","Cheese_Platter.jpg","37","0","984"
"2","2","encoding","encoding","150","Bicycle_Adult.jpg","36","0","879"
"2","2","encoding","encoding","151","WatermelonSlice.jpg","37","0","873"
"2","2","encoding","encoding","152","Spraybottle.jpg","37","0","1453"
"2","2","encoding","encoding","153","PuppetTheatre_WhiteGold.jpg","36","0","1614"
"2","2","encoding","encoding","154","Playground.jpg","36","0","1370"
"2","2","encoding","encoding","155","Drum_Cymbal.jpg","37","0","1167"
"2","2","encoding","encoding","156","Bottle_Liquor.jpg","37","0","1684"
"2","2","encoding","encoding","157","RollerBlade.jpg","0","0","2000"
"2","2","encoding","encoding","158","CementFinisher.jpg","37","0","664"
"2","2","encoding","encoding","159","Box_JeweleryWooden.jpg","36","0","37"
"2","2","encoding","encoding","160","Brush_Cleaning.jpg","37","0","21"
"2","2","encoding","encoding","161","AnsweringMachine.jpg","37","0","1031"
"2","2","encoding","encoding","162","Makeup_Eyeshadow.jpg","37","0","1027"
"2","2","encoding","encoding","163","Lei.jpg","37","0","1113"
"2","2","encoding","encoding","164","PropellerFan.jpg","37","0","830"
"2","2","encoding","encoding","165","Jacket_Jean.jpg","37","0","953"
"2","2","encoding","encoding","166","FuzzyDice.jpg","37","0","1043"
"2","2","encoding","encoding","167","Statue_Buddha.jpg","37","0","1067"
"2","2","encoding","encoding","168","Bathtub.jpg","36","0","1236"
"2","2","encoding","encoding","169","Wallet_ClosedBlack.jpg","37","0","1030"
"2","2","encoding","encoding","170","HairCurler.jpg","37","0","1344"
"2","2","encoding","encoding","171","Headset.jpg","37","0","1041"
"2","2","encoding","encoding","172","Horn_French.jpg","36","0","1148"
"2","2","encoding","encoding","173","PortaPotty.jpg","36","0","1345"
"2","2","encoding","encoding","174","Lettuce_Iceberg.jpg","37","0","1236"
"2","2","encoding","encoding","175","Sign_OneWay.jpg","37","0","1857"
"2","2","encoding","encoding","176","MousepadAndMouse.jpg","37","0","1034"
"2","2","encoding","encoding","177","Cannoli.jpg","37","0","1318"
"2","2","retrieval","new_objects","1","PirateFlag.jpg","0","0","2000"
"2","2","retrieval","old_objects","2","Broom_Long.jpg","0","0","2000"
"2","2","retrieval","new_objects","3","Syringe_Blunt.jpg","37","1","1267"
"2","2","retrieval","old_objects","4","Bag_Diaper.jpg","36","1","1344"
"2","2","retrieval","old_objects","5","ElectricOutlet.jpg","36","1","990"
"2","2","retrieval","new_objects","6","Donut.jpg","37","1","1201"
"2","2","retrieval","new_objects","7","Helmet_Knight.jpg","37","1","1220"
"2","2","retrieval","new_objects","8","AirTank.jpg","37","1","1038"
"2","2","retrieval","new_objects","9","Bird_Pelican.jpg","37","1","1245"
"2","2","retrieval","old_objects","10","Puffin.jpg","36","1","1083"
"2","2","retrieval","new_objects","11","Toy_Christmastree.jpg","37","1","931"
"2","2","retrieval","old_objects","12","Guacamole.jpg","36","1","1018"
"2","2","retrieval","old_objects","13","FoodMill.jpg","36","1","1060"
"2","2","retrieval","old_objects","14","Motorcycle.jpg","36","1","847"
"2","2","retrieval","old_objects","15","GiftBow.jpg","36","1","1040"
"2","2","retrieval","old_objects","16","Bottle_Liquor.jpg","36","1","829"
"2","2","retrieval","old_objects","17","Caribou.jpg","36","1","879"
"2","2","retrieval","new_objects","18","Arm.jpg","37","1","1244"
"2","2","retrieval","new_objects","19","EyeDrops.jpg","36","0","1170"
"2","2","retrieval","new_objects","20","Shrub_Boxwood.jpg","37","1","1035"
"2","2","retrieval","old_objects","21","Brush_Cleaning.jpg","36","1","1119"
"2","2","retrieval","new_objects","22","Car_Sedan.jpg","37","1","1167"
"2","2","retrieval","old_objects","23","Toy_TrailerAirport.jpg","36","1","887"
"2","2","retrieval","old_objects","24","LampPost_WhiteOrnate.jpg","36","1","821"
"2","2","retrieval","new_objects","25","Seal_animal.jpg","37","1","1257"
"2","2","retrieval","old_objects","26","Hat_Party.jpg","36","1","905"
"2","2","retrieval","new_objects","27","Airplane_Small.jpg","37","1","821"
"2","2","retrieval","new_objects","28","HumanSkeleton.jpg","37","1","1317"
"2","2","retrieval","old_objects","29","Headset.jpg","36","1","845"
"2","2","retrieval","old_objects","30","Can_GasSpout.jpg","36","1","836"
"2","2","retrieval","old_objects","31","LeafBlower.jpg","36","1","937"
"2","2","retrieval","old_objects","32","Hat_Tuque.jpg","36","1","718"
"2","2","retrieval","old_objects","33","Jacks.jpg","36","1","730"
"2","2","retrieval","new_objects","34","Rag.jpg","37","1","860"
"2","2","retrieval","new_objects","35","Turtle.jpg","36","0","880"
"2","2","retrieval","new_objects","36","CigarCutter.jpg","37","1","1202"
"2","2","retrieval","old_objects","37","Jacket_Jean.jpg","36","1","735"
"2","2","retrieval","new_objects","38","Oars.jpg","37","1","874"
"2","2","retrieval","old_objects","39","EspressoMachine.jpg","36","1","834"
"2","2","retrieval","old_objects","40","Puzzle_Piece.jpg","37","0","793"
"2","2","retrieval","old_objects","41","Telescope.jpg","36","1","937"
"2","2","retrieval","old_objects","42","PumpBreast.jpg","36","1","934"
"2","2","retrieval","new_objects","43","DentistOverheadLight.jpg","36","0","919"
"2","2","retrieval","old_objects","44","Cup_Fruits.jpg","36","1","871"
"2","2","retrieval","old_objects","45","Boat_Ferry.jpg","36","1","690"
"2","2","retrieval","old_objects","46","Avocado.jpg","36","1","672"
"2","2","retrieval","old_objects","47","Lynx.jpg","36","1","692"
"2","2","retrieval","old_objects","48","Candleholder_Tall.jpg","36","1","905"
"2","2","retrieval","old_objects","49","Spraybottle.jpg","36","1","1179"
"2","2","retrieval","old_objects","50","Camera_Antique.jpg","36","1","644"
"2","2","retrieval","new_objects","51","Peppermill.jpg","37","1","1127"
"2","2","retrieval","new_objects","52","Tape_Clear.jpg","37","1","1181"
"2","2","retrieval","new_objects","53","Nightstand.jpg","36","0","990"
"2","2","retrieval","old_objects","54","Trash_Medical.jpg","36","1","863"
"2","2","retrieval","new_objects","55","Rock_Mimetite.jpg","37","1","995"
"2","2","retrieval","new_objects","56","Lobster.jpg","37","1","1283"
"2","2","retrieval","new_objects","57","Switch_Power.jpg","37","1","905"
"2","2","retrieval","old_objects","58","Ring_Diamond.jpg","36","1","759"
"2","2","retrieval","old_objects","59","Computer_CPU.jpg","36","1","862"
"2","2","retrieval","new_objects","60","Plum.jpg","36","0","1187"
"2","2","retrieval","old_objects","62","Toy_BlocksPlastic Colourful.jpg","36","1","862"
"2","2","retrieval","old_objects","63","TelephoneJack.jpg","36","1","1003"
"2","2","retrieval","old_objects","64","Paddle_Bread.jpg","36","1","736"
"2","2","retrieval","new_objects","65","DivingBoard.jpg","36","0","1063"
"2","2","retrieval","new_objects","66","Neckrest.jpg","37","1","914"
"2","2","retrieval","new_objects","67","SewingMachine.jpg","37","1","1152"
"2","2","retrieval","old_objects","68","Notepad.jpg","36","1","804"
"2","2","retrieval","new_objects","69","Pig.jpg","37","1","895"
"2","2","retrieval","new_objects","70","Gun_Nerf.jpg","37","1","1289"
"2","2","retrieval","new_objects","71","Toy_DinosaurBrontosaurus.jpg","37","1","761"
"2","2","retrieval","old_objects","72","Toy_Boat.jpg","37","0","750"
"2","2","retrieval","old_objects","73","WatermelonSlice.jpg","36","1","600"
"2","2","retrieval","old_objects","74","Stationary.jpg","36","1","735"
"2","2","retrieval","old_objects","75","Film_Roll.jpg","36","1","772"
"2","2","retrieval","new_objects","76","PotatoMasher_Grate.jpg","37","1","958"
"2","2","retrieval","old_objects","77","Ship_Cruise.jpg","36","1","645"
"2","2","retrieval","old_objects","78","Horn_French.jpg","36","1","672"
"2","2","retrieval","new_objects","79","Weathervane.jpg","37","1","1033"
"2","2","retrieval","new_objects","80","Lipstick.jpg","37","1","911"
"2","2","retrieval","old_objects","81","AmberWithMosquito.jpg","36","1","915"
"2","2","retrieval","new_objects","82","Toy_BearBrownPlushie.jpg","36","0","922"
"2","2","retrieval","new_objects","83","Glass_Cup.jpg","37","1","1126"
"2","2","retrieval","new_objects","84","Flute_Wooden.jpg","36","0","720"
"2","2","retrieval","new_objects","85","Sign_Airport.jpg","37","1","995"
"2","2","retrieval","new_objects","86","CarLighter.jpg","37","1","1045"
"2","2","retrieval","old_objects","87","Umbrella_Classic.jpg","36","1","793"
"2","2","retrieval","new_objects","88","FlipFlop_PairBlue.jpg","37","1","649"
"2","2","retrieval","new_objects","89","Bottle_CosmeticSpray.jpg","37","1","1371"
"2","2","retrieval","new_objects","90","PaintRoller.jpg","37","1","817"
"2","2","retrieval","new_objects","91","Napkin_Holder.jpg","37","1","896"
"2","2","retrieval","new_objects","92","Bleachers.jpg","37","1","746"
"2","2","retrieval","old_objects","93","CookieCutter_Bell.jpg","37","0","707"
"2","2","retrieval","new_objects","94","Toy_DollOffice.jpg","37","1","830"
"2","2","retrieval","new_objects","95","Partition.jpg","37","1","1089"
"2","2","retrieval","new_objects","96","Glass_bottle.jpg","37","1","704"
"2","2","retrieval","old_objects","97","CementFinisher.jpg","36","1","1215"
"2","2","retrieval","old_objects","98","fries.jpg","36","1","723"
"2","2","retrieval","old_objects","99","SoundMixer_Blue.jpg","36","1","1232"
"2","2","retrieval","new_objects","100","Pencil.jpg","37","1","794"
"2","2","retrieval","old_objects","101","PumiceStone.jpg","36","1","780"
"2","2","retrieval","new_objects","102","ChessPiece_Knight.jpg","37","1","1060"
"2","2","retrieval","old_objects","103","Statue_Buddha.jpg","36","1","1273"
"2","2","retrieval","new_objects","104","EnglishMuffin.jpg","36","0","1058"
"2","2","retrieval","old_objects","105","Pricegun.jpg","36","1","1467"
"2","2","retrieval","old_objects","106","Bottle_Champagne.jpg","36","1","909"
"2","2","retrieval","old_objects","107","Cup_Bathroom.jpg","37","0","885"
"2","2","retrieval","new_objects","108","Toy_Bat.jpg","37","1","854"
"2","2","retrieval","old_objects","109","CashRegister_Modern.jpg","36","1","800"
"2","2","retrieval","new_objects","110","Toy_Stroller.jpg","37","1","1079"
"2","2","retrieval","old_objects","111","Nuts_Walnut.jpg","36","1","1212"
"2","2","retrieval","old_objects","112","Clothespin_Beige.jpg","37","0","767"
"2","2","retrieval","new_objects","113","IceScraper.jpg","37","1","1014"
"2","2","retrieval","new_objects","114","HandRake.jpg","37","1","1320"
"2","2","retrieval","new_objects","115","Chair_Rocking.jpg","37","1","934"
"2","2","retrieval","old_objects","116","Milkshake_Chocolate.jpg","37","0","650"
"2","2","retrieval","new_objects","117","PaperStack.jpg","37","1","1090"
"2","2","retrieval","new_objects","118","Toy_Moose.jpg","0","0","2000"
"2","2","retrieval","new_objects","119","BinRecycling.jpg","37","1","1359"
"2","2","retrieval","old_objects","120","Cassette_Audio.jpg","37","0","1093"
"2","2","retrieval","new_objects","121","DrillBit.jpg","37","1","941"
"2","2","retrieval","old_objects","123","JumpingJack.jpg","36","1","1899"
"2","2","retrieval","old_objects","124","Hanger.jpg","0","0","2000"
"2","2","retrieval","new_objects","125","Pot_Crock.jpg","37","1","952"
"2","2","retrieval","old_objects","126","Drum_Bongos.jpg","36","1","981"
"2","2","retrieval","new_objects","127","Candy_Chocolate.jpg","37","1","781"
"2","2","retrieval","new_objects","128","Seeder.jpg","37","1","1216"
"2","2","retrieval","old_objects","129","HairCurler.jpg","37","0","842"
"2","2","retrieval","old_objects","130","Bottle_Spray.jpg","36","1","1372"
"2","2","retrieval","old_objects","131","HotWaterBottle.jpg","0","0","2000"
"2","2","retrieval","old_objects","132","InflatableSleepingBag.jpg","36","1","788"
"2","2","retrieval","old_objects","133","Bulldozer.jpg","36","1","1598"
"2","2","retrieval","old_objects","134","Guitar_Electric.jpg","36","1","1007"
"2","2","retrieval","old_objects","135","MortarPestle_WhiteMarble.jpg","36","1","1120"
"2","2","retrieval","old_objects","136","Mattress.jpg","36","1","1149"
"2","2","retrieval","old_objects","137","SoapDish.jpg","36","1","662"
"2","2","retrieval","new_objects","138","Toaster_Antique.jpg","0","0","2000"
"2","2","retrieval","new_objects","139","Dill.jpg","37","1","757"
"2","2","retrieval","old_objects","140","BusStop.jpg","36","1","1060"
"2","2","retrieval","new_objects","141","Bucket_WoodenLight.jpg","37","1","838"
"2","2","retrieval","new_objects","142","SaxophoneSoprano.jpg","36","0","1474"
"2","2","retrieval","old_objects","143","BicycleGear.jpg","36","1","822"
"2","2","retrieval","new_objects","144","Coconut.jpg","37","1","683"
"2","2","retrieval","old_objects","145","DryRack_Dishes.jpg","36","1","633"
"2","2","retrieval","old_objects","146","WorldMap.jpg","37","0","529"
"2","2","retrieval","old_objects","147","Lettuce_Iceberg.jpg","36","1","1238"
"2","2","retrieval","old_objects","148","CoffeeLid.jpg","0","0","2000"
"2","2","retrieval","old_objects","149","Bicycle_Adult.jpg","0","0","2000"
"2","2","retrieval","old_objects","150","Flower_Tulip.jpg","37","0","1876"
"2","2","retrieval","old_objects","151","MousepadAndMouse.jpg","37","0","1189"
"2","2","retrieval","new_objects","152","SpaceShuttle.jpg","36","0","748"
"2","2","retrieval","old_objects","153","Hook_Double.jpg","37","0","709"
"2","2","retrieval","old_objects","154","Box_Apples.jpg","36","1","754"
"2","2","retrieval","new_objects","155","BicycleWheelRusty.jpg","37","1","1175"
"2","2","retrieval","new_objects","156","CoolingFan_Engine2.jpg","36","0","1228"
"2","2","retrieval","new_objects","157","Can_Peas.jpg","37","1","984"
"2","2","retrieval","new_objects","158","Hockey_Equipment.jpg","36","0","1720"
"2","2","retrieval","new_objects","159","Chair_Student.jpg","37","1","947"
"2","2","retrieval","old_objects","160","Bag_Hand.jpg","36","1","1154"
"2","2","retrieval","old_objects","161","Lei.jpg","36","1","1082"
"2","2","retrieval","new_objects","162","MouthGuard.jpg","37","1","1242"
"2","2","retrieval","new_objects","163","CoffeeBeans.jpg","37","1","906"
"2","2","retrieval","old_objects","164","Pasta_Shell.jpg","36","1","1575"
"2","2","retrieval","old_objects","165","Hat_Visor.jpg","36","1","875"
"2","2","retrieval","old_objects","166","IceCubes.jpg","36","1","956"
"2","2","retrieval","old_objects","167","Playground.jpg","36","1","852"
"2","2","retrieval","old_objects","168","PortaPotty.jpg","0","0","2000"
"2","2","retrieval","new_objects","169","Shrimp.jpg","37","1","680"
"2","2","retrieval","old_objects","170","Chicken_FriedWing.jpg","37","0","1190"
"2","2","retrieval","new_objects","171","Licorice.jpg","37","1","761"
"2","2","retrieval","new_objects","172","Bottle_BubbleBlower.jpg","37","1","1079"
"2","2","retrieval","old_objects","173","SkullDeer.jpg","37","0","956"
"2","2","retrieval","new_objects","174","SculptureMetalFish.jpg","37","1","712"
"2","2","retrieval","old_objects","175","Chairs_Stacked.jpg","36","1","798"
"2","2","retrieval","new_objects","176","Snowboard.jpg","37","1","1127"
"2","2","retrieval","old_objects","177","Pineapple.jpg","37","0","1793"
"2","2","retrieval","new_objects","178","Lock_Bike.jpg","0","0","2000"
"2","2","retrieval","old_objects","179","WateringCan_PlasticDarkGreen.jpg","36","1","934"
"2","2","retrieval","old_objects","180","Stethoscope.jpg","37","0","1361"
"2","2","retrieval","old_objects","181","Drum_Cymbal.jpg","37","0","1864"
"2","2","retrieval","new_objects","182","JukeboxAntique.jpg","37","1","1116"
"2","2","retrieval","old_objects","184","Sandwich_Ham.jpg","36","1","1336"
"2","2","retrieval","new_objects","185","BunsenBurner.jpg","37","1","891"
"2","2","retrieval","old_objects","186","RollerBlade.jpg","36","1","738"
"2","2","retrieval","new_objects","187","Toy_Tractor_1.jpg","0","0","2000"
"2","2","retrieval","old_objects","188","Trumpet.jpg","0","0","2000"
"2","2","retrieval","new_objects","189","Chair_Dining.jpg","36","0","1365"
"2","2","retrieval","old_objects","190","Gloves_Winter.jpg","0","0","2000"
"2","2","retrieval","old_objects","191","Guitar_Acoustic.jpg","36","1","868"
"2","2","retrieval","old_objects","192","Flower_Sun.jpg","0","0","2000"
"2","2","retrieval","old_objects","193","Light_PostIsolated.jpg","0","0","2000"
"2","2","retrieval","new_objects","194","DrinkingFountain.jpg","37","1","958"
"2","2","retrieval","old_objects","195","Freezer.jpg","0","0","2000"
"2","2","retrieval","new_objects","196","Iron_Antique.jpg","37","1","1099"
"2","2","retrieval","new_objects","197","Cow.jpg","37","1","1101"
"2","2","retrieval","old_objects","198","Jar_Cotton.jpg","0","0","2000"
"2","2","retrieval","old_objects","199","Ball_Golf.jpg","0","0","2000"
"2","2","retrieval","new_objects","200","Gecko.jpg","37","1","1595"
"2","2","retrieval","old_objects","201","Cannoli.jpg","37","0","653"
"2","2","retrieval","new_objects","202","Toy_BlocksLetter.jpg","37","1","692"
"2","2","retrieval","new_objects","203","Bowl_Flour.jpg","37","1","611"
"2","2","retrieval","old_objects","204","Kite_Rainbow.jpg","37","0","549"
"2","2","retrieval","new_objects","205","DustPan.jpg","36","0","1101"
"2","2","retrieval","new_objects","206","TowerEiffel.jpg","37","1","876"
"2","2","retrieval","old_objects","207","KnifeHolder.jpg","36","1","867"
"2","2","retrieval","new_objects","208","Wheelbarrow_Green.jpg","37","1","1114"
"2","2","retrieval","new_objects","209","Magnet_Three.jpg","36","0","839"
"2","2","retrieval","new_objects","210","ButterChurn.jpg","37","1","855"
"2","2","retrieval","new_objects","211","Ruler_Metal.jpg","37","1","731"
"2","2","retrieval","old_objects","212","SkiPoles.jpg","37","0","696"
"2","2","retrieval","new_objects","213","Ashtray_Cigarettes.jpg","37","1","938"
"2","2","retrieval","new_objects","214","VGAport.jpg","37","1","688"
"2","2","retrieval","old_objects","215","Drink_Cocktail.jpg","37","0","1094"
"2","2","retrieval","old_objects","216","Ball_Football.jpg","37","0","626"
"2","2","retrieval","new_objects","217","Hammer.jpg","37","1","824"
"2","2","retrieval","old_objects","218","Bathtub.jpg","36","1","890"
"2","2","retrieval","new_objects","219","ComputerKeyboard.jpg","37","1","958"
"2","2","retrieval","new_objects","220","CandleSnuffer.jpg","37","1","859"
"2","2","retrieval","new_objects","221","Case_Leather.jpg","37","1","860"
"2","2","retrieval","new_objects","222","Trophy.jpg","37","1","1078"
"2","2","retrieval","old_objects","223","Cymbals.jpg","36","1","870"
"2","2","retrieval","new_objects","224","Shoe_Men.jpg","37","1","899"
"2","2","retrieval","new_objects","225","Bird_Budgie.jpg","37","1","781"
"2","2","retrieval","new_objects","226","Mask_Ski.jpg","37","1","1115"
"2","2","retrieval","old_objects","227","Desk_White.jpg","36","1","756"
"2","2","retrieval","new_objects","228","CrepeMaker.jpg","37","1","782"
"2","2","retrieval","old_objects","229","Cheese_Platter.jpg","37","0","907"
"2","2","retrieval","new_objects","230","GogglesSwim.jpg","37","1","758"
"2","2","retrieval","new_objects","231","Glass_Beer.jpg","37","1","709"
"2","2","retrieval","new_objects","232","Wreath.jpg","37","1","665"
"2","2","retrieval","old_objects","233","Stick_IceHockey.jpg","37","0","563"
"2","2","retrieval","new_objects","234","Stove_Propane.jpg","37","1","461"
"2","2","retrieval","new_objects","235","Spatula.jpg","37","1","697"
"2","2","retrieval","new_objects","236","Toy_Zebra.jpg","37","1","564"
"2","2","retrieval","new_objects","237","Stool_Wood.jpg","37","1","982"
"2","2","retrieval","new_objects","238","PanCooking.jpg","37","1","775"
"2","2","retrieval","new_objects","239","Hay.jpg","37","1","737"
"2","2","retrieval","new_objects","240","Toy_RockingHorseBeige.jpg","37","1","632"
"2","2","retrieval","old_objects","241","PuppetTheatre_BlueRed.jpg","36","1","874"
"2","2","retrieval","new_objects","242","Boxcutter.jpg","37","1","748"
"2","2","retrieval","new_objects","243","Bicycle_Kids.jpg","37","1","986"
"2","2","retrieval","new_objects","245","MeatGrinder.jpg","36","0","1202"
"2","2","retrieval","old_objects","246","Flower_Rose.jpg","37","0","772"
"2","2","retrieval","old_objects","247","Bone.jpg","37","0","857"
"2","2","retrieval","new_objects","248","Binder.jpg","37","1","651"
"2","2","retrieval","old_objects","249","Crayon_Green.jpg","37","0","620"
"2","2","retrieval","old_objects","250","Airplane_Commercial.jpg","37","0","516"
"2","2","retrieval","new_objects","251","Bowl_Chinese.jpg","37","1","687"
"2","2","retrieval","new_objects","252","ShotGlassTray.jpg","37","1","756"
"2","2","retrieval","old_objects","253","BridgeWooden.jpg","37","0","810"
"2","2","retrieval","new_objects","254","Jar_Capers.jpg","37","1","722"
"2","2","retrieval","old_objects","255","FuzzyDice.jpg","37","0","957"
"2","2","retrieval","new_objects","256","Magnifying_Glass.jpg","37","1","1090"
"2","2","retrieval","old_objects","257","Toy_MrPotatoHeadjpg.jpg","37","0","644"
"2","2","retrieval","old_objects","258","Candle_ChristmasDecor.jpg","37","0","627"
"2","2","retrieval","old_objects","259","HairBand.jpg","37","0","750"
"2","2","retrieval","old_objects","260","Clock_Grandfather.jpg","36","1","677"
"2","2","retrieval","new_objects","261","Armchair.jpg","37","1","786"
"2","2","retrieval","new_objects","262","Phone_Public.jpg","37","1","698"
"2","2","retrieval","old_objects","263","MeatRaw.jpg","37","0","879"
"2","2","retrieval","new_objects","264","HerbsInBag.jpg","0","0","2000"
"2","2","retrieval","new_objects","265","Chicken_FriedDrum.jpg","37","1","597"
"2","2","retrieval","old_objects","266","CoolingFan_Engine.jpg","37","0","658"
"2","2","retrieval","old_objects","267","Lychee.jpg","37","0","770"
"2","2","retrieval","old_objects","268","Jug_ClayAncient.jpg","36","1","1000"
"2","2","retrieval","new_objects","269","Leaf_Green.jpg","37","1","721"
"2","2","retrieval","old_objects","270","Tree_ChristmasMini.jpg","37","0","797"
"2","2","retrieval","old_objects","271","Flute_Tin.jpg","36","1","697"
"2","2","retrieval","old_objects","272","Makeup_Eyeshadow.jpg","37","0","800"
"2","2","retrieval","new_objects","273","Bowl_Fruits.jpg","36","0","914"
"2","2","retrieval","new_objects","274","PoliceTape.jpg","37","1","693"
"2","2","retrieval","old_objects","275","DayPlanner.jpg","37","0","835"
"2","2","retrieval","old_objects","276","WaterFountain.jpg","37","0","836"
"2","2","retrieval","new_objects","277","Vest.jpg","36","0","895"
"2","2","retrieval","new_objects","278","ScannerShoplifting.jpg","37","1","719"
"2","2","retrieval","new_objects","279","Bag_Groceries.jpg","37","1","746"
"2","2","retrieval","new_objects","280","TinChristmas.jpg","37","1","656"
"2","2","retrieval","old_objects","281","RadioactiveContainer.jpg","37","0","460"
"2","2","retrieval","old_objects","282","Boat_Sail.jpg","36","1","709"
"2","2","retrieval","old_objects","283","Pants.jpg","36","1","713"
"2","2","retrieval","old_objects","284","Sign_OneWay.jpg","36","1","939"
"2","2","retrieval","new_objects","285","Tube_Paint.jpg","37","1","781"
"2","2","retrieval","new_objects","286","Wardrobe.jpg","36","0","783"
"2","2","retrieval","new_objects","287","Ball_Tennis.jpg","37","1","690"
"2","2","retrieval","new_objects","288","Peeler.jpg","37","1","1160"
"2","2","retrieval","old_objects","289","Backpack_Travel.jpg","36","1","1346"
"2","2","retrieval","old_objects","290","Can_Oblong.jpg","36","1","1002"
"2","2","retrieval","new_objects","291","Envelope_Manila.jpg","37","1","833"
"2","2","retrieval","new_objects","292","Fence_ChainLink.jpg","37","1","771"
"2","2","retrieval","old_objects","293","ChalkLineTool.jpg","37","0","658"
"2","2","retrieval","new_objects","294","Paddle_PingPong.jpg","37","1","841"
"2","2","retrieval","old_objects","295","AnsweringMachine.jpg","36","1","1110"
"2","2","retrieval","old_objects","296","Box_Cutlery.jpg","36","1","736"
"2","2","retrieval","new_objects","297","Clock_Digital.jpg","37","1","820"
"2","2","retrieval","old_objects","298","Ball_Basketball.jpg","36","1","877"
"2","2","retrieval","old_objects","299","Piano_Upright.jpg","36","1","657"
"2","2","retrieval","old_objects","300","PropellerFan.jpg","37","0","741"
"2","2","retrieval","new_objects","301","FireExtinguisher.jpg","37","1","914"
"2","2","retrieval","new_objects","302","Instrument_Guiro.jpg","37","1","1050"
"2","2","retrieval","old_objects","303","ControlPanel.jpg","37","0","1350"
"2","2","retrieval","old_objects","304","Scoop_Flour.jpg","36","1","744"
"2","2","retrieval","new_objects","306","Bed_Hospital.jpg","0","0","2000"
"2","2","retrieval","new_objects","307","Corkscrew.jpg","37","1","138"
"2","2","retrieval","new_objects","308","Oyster.jpg","37","1","25"
"2","2","retrieval","old_objects","309","Cheque.jpg","37","0","84"
"2","2","retrieval","new_objects","310","Tag_Price.jpg","37","1","51"
"2","2","retrieval","old_objects","311","Wheel_Steering.jpg","37","0","88"
"2","2","retrieval","new_objects","312","Cup_Latte.jpg","36","0","14"
"2","2","retrieval","new_objects","313","Paratrooper.jpg","37","1","58"
"2","2","retrieval","new_objects","314","Seashell_RoseMurex.jpg","37","1","205"
"2","2","retrieval","new_objects","315","Snail.jpg","37","1","92"
"2","2","retrieval","old_objects","316","Wallet_ClosedBlack.jpg","37","0","5"
"2","2","retrieval","old_objects","317","Cage_Bird.jpg","36","1","18"
"2","2","retrieval","old_objects","318","Bells_Christmas.jpg","37","0","76"
"2","2","retrieval","old_objects","319","RemoteControl.jpg","37","0","94"
"2","2","retrieval","old_objects","320","Hoodie.jpg","37","0","5"
"2","2","retrieval","new_objects","321","Button.jpg","36","0","48"
"2","2","retrieval","new_objects","322","Clip_Chip.jpg","36","0","98"
"2","2","retrieval","new_objects","323","Stove_Camping.jpg","37","1","12"
"2","2","retrieval","new_objects","324","MassageRoller.jpg","37","1","1309"
"2","2","retrieval","old_objects","325","PaintCan.jpg","37","0","71"
"2","2","retrieval","new_objects","326","AlarmSystem.jpg","36","0","66"
"2","2","retrieval","old_objects","327","Nyala.jpg","37","0","100"
"2","2","retrieval","new_objects","328","Fork_Fondue.jpg","36","0","93"
"2","2","retrieval","old_objects","329","Stick_Bridge.jpg","36","1","23"
"2","2","retrieval","new_objects","330","WindowBlinds.jpg","36","0","10"
"2","2","retrieval","old_objects","331","Dog_Bulldog.jpg","36","1","70"
"2","2","retrieval","new_objects","332","Suitcase.jpg","37","1","859"
"2","2","retrieval","new_objects","333","Puzzle_Tree.jpg","37","1","683"
"2","2","retrieval","old_objects","334","Box_JeweleryWooden.jpg","37","0","543"
"2","2","retrieval","old_objects","335","PaintRollTray.jpg","37","0","1260"
"2","2","retrieval","new_objects","336","CheeseSlicer.jpg","37","1","866"
"2","2","retrieval","old_objects","337","Makeup_Bag.jpg","37","0","938"
"2","2","retrieval","old_objects","338","KiddiePool.jpg","0","0","2000"
"2","2","retrieval","old_objects","339","Lamp_TableWhite.jpg","37","0","500"
"2","2","retrieval","new_objects","340","Telephone_DialAntique.jpg","37","1","753"
"2","2","retrieval","new_objects","341","Candelabra.jpg","37","1","876"
"2","2","retrieval","new_objects","342","Mixer_Cement.jpg","37","1","837"
"2","2","retrieval","old_objects","343","Car_Ferrari.jpg","37","0","109"
"2","2","retrieval","new_objects","344","Shovel_Garden.jpg","37","1","462"
"2","2","retrieval","old_objects","345","Tractor_Yellow.jpg","36","1","696"
"2","2","retrieval","old_objects","346","Ostrich.jpg","37","0","1195"
"2","2","retrieval","new_objects","347","Cat.jpg","37","1","964"
"2","2","retrieval","old_objects","348","Decoration_Chinese.jpg","36","1","780"
"2","2","retrieval","old_objects","349","PuppetTheatre_WhiteGold.jpg","37","0","64"
"2","2","retrieval","old_objects","350","Slide.jpg","37","0","89"
"2","2","retrieval","old_objects","351","Oneholepunch.jpg","36","1","101"
"2","2","retrieval","new_objects","352","Fan_Straw.jpg","36","0","102"
"2","2","retrieval","new_objects","353","Toolbox_RedOpen.jpg","36","0","79"
"2","2","retrieval","new_objects","354","Cart_Janitor.jpg","37","1","20"
"2","2","retrieval","new_objects","355","Scissors.jpg","37","1","30"
"2","2","demographics_block","gender","1","Scissors.jpg","female","1","35529"
"2","2","demographics_block","age","1","Scissors.jpg","35","1","35529"
"2","2","demographics_block","education","1","Scissors.jpg","4year college","1","35529"
"2","2","demographics_block","left_right_handed","2","Scissors.jpg","Right","1","20316"
"2","2","demographics_block","raceoption1","2","Scissors.jpg","0","1","20316"
"2","2","demographics_block","raceoption2","2","Scissors.jpg","","1","20316"
"2","2","demographics_block","raceoption3","2","Scissors.jpg","","1","20316"
"2","2","demographics_block","raceoption4","2","Scissors.jpg","","1","20316"
"2","2","demographics_block","raceoption5","2","Scissors.jpg","","1","20316"
"2","2","demographics_block","raceoption6","2","Scissors.jpg","","1","20316"
"2","2","demographics_block","raceoption7","2","Scissors.jpg","","1","20316"
"2","2","demographics_block","raceoption8","2","Scissors.jpg","","1","20316"
"2","2","demographics_block","raceoption9","2","Scissors.jpg","","1","20316"
"2","2","demographics_block","raceother","2","Scissors.jpg","","1","20316"
"2","2","demographics_block","raceother","2","Scissors.jpg","","1","20316"
"2","2","demographics_block","english_language","2","Scissors.jpg","Yes","1","20316"
"2","2","demographics_block","english_languageother","2","Scissors.jpg","","1","20316"
"2","2","demographics_block","eyesight","3","Scissors.jpg","Yes","1","6008"
"2","2","demographics_block","colorblind","3","Scissors.jpg","Yes","1","6008"
"2","2","worker_id_block","worker_id_textbox","1","Scissors.jpg","","1","106333"
"5","5","encoding","encoding","1","Ball_Golf.jpg","37","0","1117"
"5","5","encoding","encoding","2","WaterFountain.jpg","36","0","749"
"5","5","encoding","encoding","3","Puzzle_Piece.jpg","37","0","644"
"5","5","encoding","encoding","4","Tree_ChristmasMini.jpg","36","0","1276"
"5","5","encoding","encoding","5","Gloves_Winter.jpg","37","0","734"
"5","5","encoding","encoding","6","PumiceStone.jpg","37","0","636"
"5","5","encoding","encoding","7","Hanger.jpg","0","0","2000"
"5","5","encoding","encoding","8","HotWaterBottle.jpg","37","0","1015"
"5","5","encoding","encoding","9","Playground.jpg","36","0","627"
"5","5","encoding","encoding","10","PumpBreast.jpg","37","0","560"
"5","5","encoding","encoding","11","Desk_White.jpg","36","0","564"
"5","5","encoding","encoding","12","Boat_Sail.jpg","36","0","585"
"5","5","encoding","encoding","13","TelephoneJack.jpg","37","0","968"
"5","5","encoding","encoding","14","Clock_Grandfather.jpg","36","0","603"
"5","5","encoding","encoding","15","Decoration_Chinese.jpg","37","0","666"
"5","5","encoding","encoding","16","Cannoli.jpg","37","0","810"
"5","5","encoding","encoding","17","PuppetTheatre_WhiteGold.jpg","36","0","708"
"5","5","encoding","encoding","18","WateringCan_PlasticDarkGreen.jpg","37","0","571"
"5","5","encoding","encoding","19","Box_JeweleryWooden.jpg","37","0","763"
"5","5","encoding","encoding","20","MousepadAndMouse.jpg","37","0","812"
"5","5","encoding","encoding","21","ChalkLineTool.jpg","37","0","591"
"5","5","encoding","encoding","22","DayPlanner.jpg","37","0","551"
"5","5","encoding","encoding","23","Bells_Christmas.jpg","37","0","622"
"5","5","encoding","encoding","24","Stethoscope.jpg","37","0","844"
"5","5","encoding","encoding","25","Stationary.jpg","36","0","1727"
"5","5","encoding","encoding","26","HairCurler.jpg","37","0","657"
"5","5","encoding","encoding","27","PaintRollTray.jpg","37","0","649"
"5","5","encoding","encoding","28","Umbrella_Classic.jpg","36","0","795"
"5","5","encoding","encoding","29","Lamp_TableWhite.jpg","36","0","775"
"5","5","encoding","encoding","30","Cup_Fruits.jpg","37","0","636"
"5","5","encoding","encoding","31","CoolingFan_Engine.jpg","36","0","826"
"5","5","encoding","encoding","32","KiddiePool.jpg","37","0","539"
"5","5","encoding","encoding","33","WatermelonSlice.jpg","37","0","527"
"5","5","encoding","encoding","34","Oneholepunch.jpg","37","0","543"
"5","5","encoding","encoding","35","Paddle_Bread.jpg","37","0","570"
"5","5","encoding","encoding","36","Guitar_Electric.jpg","36","0","536"
"5","5","encoding","encoding","37","Computer_CPU.jpg","37","0","868"
"5","5","encoding","encoding","38","CoffeeLid.jpg","37","0","1330"
"5","5","encoding","encoding","39","Drum_Cymbal.jpg","36","0","1442"
"5","5","encoding","encoding","40","Hat_Tuque.jpg","37","0","446"
"5","5","encoding","encoding","41","ElectricOutlet.jpg","37","0","640"
"5","5","encoding","encoding","42","KnifeHolder.jpg","37","0","1024"
"5","5","encoding","encoding","43","Statue_Buddha.jpg","36","0","1250"
"5","5","encoding","encoding","44","GiftBow.jpg","37","0","641"
"5","5","encoding","encoding","45","Dog_Bulldog.jpg","36","0","708"
"5","5","encoding","encoding","46","Cassette_Audio.jpg","37","0","927"
"5","5","encoding","encoding","47","Jug_ClayAncient.jpg","36","0","690"
"5","5","encoding","encoding","48","RadioactiveContainer.jpg","36","0","573"
"5","5","encoding","encoding","49","InflatableSleepingBag.jpg","37","0","1018"
"5","5","encoding","encoding","50","Stick_IceHockey.jpg","36","0","564"
"5","5","encoding","encoding","51","Bag_Hand.jpg","37","0","951"
"5","5","encoding","encoding","52","LeafBlower.jpg","37","0","1151"
"5","5","encoding","encoding","53","Cymbals.jpg","37","0","752"
"5","5","encoding","encoding","54","Cup_Bathroom.jpg","36","0","507"
"5","5","encoding","encoding","55","Sandwich_Ham.jpg","37","0","578"
"5","5","encoding","encoding","56","CookieCutter_Bell.jpg","37","0","538"
"5","5","encoding","encoding","57","Hook_Double.jpg","37","0","544"
"5","5","encoding","encoding","58","Camera_Antique.jpg","37","0","1082"
"5","5","encoding","encoding","59","Wheel_Steering.jpg","37","0","599"
"5","5","encoding","encoding","60","Tractor_Yellow.jpg","36","0","589"
"5","5","encoding","encoding","62","Flower_Tulip.jpg","37","0","873"
"5","5","encoding","encoding","63","Flower_Rose.jpg","37","0","591"
"5","5","encoding","encoding","64","BridgeWooden.jpg","36","0","976"
"5","5","encoding","encoding","65","Toy_MrPotatoHeadjpg.jpg","37","0","1119"
"5","5","encoding","encoding","66","Freezer.jpg","36","0","1146"
"5","5","encoding","encoding","67","BusStop.jpg","36","0","1021"
"5","5","encoding","encoding","68","Chairs_Stacked.jpg","36","0","587"
"5","5","encoding","encoding","69","RollerBlade.jpg","37","0","1239"
"5","5","encoding","encoding","70","Ball_Basketball.jpg","36","0","946"
"5","5","encoding","encoding","71","fries.jpg","37","0","644"
"5","5","encoding","encoding","72","Flute_Tin.jpg","37","0","1542"
"5","5","encoding","encoding","73","Nyala.jpg","36","0","617"
"5","5","encoding","encoding","74","Can_GasSpout.jpg","37","0","1060"
"5","5","encoding","encoding","75","Drink_Cocktail.jpg","37","0","607"
"5","5","encoding","encoding","76","Ball_Football.jpg","37","0","765"
"5","5","encoding","encoding","77","CementFinisher.jpg","37","0","790"
"5","5","encoding","encoding","78","Car_Ferrari.jpg","36","0","594"
"5","5","encoding","encoding","79","MeatRaw.jpg","37","0","869"
"5","5","encoding","encoding","80","Sign_OneWay.jpg","37","0","846"
"5","5","encoding","encoding","81","Clothespin_Beige.jpg","37","0","538"
"5","5","encoding","encoding","82","Jacks.jpg","36","0","945"
"5","5","encoding","encoding","83","Toy_BlocksPlastic Colourful.jpg","37","0","590"
"5","5","encoding","encoding","84","Backpack_Travel.jpg","36","0","1023"
"5","5","encoding","encoding","85","Chicken_FriedWing.jpg","37","0","655"
"5","5","encoding","encoding","86","CashRegister_Modern.jpg","36","0","635"
"5","5","encoding","encoding","87","Hat_Visor.jpg","37","0","649"
"5","5","encoding","encoding","88","Hat_Party.jpg","37","0","538"
"5","5","encoding","encoding","89","Pasta_Shell.jpg","37","0","1090"
"5","5","encoding","encoding","90","MortarPestle_WhiteMarble.jpg","37","0","699"
"5","5","encoding","encoding","91","Mattress.jpg","37","0","828"
"5","5","encoding","encoding","92","Crayon_Green.jpg","0","0","2000"
"5","5","encoding","encoding","93","Bathtub.jpg","36","0","1807"
"5","5","encoding","encoding","94","Headset.jpg","37","0","547"
"5","5","encoding","encoding","95","Jar_Cotton.jpg","37","0","950"
"5","5","encoding","encoding","96","Airplane_Commercial.jpg","36","0","611"
"5","5","encoding","encoding","97","Cage_Bird.jpg","36","0","804"
"5","5","encoding","encoding","98","Box_Apples.jpg","36","0","969"
"5","5","encoding","encoding","99","HairBand.jpg","37","0","683"
"5","5","encoding","encoding","100","Lei.jpg","37","0","827"
"5","5","encoding","encoding","101","Makeup_Bag.jpg","36","0","1655"
"5","5","encoding","encoding","102","FuzzyDice.jpg","37","0","581"
"5","5","encoding","encoding","103","DryRack_Dishes.jpg","36","0","650"
"5","5","encoding","encoding","104","Toy_TrailerAirport.jpg","37","0","1212"
"5","5","encoding","encoding","105","Trash_Medical.jpg","36","0","570"
"5","5","encoding","encoding","106","Bottle_Champagne.jpg","37","0","667"
"5","5","encoding","encoding","107","Candle_ChristmasDecor.jpg","37","0","939"
"5","5","encoding","encoding","108","Candleholder_Tall.jpg","36","0","649"
"5","5","encoding","encoding","109","Scoop_Flour.jpg","37","0","648"
"5","5","encoding","encoding","110","Bulldozer.jpg","36","0","517"
"5","5","encoding","encoding","111","SoundMixer_Blue.jpg","36","0","613"
"5","5","encoding","encoding","112","AmberWithMosquito.jpg","37","0","630"
"5","5","encoding","encoding","113","Telescope.jpg","36","0","878"
"5","5","encoding","encoding","114","Horn_French.jpg","36","0","1065"
"5","5","encoding","encoding","115","Milkshake_Chocolate.jpg","37","0","614"
"5","5","encoding","encoding","116","PropellerFan.jpg","36","0","904"
"5","5","encoding","encoding","117","Puffin.jpg","37","0","716"
"5","5","encoding","encoding","118","Lettuce_Iceberg.jpg","37","0","961"
"5","5","encoding","encoding","119","FoodMill.jpg","37","0","832"
"5","5","encoding","encoding","120","Box_Cutlery.jpg","36","0","604"
"5","5","encoding","encoding","121","Bottle_Liquor.jpg","37","0","705"
"5","5","encoding","encoding","123","Jacket_Jean.jpg","0","0","2000"
"5","5","encoding","encoding","124","SkiPoles.jpg","36","0","688"
"5","5","encoding","encoding","125","Boat_Ferry.jpg","36","0","523"
"5","5","encoding","encoding","126","Pants.jpg","37","0","1616"
"5","5","encoding","encoding","127","Brush_Cleaning.jpg","37","0","655"
"5","5","encoding","encoding","128","Bag_Diaper.jpg","36","0","550"
"5","5","encoding","encoding","129","Kite_Rainbow.jpg","37","0","1060"
"5","5","encoding","encoding","130","Lynx.jpg","36","0","557"
"5","5","encoding","encoding","131","Bottle_Spray.jpg","37","0","642"
"5","5","encoding","encoding","132","SoapDish.jpg","37","0","647"
"5","5","encoding","encoding","133","Trumpet.jpg","36","0","766"
"5","5","encoding","encoding","134","Wallet_ClosedBlack.jpg","37","0","845"
"5","5","encoding","encoding","135","BicycleGear.jpg","37","0","905"
"5","5","encoding","encoding","136","Cheese_Platter.jpg","37","0","622"
"5","5","encoding","encoding","137","Guitar_Acoustic.jpg","36","0","571"
"5","5","encoding","encoding","138","Guacamole.jpg","37","0","1234"
"5","5","encoding","encoding","139","Lychee.jpg","37","0","691"
"5","5","encoding","encoding","140","AnsweringMachine.jpg","37","0","691"
"5","5","encoding","encoding","141","Ship_Cruise.jpg","36","0","809"
"5","5","encoding","encoding","142","Pricegun.jpg","37","0","1608"
"5","5","encoding","encoding","143","Ring_Diamond.jpg","37","0","641"
"5","5","encoding","encoding","144","Pineapple.jpg","37","0","539"
"5","5","encoding","encoding","145","ControlPanel.jpg","36","0","783"
"5","5","encoding","encoding","146","SkullDeer.jpg","36","0","1013"
"5","5","encoding","encoding","147","Makeup_Eyeshadow.jpg","37","0","702"
"5","5","encoding","encoding","148","RemoteControl.jpg","37","0","731"
"5","5","encoding","encoding","149","Notepad.jpg","37","0","874"
"5","5","encoding","encoding","150","Slide.jpg","36","0","1125"
"5","5","encoding","encoding","151","Bicycle_Adult.jpg","36","0","992"
"5","5","encoding","encoding","152","Avocado.jpg","37","0","676"
"5","5","encoding","encoding","153","Nuts_Walnut.jpg","37","0","713"
"5","5","encoding","encoding","154","Broom_Long.jpg","36","0","1394"
"5","5","encoding","encoding","155","Light_PostIsolated.jpg","36","0","1335"
"5","5","encoding","encoding","156","EspressoMachine.jpg","36","0","1136"
"5","5","encoding","encoding","157","Hoodie.jpg","37","0","1695"
"5","5","encoding","encoding","158","Film_Roll.jpg","37","0","1635"
"5","5","encoding","encoding","159","WorldMap.jpg","37","0","1623"
"5","5","encoding","encoding","160","Stick_Bridge.jpg","36","0","612"
"5","5","encoding","encoding","161","PuppetTheatre_BlueRed.jpg","36","0","757"
"5","5","encoding","encoding","162","JumpingJack.jpg","36","0","672"
"5","5","encoding","encoding","163","Piano_Upright.jpg","36","0","503"
"5","5","encoding","encoding","164","PortaPotty.jpg","36","0","456"
"5","5","encoding","encoding","165","Bone.jpg","37","0","1177"
"5","5","encoding","encoding","166","Drum_Bongos.jpg","36","0","1007"
"5","5","encoding","encoding","167","Caribou.jpg","36","0","618"
"5","5","encoding","encoding","168","PaintCan.jpg","36","0","1122"
"5","5","encoding","encoding","169","IceCubes.jpg","37","0","641"
"5","5","encoding","encoding","170","Toy_Boat.jpg","37","0","822"
"5","5","encoding","encoding","171","Cheque.jpg","37","0","680"
"5","5","encoding","encoding","172","Ostrich.jpg","36","0","754"
"5","5","encoding","encoding","173","Motorcycle.jpg","36","0","537"
"5","5","encoding","encoding","174","Flower_Sun.jpg","37","0","574"
"5","5","encoding","encoding","175","Can_Oblong.jpg","37","0","899"
"5","5","encoding","encoding","176","LampPost_WhiteOrnate.jpg","36","0","616"
"5","5","encoding","encoding","177","Spraybottle.jpg","37","0","687"
"5","5","retrieval","new_objects","1","Hay.jpg","37","1","858"
"5","5","retrieval","old_objects","2","Playground.jpg","36","1","915"
"5","5","retrieval","old_objects","3","Toy_Boat.jpg","36","1","582"
"5","5","retrieval","new_objects","4","SpaceShuttle.jpg","37","1","666"
"5","5","retrieval","old_objects","5","Bells_Christmas.jpg","36","1","669"
"5","5","retrieval","new_objects","6","IceScraper.jpg","37","1","754"
"5","5","retrieval","old_objects","7","ChalkLineTool.jpg","36","1","861"
"5","5","retrieval","new_objects","8","Chair_Student.jpg","37","1","817"
"5","5","retrieval","new_objects","9","Gun_Nerf.jpg","37","1","622"
"5","5","retrieval","new_objects","10","Toy_Bat.jpg","37","1","587"
"5","5","retrieval","old_objects","11","ElectricOutlet.jpg","36","1","599"
"5","5","retrieval","new_objects","12","Dill.jpg","37","1","573"
"5","5","retrieval","old_objects","13","KnifeHolder.jpg","36","1","650"
"5","5","retrieval","old_objects","14","Jacket_Jean.jpg","36","1","766"
"5","5","retrieval","old_objects","15","CoffeeLid.jpg","36","1","760"
"5","5","retrieval","old_objects","16","Notepad.jpg","36","1","553"
"5","5","retrieval","new_objects","17","Bed_Hospital.jpg","37","1","583"
"5","5","retrieval","old_objects","18","Hat_Tuque.jpg","36","1","626"
"5","5","retrieval","old_objects","19","Chicken_FriedWing.jpg","36","1","585"
"5","5","retrieval","new_objects","20","Candy_Chocolate.jpg","37","1","730"
"5","5","retrieval","new_objects","21","CigarCutter.jpg","37","1","884"
"5","5","retrieval","new_objects","22","Ball_Tennis.jpg","37","1","878"
"5","5","retrieval","old_objects","23","GiftBow.jpg","36","1","647"
"5","5","retrieval","old_objects","24","Lamp_TableWhite.jpg","36","1","552"
"5","5","retrieval","new_objects","25","CandleSnuffer.jpg","37","1","789"
"5","5","retrieval","new_objects","26","Shrub_Boxwood.jpg","37","1","693"
"5","5","retrieval","new_objects","27","ScannerShoplifting.jpg","37","1","699"
"5","5","retrieval","new_objects","28","ButterChurn.jpg","37","1","606"
"5","5","retrieval","new_objects","29","Glass_bottle.jpg","37","1","730"
"5","5","retrieval","old_objects","30","Toy_MrPotatoHeadjpg.jpg","36","1","698"
"5","5","retrieval","old_objects","31","Puffin.jpg","36","1","583"
"5","5","retrieval","new_objects","32","Mixer_Cement.jpg","36","0","593"
"5","5","retrieval","new_objects","33","Sign_Airport.jpg","37","1","591"
"5","5","retrieval","old_objects","34","Cup_Bathroom.jpg","36","1","588"
"5","5","retrieval","old_objects","35","Stethoscope.jpg","36","1","625"
"5","5","retrieval","old_objects","36","WorldMap.jpg","36","1","648"
"5","5","retrieval","old_objects","37","Lychee.jpg","36","1","580"
"5","5","retrieval","old_objects","38","Can_Oblong.jpg","36","1","611"
"5","5","retrieval","new_objects","39","Wardrobe.jpg","37","1","757"
"5","5","retrieval","old_objects","40","Box_Apples.jpg","36","1","689"
"5","5","retrieval","new_objects","41","DentistOverheadLight.jpg","37","1","852"
"5","5","retrieval","old_objects","42","Film_Roll.jpg","36","1","724"
"5","5","retrieval","new_objects","43","CoolingFan_Engine2.jpg","37","1","809"
"5","5","retrieval","old_objects","44","Mattress.jpg","36","1","637"
"5","5","retrieval","old_objects","45","Horn_French.jpg","36","1","833"
"5","5","retrieval","new_objects","46","Wheelbarrow_Green.jpg","37","1","693"
"5","5","retrieval","new_objects","47","PaintRoller.jpg","37","1","913"
"5","5","retrieval","old_objects","48","Spraybottle.jpg","36","1","568"
"5","5","retrieval","old_objects","49","Avocado.jpg","36","1","533"
"5","5","retrieval","old_objects","50","Bottle_Liquor.jpg","36","1","635"
"5","5","retrieval","new_objects","51","Seal_animal.jpg","37","1","706"
"5","5","retrieval","new_objects","52","Armchair.jpg","37","1","605"
"5","5","retrieval","old_objects","53","Drink_Cocktail.jpg","36","1","633"
"5","5","retrieval","old_objects","54","Stationary.jpg","36","1","604"
"5","5","retrieval","old_objects","55","TelephoneJack.jpg","36","1","572"
"5","5","retrieval","old_objects","56","Ring_Diamond.jpg","36","1","548"
"5","5","retrieval","old_objects","57","Drum_Cymbal.jpg","36","1","597"
"5","5","retrieval","old_objects","58","PumpBreast.jpg","37","0","790"
"5","5","retrieval","new_objects","59","Helmet_Knight.jpg","37","1","614"
"5","5","retrieval","old_objects","60","CookieCutter_Bell.jpg","36","1","717"
"5","5","retrieval","old_objects","62","Box_Cutlery.jpg","36","1","557"
"5","5","retrieval","old_objects","63","Toy_BlocksPlastic Colourful.jpg","36","1","589"
"5","5","retrieval","new_objects","64","PoliceTape.jpg","37","1","583"
"5","5","retrieval","old_objects","65","PropellerFan.jpg","36","1","587"
"5","5","retrieval","old_objects","66","Lei.jpg","36","1","582"
"5","5","retrieval","old_objects","67","Clothespin_Beige.jpg","36","1","641"
"5","5","retrieval","old_objects","68","Tractor_Yellow.jpg","36","1","572"
"5","5","retrieval","old_objects","69","fries.jpg","36","1","555"
"5","5","retrieval","new_objects","70","Tube_Paint.jpg","37","1","801"
"5","5","retrieval","new_objects","71","SaxophoneSoprano.jpg","37","1","926"
"5","5","retrieval","new_objects","72","Stove_Camping.jpg","37","1","848"
"5","5","retrieval","old_objects","73","Bulldozer.jpg","36","1","818"
"5","5","retrieval","new_objects","74","Toy_Moose.jpg","37","1","788"
"5","5","retrieval","new_objects","75","Magnifying_Glass.jpg","37","1","641"
"5","5","retrieval","old_objects","76","Bag_Hand.jpg","36","1","931"
"5","5","retrieval","new_objects","77","Mask_Ski.jpg","37","1","683"
"5","5","retrieval","old_objects","78","KiddiePool.jpg","36","1","972"
"5","5","retrieval","new_objects","79","Toy_Christmastree.jpg","37","1","716"
"5","5","retrieval","old_objects","80","HotWaterBottle.jpg","36","1","638"
"5","5","retrieval","new_objects","81","HumanSkeleton.jpg","37","1","695"
"5","5","retrieval","old_objects","82","Cheque.jpg","36","1","685"
"5","5","retrieval","new_objects","83","VGAport.jpg","37","1","717"
"5","5","retrieval","old_objects","84","Bone.jpg","36","1","685"
"5","5","retrieval","new_objects","85","Spatula.jpg","37","1","893"
"5","5","retrieval","new_objects","86","Ruler_Metal.jpg","37","1","629"
"5","5","retrieval","old_objects","87","Ship_Cruise.jpg","36","1","720"
"5","5","retrieval","new_objects","88","HerbsInBag.jpg","37","1","613"
"5","5","retrieval","new_objects","89","Clock_Digital.jpg","37","1","654"
"5","5","retrieval","new_objects","90","Glass_Cup.jpg","37","1","681"
"5","5","retrieval","new_objects","91","AlarmSystem.jpg","37","1","715"
"5","5","retrieval","old_objects","92","Ball_Football.jpg","36","1","553"
"5","5","retrieval","new_objects","93","Toy_DollOffice.jpg","37","1","820"
"5","5","retrieval","new_objects","94","DustPan.jpg","37","1","799"
"5","5","retrieval","new_objects","95","Fan_Straw.jpg","37","1","704"
"5","5","retrieval","old_objects","96","Paddle_Bread.jpg","36","1","570"
"5","5","retrieval","new_objects","97","Case_Leather.jpg","37","1","724"
"5","5","retrieval","old_objects","98","BridgeWooden.jpg","36","1","664"
"5","5","retrieval","new_objects","99","JukeboxAntique.jpg","37","1","667"
"5","5","retrieval","new_objects","100","Oars.jpg","37","1","626"
"5","5","retrieval","new_objects","101","Envelope_Manila.jpg","37","1","589"
"5","5","retrieval","old_objects","102","Hoodie.jpg","36","1","729"
"5","5","retrieval","old_objects","103","Cup_Fruits.jpg","36","1","972"
"5","5","retrieval","old_objects","104","Lettuce_Iceberg.jpg","36","1","547"
"5","5","retrieval","old_objects","105","Lynx.jpg","36","1","796"
"5","5","retrieval","new_objects","106","Toy_RockingHorseBeige.jpg","37","1","816"
"5","5","retrieval","new_objects","107","Toy_BlocksLetter.jpg","37","1","669"
"5","5","retrieval","new_objects","108","Pig.jpg","37","1","607"
"5","5","retrieval","new_objects","109","Wreath.jpg","37","1","761"
"5","5","retrieval","new_objects","110","Donut.jpg","37","1","660"
"5","5","retrieval","new_objects","111","Instrument_Guiro.jpg","37","1","671"
"5","5","retrieval","new_objects","112","Toy_BearBrownPlushie.jpg","37","1","595"
"5","5","retrieval","old_objects","113","Car_Ferrari.jpg","36","1","647"
"5","5","retrieval","old_objects","114","Oneholepunch.jpg","36","1","614"
"5","5","retrieval","new_objects","115","FlipFlop_PairBlue.jpg","37","1","607"
"5","5","retrieval","new_objects","116","Peppermill.jpg","37","1","553"
"5","5","retrieval","old_objects","117","Caribou.jpg","36","1","828"
"5","5","retrieval","new_objects","118","Candelabra.jpg","37","1","655"
"5","5","retrieval","old_objects","119","Hat_Party.jpg","37","0","633"
"5","5","retrieval","old_objects","120","Boat_Sail.jpg","36","1","596"
"5","5","retrieval","old_objects","121","Chairs_Stacked.jpg","36","1","665"
"5","5","retrieval","old_objects","123","MortarPestle_WhiteMarble.jpg","36","1","589"
"5","5","retrieval","old_objects","124","IceCubes.jpg","36","1","568"
"5","5","retrieval","new_objects","125","MouthGuard.jpg","37","1","865"
"5","5","retrieval","new_objects","126","Telephone_DialAntique.jpg","37","1","590"
"5","5","retrieval","new_objects","127","Suitcase.jpg","37","1","761"
"5","5","retrieval","old_objects","128","HairBand.jpg","36","1","705"
"5","5","retrieval","new_objects","129","Snowboard.jpg","37","1","705"
"5","5","retrieval","old_objects","130","PaintRollTray.jpg","36","1","594"
"5","5","retrieval","new_objects","131","PanCooking.jpg","37","1","687"
"5","5","retrieval","new_objects","132","Paratrooper.jpg","37","1","585"
"5","5","retrieval","old_objects","133","Sign_OneWay.jpg","36","1","675"
"5","5","retrieval","old_objects","134","Cannoli.jpg","36","1","530"
"5","5","retrieval","old_objects","135","Milkshake_Chocolate.jpg","37","0","1007"
"5","5","retrieval","old_objects","136","Sandwich_Ham.jpg","36","1","615"
"5","5","retrieval","old_objects","137","WaterFountain.jpg","36","1","789"
"5","5","retrieval","new_objects","138","BicycleWheelRusty.jpg","37","1","616"
"5","5","retrieval","old_objects","139","Slide.jpg","36","1","709"
"5","5","retrieval","new_objects","140","Car_Sedan.jpg","37","1","788"
"5","5","retrieval","old_objects","141","Makeup_Bag.jpg","36","1","663"
"5","5","retrieval","old_objects","142","Cymbals.jpg","36","1","570"
"5","5","retrieval","new_objects","143","PirateFlag.jpg","37","1","652"
"5","5","retrieval","new_objects","144","Cart_Janitor.jpg","37","1","711"
"5","5","retrieval","new_objects","145","EnglishMuffin.jpg","37","1","643"
"5","5","retrieval","old_objects","146","Broom_Long.jpg","36","1","673"
"5","5","retrieval","old_objects","147","Pineapple.jpg","36","1","532"
"5","5","retrieval","old_objects","148","Umbrella_Classic.jpg","36","1","612"
"5","5","retrieval","old_objects","149","Bag_Diaper.jpg","37","0","663"
"5","5","retrieval","old_objects","150","CashRegister_Modern.jpg","36","1","585"
"5","5","retrieval","old_objects","151","Jacks.jpg","36","1","602"
"5","5","retrieval","old_objects","152","PuppetTheatre_BlueRed.jpg","36","1","646"
"5","5","retrieval","old_objects","153","Piano_Upright.jpg","36","1","552"
"5","5","retrieval","old_objects","154","SkullDeer.jpg","36","1","561"
"5","5","retrieval","old_objects","155","PumiceStone.jpg","36","1","530"
"5","5","retrieval","old_objects","156","Flower_Sun.jpg","36","1","505"
"5","5","retrieval","new_objects","157","Hammer.jpg","36","0","795"
"5","5","retrieval","old_objects","158","Ball_Basketball.jpg","36","1","518"
"5","5","retrieval","old_objects","159","DayPlanner.jpg","36","1","628"
"5","5","retrieval","old_objects","160","Bathtub.jpg","36","1","700"
"5","5","retrieval","new_objects","161","CrepeMaker.jpg","37","1","594"
"5","5","retrieval","new_objects","162","Trophy.jpg","37","1","625"
"5","5","retrieval","old_objects","163","Pants.jpg","37","0","853"
"5","5","retrieval","new_objects","164","Fence_ChainLink.jpg","37","1","581"
"5","5","retrieval","old_objects","165","Telescope.jpg","36","1","552"
"5","5","retrieval","old_objects","166","Flower_Tulip.jpg","36","1","551"
"5","5","retrieval","new_objects","167","BunsenBurner.jpg","36","0","913"
"5","5","retrieval","old_objects","168","LampPost_WhiteOrnate.jpg","36","1","640"
"5","5","retrieval","old_objects","169","Flute_Tin.jpg","36","1","734"
"5","5","retrieval","old_objects","170","Jug_ClayAncient.jpg","36","1","683"
"5","5","retrieval","old_objects","171","Light_PostIsolated.jpg","36","1","571"
"5","5","retrieval","old_objects","172","Bottle_Spray.jpg","36","1","541"
"5","5","retrieval","old_objects","173","Stick_IceHockey.jpg","36","1","711"
"5","5","retrieval","old_objects","174","Pasta_Shell.jpg","36","1","832"
"5","5","retrieval","old_objects","175","PuppetTheatre_WhiteGold.jpg","36","1","700"
"5","5","retrieval","new_objects","176","Shrimp.jpg","37","1","769"
"5","5","retrieval","new_objects","177","Bag_Groceries.jpg","37","1","1043"
"5","5","retrieval","new_objects","178","ComputerKeyboard.jpg","37","1","842"
"5","5","retrieval","new_objects","179","Hockey_Equipment.jpg","37","1","667"
"5","5","retrieval","new_objects","180","CarLighter.jpg","37","1","639"
"5","5","retrieval","new_objects","181","Toy_Tractor_1.jpg","36","0","691"
"5","5","retrieval","new_objects","182","Rock_Mimetite.jpg","37","1","672"
"5","5","retrieval","old_objects","184","Airplane_Commercial.jpg","36","1","726"
"5","5","retrieval","old_objects","185","RadioactiveContainer.jpg","36","1","700"
"5","5","retrieval","old_objects","186","Motorcycle.jpg","36","1","582"
"5","5","retrieval","old_objects","187","FuzzyDice.jpg","37","0","815"
"5","5","retrieval","new_objects","188","Fork_Fondue.jpg","37","1","739"
"5","5","retrieval","new_objects","189","Chair_Dining.jpg","37","1","737"
"5","5","retrieval","new_objects","190","EyeDrops.jpg","37","1","946"
"5","5","retrieval","new_objects","191","Toolbox_RedOpen.jpg","36","0","720"
"5","5","retrieval","old_objects","192","Gloves_Winter.jpg","36","1","642"
"5","5","retrieval","old_objects","193","InflatableSleepingBag.jpg","36","1","639"
"5","5","retrieval","new_objects","194","Bottle_CosmeticSpray.jpg","37","1","721"
"5","5","retrieval","new_objects","195","WindowBlinds.jpg","37","1","650"
"5","5","retrieval","old_objects","196","Ostrich.jpg","36","1","731"
"5","5","retrieval","old_objects","197","Can_GasSpout.jpg","36","1","616"
"5","5","retrieval","old_objects","198","Kite_Rainbow.jpg","36","1","577"
"5","5","retrieval","new_objects","199","Magnet_Three.jpg","37","1","782"
"5","5","retrieval","new_objects","200","Nightstand.jpg","36","0","574"
"5","5","retrieval","new_objects","201","Turtle.jpg","37","1","665"
"5","5","retrieval","old_objects","202","SkiPoles.jpg","36","1","751"
"5","5","retrieval","old_objects","203","Guitar_Acoustic.jpg","36","1","572"
"5","5","retrieval","old_objects","204","BicycleGear.jpg","36","1","584"
"5","5","retrieval","old_objects","205","SoapDish.jpg","36","1","635"
"5","5","retrieval","old_objects","206","Headset.jpg","36","1","565"
"5","5","retrieval","new_objects","207","Oyster.jpg","37","1","674"
"5","5","retrieval","new_objects","208","Bird_Budgie.jpg","37","1","634"
"5","5","retrieval","new_objects","209","Cow.jpg","37","1","629"
"5","5","retrieval","old_objects","210","Trash_Medical.jpg","36","1","646"
"5","5","retrieval","new_objects","211","Tape_Clear.jpg","37","1","679"
"5","5","retrieval","new_objects","212","Boxcutter.jpg","37","1","887"
"5","5","retrieval","new_objects","213","Lobster.jpg","37","1","641"
"5","5","retrieval","old_objects","214","Guitar_Electric.jpg","36","1","600"
"5","5","retrieval","old_objects","215","Nuts_Walnut.jpg","36","1","733"
"5","5","retrieval","new_objects","216","DrinkingFountain.jpg","37","1","677"
"5","5","retrieval","old_objects","217","Flower_Rose.jpg","36","1","822"
"5","5","retrieval","new_objects","218","Bowl_Flour.jpg","37","1","741"
"5","5","retrieval","new_objects","219","SculptureMetalFish.jpg","37","1","675"
"5","5","retrieval","old_objects","220","Dog_Bulldog.jpg","36","1","622"
"5","5","retrieval","old_objects","221","Decoration_Chinese.jpg","37","0","719"
"5","5","retrieval","new_objects","222","Pencil.jpg","37","1","636"
"5","5","retrieval","new_objects","223","GogglesSwim.jpg","37","1","603"
"5","5","retrieval","old_objects","224","PortaPotty.jpg","36","1","613"
"5","5","retrieval","old_objects","225","SoundMixer_Blue.jpg","36","1","1039"
"5","5","retrieval","new_objects","226","Chicken_FriedDrum.jpg","36","0","1140"
"5","5","retrieval","new_objects","227","Syringe_Blunt.jpg","37","1","759"
"5","5","retrieval","new_objects","228","Bottle_BubbleBlower.jpg","37","1","836"
"5","5","retrieval","old_objects","229","Pricegun.jpg","36","1","733"
"5","5","retrieval","old_objects","230","Cage_Bird.jpg","36","1","627"
"5","5","retrieval","old_objects","231","JumpingJack.jpg","36","1","653"
"5","5","retrieval","new_objects","232","Tag_Price.jpg","37","1","720"
"5","5","retrieval","old_objects","233","Ball_Golf.jpg","36","1","501"
"5","5","retrieval","old_objects","234","AnsweringMachine.jpg","37","0","825"
"5","5","retrieval","old_objects","235","Box_JeweleryWooden.jpg","36","1","678"
"5","5","retrieval","old_objects","236","Nyala.jpg","36","1","782"
"5","5","retrieval","old_objects","237","Jar_Cotton.jpg","37","0","673"
"5","5","retrieval","old_objects","238","Bottle_Champagne.jpg","36","1","805"
"5","5","retrieval","old_objects","239","Guacamole.jpg","36","1","672"
"5","5","retrieval","new_objects","240","Scissors.jpg","37","1","701"
"5","5","retrieval","new_objects","241","CoffeeBeans.jpg","37","1","668"
"5","5","retrieval","old_objects","242","EspressoMachine.jpg","36","1","610"
"5","5","retrieval","old_objects","243","LeafBlower.jpg","36","1","564"
"5","5","retrieval","new_objects","245","Bird_Pelican.jpg","37","1","668"
"5","5","retrieval","old_objects","246","RemoteControl.jpg","36","1","590"
"5","5","retrieval","new_objects","247","Iron_Antique.jpg","37","1","683"
"5","5","retrieval","old_objects","248","Candle_ChristmasDecor.jpg","36","1","786"
"5","5","retrieval","new_objects","249","Paddle_PingPong.jpg","37","1","572"
"5","5","retrieval","new_objects","250","Switch_Power.jpg","37","1","733"
"5","5","retrieval","new_objects","251","Bicycle_Kids.jpg","37","1","640"
"5","5","retrieval","new_objects","252","Leaf_Green.jpg","37","1","587"
"5","5","retrieval","new_objects","253","Napkin_Holder.jpg","37","1","498"
"5","5","retrieval","old_objects","254","Hanger.jpg","36","1","798"
"5","5","retrieval","new_objects","255","MeatGrinder.jpg","37","1","782"
"5","5","retrieval","new_objects","256","Peeler.jpg","37","1","629"
"5","5","retrieval","old_objects","257","Trumpet.jpg","36","1","557"
"5","5","retrieval","old_objects","258","Drum_Bongos.jpg","36","1","622"
"5","5","retrieval","new_objects","259","Licorice.jpg","37","1","601"
"5","5","retrieval","new_objects","260","Bucket_WoodenLight.jpg","37","1","648"
"5","5","retrieval","new_objects","261","Plum.jpg","37","1","672"
"5","5","retrieval","new_objects","262","Rag.jpg","37","1","811"
"5","5","retrieval","new_objects","263","Lipstick.jpg","37","1","556"
"5","5","retrieval","new_objects","264","Binder.jpg","37","1","646"
"5","5","retrieval","old_objects","265","MousepadAndMouse.jpg","36","1","784"
"5","5","retrieval","old_objects","266","WatermelonSlice.jpg","36","1","547"
"5","5","retrieval","new_objects","267","Seeder.jpg","37","1","771"
"5","5","retrieval","new_objects","268","Toy_Stroller.jpg","36","0","970"
"5","5","retrieval","new_objects","269","Stool_Wood.jpg","36","0","685"
"5","5","retrieval","new_objects","270","Arm.jpg","37","1","614"
"5","5","retrieval","old_objects","271","Puzzle_Piece.jpg","36","1","837"
"5","5","retrieval","new_objects","272","BinRecycling.jpg","37","1","818"
"5","5","retrieval","new_objects","273","Shovel_Garden.jpg","37","1","890"
"5","5","retrieval","new_objects","274","Airplane_Small.jpg","37","1","744"
"5","5","retrieval","new_objects","275","DivingBoard.jpg","37","1","661"
"5","5","retrieval","new_objects","276","Snail.jpg","37","1","669"
"5","5","retrieval","old_objects","277","ControlPanel.jpg","36","1","886"
"5","5","retrieval","old_objects","278","Toy_TrailerAirport.jpg","37","0","619"
"5","5","retrieval","new_objects","279","Phone_Public.jpg","37","1","724"
"5","5","retrieval","new_objects","280","Chair_Rocking.jpg","37","1","633"
"5","5","retrieval","old_objects","281","WateringCan_PlasticDarkGreen.jpg","36","1","623"
"5","5","retrieval","new_objects","282","Ashtray_Cigarettes.jpg","37","1","641"
"5","5","retrieval","old_objects","283","Wallet_ClosedBlack.jpg","36","1","660"
"5","5","retrieval","old_objects","284","Statue_Buddha.jpg","36","1","579"
"5","5","retrieval","old_objects","285","Cassette_Audio.jpg","36","1","642"
"5","5","retrieval","new_objects","286","PaperStack.jpg","37","1","564"
"5","5","retrieval","old_objects","287","Camera_Antique.jpg","36","1","655"
"5","5","retrieval","new_objects","288","ChessPiece_Knight.jpg","37","1","637"
"5","5","retrieval","old_objects","289","DryRack_Dishes.jpg","36","1","762"
"5","5","retrieval","new_objects","290","AirTank.jpg","37","1","930"
"5","5","retrieval","old_objects","291","PaintCan.jpg","36","1","804"
"5","5","retrieval","new_objects","292","Stove_Propane.jpg","37","1","733"
"5","5","retrieval","new_objects","293","Glass_Beer.jpg","37","1","734"
"5","5","retrieval","old_objects","294","Crayon_Green.jpg","36","1","843"
"5","5","retrieval","new_objects","295","Cup_Latte.jpg","37","1","713"
"5","5","retrieval","new_objects","296","Jar_Capers.jpg","37","1","629"
"5","5","retrieval","old_objects","297","MeatRaw.jpg","36","1","711"
"5","5","retrieval","new_objects","298","Clip_Chip.jpg","37","1","868"
"5","5","retrieval","old_objects","299","CementFinisher.jpg","36","1","829"
"5","5","retrieval","old_objects","300","Boat_Ferry.jpg","37","0","931"
"5","5","retrieval","new_objects","301","Gecko.jpg","37","1","681"
"5","5","retrieval","new_objects","302","ShotGlassTray.jpg","37","1","660"
"5","5","retrieval","new_objects","303","Vest.jpg","37","1","718"
"5","5","retrieval","old_objects","304","Tree_ChristmasMini.jpg","36","1","632"
"5","5","retrieval","new_objects","306","PotatoMasher_Grate.jpg","37","1","825"
"5","5","retrieval","old_objects","307","FoodMill.jpg","37","0","668"
"5","5","retrieval","new_objects","308","FireExtinguisher.jpg","37","1","730"
"5","5","retrieval","old_objects","309","Hat_Visor.jpg","37","0","820"
"5","5","retrieval","new_objects","310","Bowl_Fruits.jpg","36","0","595"
"5","5","retrieval","old_objects","311","Wheel_Steering.jpg","36","1","612"
"5","5","retrieval","old_objects","312","AmberWithMosquito.jpg","36","1","694"
"5","5","retrieval","new_objects","313","Toaster_Antique.jpg","37","1","842"
"5","5","retrieval","old_objects","314","CoolingFan_Engine.jpg","36","1","587"
"5","5","retrieval","old_objects","315","Backpack_Travel.jpg","36","1","662"
"5","5","retrieval","old_objects","316","Makeup_Eyeshadow.jpg","36","1","744"
"5","5","retrieval","new_objects","317","Lock_Bike.jpg","37","1","782"
"5","5","retrieval","old_objects","318","Desk_White.jpg","36","1","870"
"5","5","retrieval","new_objects","319","Flute_Wooden.jpg","36","0","866"
"5","5","retrieval","new_objects","320","CheeseSlicer.jpg","36","0","855"
"5","5","retrieval","new_objects","321","Bowl_Chinese.jpg","37","1","616"
"5","5","retrieval","new_objects","322","SewingMachine.jpg","37","1","677"
"5","5","retrieval","new_objects","323","HandRake.jpg","37","1","731"
"5","5","retrieval","new_objects","324","Bleachers.jpg","37","1","707"
"5","5","retrieval","new_objects","325","Neckrest.jpg","37","1","617"
"5","5","retrieval","new_objects","326","MassageRoller.jpg","36","0","913"
"5","5","retrieval","new_objects","327","TowerEiffel.jpg","37","1","605"
"5","5","retrieval","old_objects","328","Hook_Double.jpg","36","1","733"
"5","5","retrieval","old_objects","329","BusStop.jpg","36","1","737"
"5","5","retrieval","old_objects","330","Stick_Bridge.jpg","36","1","824"
"5","5","retrieval","new_objects","331","Toy_DinosaurBrontosaurus.jpg","37","1","684"
"5","5","retrieval","new_objects","332","Toy_Zebra.jpg","37","1","625"
"5","5","retrieval","old_objects","333","HairCurler.jpg","36","1","692"
"5","5","retrieval","old_objects","334","Cheese_Platter.jpg","36","1","754"
"5","5","retrieval","new_objects","335","Weathervane.jpg","37","1","717"
"5","5","retrieval","old_objects","336","Clock_Grandfather.jpg","36","1","708"
"5","5","retrieval","new_objects","337","DrillBit.jpg","37","1","754"
"5","5","retrieval","old_objects","338","Bicycle_Adult.jpg","36","1","676"
"5","5","retrieval","new_objects","339","Cat.jpg","36","0","628"
"5","5","retrieval","new_objects","340","TinChristmas.jpg","37","1","722"
"5","5","retrieval","new_objects","341","Corkscrew.jpg","37","1","730"
"5","5","retrieval","old_objects","342","Computer_CPU.jpg","36","1","777"
"5","5","retrieval","new_objects","343","Pot_Crock.jpg","37","1","619"
"5","5","retrieval","new_objects","344","Button.jpg","37","1","751"
"5","5","retrieval","old_objects","345","Candleholder_Tall.jpg","37","0","1143"
"5","5","retrieval","old_objects","346","Scoop_Flour.jpg","36","1","722"
"5","5","retrieval","new_objects","347","Partition.jpg","36","0","1104"
"5","5","retrieval","new_objects","348","Puzzle_Tree.jpg","37","1","660"
"5","5","retrieval","old_objects","349","RollerBlade.jpg","36","1","907"
"5","5","retrieval","old_objects","350","Brush_Cleaning.jpg","36","1","635"
"5","5","retrieval","new_objects","351","Coconut.jpg","37","1","626"
"5","5","retrieval","new_objects","352","Seashell_RoseMurex.jpg","37","1","640"
"5","5","retrieval","new_objects","353","Can_Peas.jpg","37","1","735"
"5","5","retrieval","new_objects","354","Shoe_Men.jpg","37","1","769"
"5","5","retrieval","old_objects","355","Freezer.jpg","36","1","595"
"5","5","demographics_block","gender","1","Freezer.jpg","Male","1","15123"
"5","5","demographics_block","age","1","Freezer.jpg","35","1","15123"
"5","5","demographics_block","education","1","Freezer.jpg","18","1","15123"
"5","5","demographics_block","left_right_handed","2","Freezer.jpg","Right","1","11289"
"5","5","demographics_block","raceoption1","2","Freezer.jpg","","1","11289"
"5","5","demographics_block","raceoption2","2","Freezer.jpg","","1","11289"
"5","5","demographics_block","raceoption3","2","Freezer.jpg","","1","11289"
"5","5","demographics_block","raceoption4","2","Freezer.jpg","","1","11289"
"5","5","demographics_block","raceoption5","2","Freezer.jpg","","1","11289"
"5","5","demographics_block","raceoption6","2","Freezer.jpg","5","1","11289"
"5","5","demographics_block","raceoption7","2","Freezer.jpg","","1","11289"
"5","5","demographics_block","raceoption8","2","Freezer.jpg","","1","11289"
"5","5","demographics_block","raceoption9","2","Freezer.jpg","","1","11289"
"5","5","demographics_block","raceother","2","Freezer.jpg","","1","11289"
"5","5","demographics_block","raceother","2","Freezer.jpg","","1","11289"
"5","5","demographics_block","english_language","2","Freezer.jpg","Yes","1","11289"
"5","5","demographics_block","english_languageother","2","Freezer.jpg","","1","11289"
"5","5","demographics_block","eyesight","3","Freezer.jpg","Yes","1","5507"
"5","5","demographics_block","colorblind","3","Freezer.jpg","No","1","5507"
"5","5","worker_id_block","worker_id_textbox","1","Freezer.jpg","A29NA4283YJ26D","1","28774"
"3","3","encoding","encoding","1","Nuts_Walnut.jpg","36","0","982"
"3","3","encoding","encoding","2","Desk_White.jpg","36","0","1572"
"3","3","encoding","encoding","3","RemoteControl.jpg","37","0","1203"
"3","3","encoding","encoding","4","MortarPestle_WhiteMarble.jpg","37","0","1416"
"3","3","encoding","encoding","5","IceCubes.jpg","37","0","1136"
"3","3","encoding","encoding","6","Jacket_Jean.jpg","36","0","1867"
"3","3","encoding","encoding","7","WatermelonSlice.jpg","37","0","1653"
"3","3","encoding","encoding","8","Hanger.jpg","37","0","1621"
"3","3","encoding","encoding","9","Car_Ferrari.jpg","37","0","1777"
"3","3","encoding","encoding","10","TelephoneJack.jpg","37","0","1047"
"3","3","encoding","encoding","11","Guitar_Acoustic.jpg","37","0","1618"
"3","3","encoding","encoding","12","Cassette_Audio.jpg","37","0","1031"
"3","3","encoding","encoding","13","FoodMill.jpg","37","0","852"
"3","3","encoding","encoding","14","Guacamole.jpg","37","0","1687"
"3","3","encoding","encoding","15","Jar_Cotton.jpg","0","0","2000"
"3","3","encoding","encoding","16","Toy_TrailerAirport.jpg","37","0","1193"
"3","3","encoding","encoding","17","LampPost_WhiteOrnate.jpg","36","0","895"
"3","3","encoding","encoding","18","Bottle_Spray.jpg","37","0","1777"
"3","3","encoding","encoding","19","Paddle_Bread.jpg","36","0","1092"
"3","3","encoding","encoding","20","Drum_Bongos.jpg","36","0","1243"
"3","3","encoding","encoding","21","Ostrich.jpg","0","0","2000"
"3","3","encoding","encoding","22","WateringCan_PlasticDarkGreen.jpg","36","0","1469"
"3","3","encoding","encoding","23","Ball_Football.jpg","0","0","2000"
"3","3","encoding","encoding","24","Jacks.jpg","36","0","1403"
"3","3","encoding","encoding","25","Dog_Bulldog.jpg","36","0","807"
"3","3","encoding","encoding","26","Cheese_Platter.jpg","36","0","1174"
"3","3","encoding","encoding","27","Ring_Diamond.jpg","0","0","2000"
"3","3","encoding","encoding","28","Lychee.jpg","37","0","1080"
"3","3","encoding","encoding","29","Pineapple.jpg","37","0","1332"
"3","3","encoding","encoding","30","Hoodie.jpg","0","0","2000"
"3","3","encoding","encoding","31","LeafBlower.jpg","36","0","1532"
"3","3","encoding","encoding","32","Crayon_Green.jpg","37","0","1131"
"3","3","encoding","encoding","33","Brush_Cleaning.jpg","37","0","874"
"3","3","encoding","encoding","34","Sandwich_Ham.jpg","36","0","897"
"3","3","encoding","encoding","35","Notepad.jpg","36","0","1902"
"3","3","encoding","encoding","36","Motorcycle.jpg","0","0","2000"
"3","3","encoding","encoding","37","PumiceStone.jpg","37","0","1116"
"3","3","encoding","encoding","38","Boat_Sail.jpg","0","0","2000"
"3","3","encoding","encoding","39","BridgeWooden.jpg","36","0","877"
"3","3","encoding","encoding","40","CashRegister_Modern.jpg","36","0","1645"
"3","3","encoding","encoding","41","Puffin.jpg","37","0","919"
"3","3","encoding","encoding","42","fries.jpg","36","0","1090"
"3","3","encoding","encoding","43","Ship_Cruise.jpg","36","0","928"
"3","3","encoding","encoding","44","Flower_Sun.jpg","36","0","1362"
"3","3","encoding","encoding","45","BusStop.jpg","0","0","2000"
"3","3","encoding","encoding","46","Lei.jpg","0","0","2000"
"3","3","encoding","encoding","47","Cymbals.jpg","37","0","1356"
"3","3","encoding","encoding","48","PropellerFan.jpg","0","0","2000"
"3","3","encoding","encoding","49","Box_Cutlery.jpg","36","0","1084"
"3","3","encoding","encoding","50","Airplane_Commercial.jpg","37","0","806"
"3","3","encoding","encoding","51","Computer_CPU.jpg","37","0","1667"
"3","3","encoding","encoding","52","InflatableSleepingBag.jpg","37","0","1454"
"3","3","encoding","encoding","53","AnsweringMachine.jpg","36","0","1775"
"3","3","encoding","encoding","54","Candle_ChristmasDecor.jpg","36","0","699"
"3","3","encoding","encoding","55","Jug_ClayAncient.jpg","36","0","707"
"3","3","encoding","encoding","56","Can_Oblong.jpg","0","0","2000"
"3","3","encoding","encoding","57","Toy_MrPotatoHeadjpg.jpg","37","0","937"
"3","3","encoding","encoding","58","Stethoscope.jpg","37","0","1136"
"3","3","encoding","encoding","59","Umbrella_Classic.jpg","37","0","1284"
"3","3","encoding","encoding","60","Clock_Grandfather.jpg","37","0","1780"
"3","3","encoding","encoding","62","Telescope.jpg","36","0","889"
"3","3","encoding","encoding","63","HotWaterBottle.jpg","37","0","1442"
"3","3","encoding","encoding","64","MousepadAndMouse.jpg","36","0","1115"
"3","3","encoding","encoding","65","PuppetTheatre_BlueRed.jpg","36","0","1479"
"3","3","encoding","encoding","66","PaintRollTray.jpg","36","0","1901"
"3","3","encoding","encoding","67","Ball_Golf.jpg","37","0","1433"
"3","3","encoding","encoding","68","DryRack_Dishes.jpg","36","0","1087"
"3","3","encoding","encoding","69","Light_PostIsolated.jpg","37","0","1385"
"3","3","encoding","encoding","70","Scoop_Flour.jpg","37","0","1258"
"3","3","encoding","encoding","71","Puzzle_Piece.jpg","36","0","1811"
"3","3","encoding","encoding","72","Cage_Bird.jpg","36","0","670"
"3","3","encoding","encoding","73","RadioactiveContainer.jpg","36","0","654"
"3","3","encoding","encoding","74","Milkshake_Chocolate.jpg","36","0","951"
"3","3","encoding","encoding","75","KnifeHolder.jpg","36","0","1678"
"3","3","encoding","encoding","76","Statue_Buddha.jpg","37","0","1193"
"3","3","encoding","encoding","77","Hat_Tuque.jpg","36","0","1881"
"3","3","encoding","encoding","78","Mattress.jpg","36","0","1006"
"3","3","encoding","encoding","79","Film_Roll.jpg","37","0","828"
"3","3","encoding","encoding","80","Stationary.jpg","37","0","1278"
"3","3","encoding","encoding","81","Kite_Rainbow.jpg","37","0","949"
"3","3","encoding","encoding","82","Broom_Long.jpg","37","0","797"
"3","3","encoding","encoding","83","Lettuce_Iceberg.jpg","37","0","1344"
"3","3","encoding","encoding","84","Candleholder_Tall.jpg","36","0","1893"
"3","3","encoding","encoding","85","PortaPotty.jpg","36","0","1265"
"3","3","encoding","encoding","86","HairBand.jpg","37","0","1059"
"3","3","encoding","encoding","87","Oneholepunch.jpg","37","0","1916"
"3","3","encoding","encoding","88","Bottle_Champagne.jpg","37","0","1213"
"3","3","encoding","encoding","89","Guitar_Electric.jpg","36","0","1658"
"3","3","encoding","encoding","90","EspressoMachine.jpg","36","0","1021"
"3","3","encoding","encoding","91","Bag_Hand.jpg","36","0","1195"
"3","3","encoding","encoding","92","Chairs_Stacked.jpg","36","0","990"
"3","3","encoding","encoding","93","Camera_Antique.jpg","36","0","643"
"3","3","encoding","encoding","94","Boat_Ferry.jpg","36","0","1208"
"3","3","encoding","encoding","95","Tree_ChristmasMini.jpg","37","0","1407"
"3","3","encoding","encoding","96","Caribou.jpg","36","0","915"
"3","3","encoding","encoding","97","Ball_Basketball.jpg","36","0","1211"
"3","3","encoding","encoding","98","Drum_Cymbal.jpg","37","0","997"
"3","3","encoding","encoding","99","ElectricOutlet.jpg","36","0","910"
"3","3","encoding","encoding","100","Sign_OneWay.jpg","37","0","802"
"3","3","encoding","encoding","101","Playground.jpg","37","0","1707"
"3","3","encoding","encoding","102","GiftBow.jpg","37","0","1762"
"3","3","encoding","encoding","103","Makeup_Eyeshadow.jpg","37","0","1701"
"3","3","encoding","encoding","104","Bells_Christmas.jpg","37","0","1990"
"3","3","encoding","encoding","105","Pricegun.jpg","37","0","1809"
"3","3","encoding","encoding","106","Clothespin_Beige.jpg","37","0","1367"
"3","3","encoding","encoding","107","MeatRaw.jpg","37","0","1442"
"3","3","encoding","encoding","108","Bag_Diaper.jpg","37","0","1674"
"3","3","encoding","encoding","109","RollerBlade.jpg","37","0","1203"
"3","3","encoding","encoding","110","Wheel_Steering.jpg","37","0","1512"
"3","3","encoding","encoding","111","Toy_Boat.jpg","37","0","1339"
"3","3","encoding","encoding","112","Piano_Upright.jpg","36","0","1970"
"3","3","encoding","encoding","113","Box_JeweleryWooden.jpg","0","0","2000"
"3","3","encoding","encoding","114","CoffeeLid.jpg","37","0","1347"
"3","3","encoding","encoding","115","Cup_Fruits.jpg","37","0","1020"
"3","3","encoding","encoding","116","Headset.jpg","37","0","840"
"3","3","encoding","encoding","117","Backpack_Travel.jpg","37","0","961"
"3","3","encoding","encoding","118","BicycleGear.jpg","36","0","1542"
"3","3","encoding","encoding","119","WorldMap.jpg","0","0","2000"
"3","3","encoding","encoding","120","KiddiePool.jpg","37","0","758"
"3","3","encoding","encoding","121","Spraybottle.jpg","37","0","1035"
"3","3","encoding","encoding","123","Bathtub.jpg","36","0","872"
"3","3","encoding","encoding","124","Decoration_Chinese.jpg","37","0","1296"
"3","3","encoding","encoding","125","AmberWithMosquito.jpg","37","0","1331"
"3","3","encoding","encoding","126","Drink_Cocktail.jpg","37","0","1761"
"3","3","encoding","encoding","127","Bulldozer.jpg","37","0","1643"
"3","3","encoding","encoding","128","Hat_Party.jpg","37","0","930"
"3","3","encoding","encoding","129","Hat_Visor.jpg","37","0","1471"
"3","3","encoding","encoding","130","PuppetTheatre_WhiteGold.jpg","36","0","1381"
"3","3","encoding","encoding","131","ControlPanel.jpg","36","0","1720"
"3","3","encoding","encoding","132","Gloves_Winter.jpg","37","0","1224"
"3","3","encoding","encoding","133","Cheque.jpg","37","0","1198"
"3","3","encoding","encoding","134","FuzzyDice.jpg","37","0","712"
"3","3","encoding","encoding","135","JumpingJack.jpg","36","0","1388"
"3","3","encoding","encoding","136","SoundMixer_Blue.jpg","36","0","1121"
"3","3","encoding","encoding","137","SoapDish.jpg","0","0","2000"
"3","3","encoding","encoding","138","SkullDeer.jpg","36","0","1099"
"3","3","encoding","encoding","139","Makeup_Bag.jpg","37","0","1657"
"3","3","encoding","encoding","140","Pants.jpg","36","0","1631"
"3","3","encoding","encoding","141","Trumpet.jpg","0","0","2000"
"3","3","encoding","encoding","142","Avocado.jpg","37","0","1321"
"3","3","encoding","encoding","143","Bicycle_Adult.jpg","36","0","1272"
"3","3","encoding","encoding","144","Nyala.jpg","37","0","1147"
"3","3","encoding","encoding","145","Lynx.jpg","37","0","1417"
"3","3","encoding","encoding","146","ChalkLineTool.jpg","37","0","1724"
"3","3","encoding","encoding","147","Stick_Bridge.jpg","37","0","1410"
"3","3","encoding","encoding","148","Toy_BlocksPlastic Colourful.jpg","36","0","1583"
"3","3","encoding","encoding","149","Can_GasSpout.jpg","37","0","1930"
"3","3","encoding","encoding","150","Tractor_Yellow.jpg","36","0","1657"
"3","3","encoding","encoding","151","WaterFountain.jpg","37","0","1476"
"3","3","encoding","encoding","152","Chicken_FriedWing.jpg","36","0","1916"
"3","3","encoding","encoding","153","Hook_Double.jpg","37","0","835"
"3","3","encoding","encoding","154","Cup_Bathroom.jpg","37","0","933"
"3","3","encoding","encoding","155","Bottle_Liquor.jpg","37","0","1004"
"3","3","encoding","encoding","156","Lamp_TableWhite.jpg","37","0","1276"
"3","3","encoding","encoding","157","PaintCan.jpg","0","0","2000"
"3","3","encoding","encoding","158","Flute_Tin.jpg","37","0","1228"
"3","3","encoding","encoding","159","Wallet_ClosedBlack.jpg","37","0","1436"
"3","3","encoding","encoding","160","Cannoli.jpg","37","0","1324"
"3","3","encoding","encoding","161","PumpBreast.jpg","37","0","762"
"3","3","encoding","encoding","162","DayPlanner.jpg","37","0","1566"
"3","3","encoding","encoding","163","Trash_Medical.jpg","37","0","802"
"3","3","encoding","encoding","164","Slide.jpg","37","0","1701"
"3","3","encoding","encoding","165","Bone.jpg","37","0","682"
"3","3","encoding","encoding","166","Horn_French.jpg","36","0","1196"
"3","3","encoding","encoding","167","CoolingFan_Engine.jpg","37","0","1250"
"3","3","encoding","encoding","168","Stick_IceHockey.jpg","37","0","1858"
"3","3","encoding","encoding","169","Flower_Tulip.jpg","37","0","921"
"3","3","encoding","encoding","170","CementFinisher.jpg","36","0","1107"
"3","3","encoding","encoding","171","SkiPoles.jpg","37","0","1366"
"3","3","encoding","encoding","172","Box_Apples.jpg","36","0","1342"
"3","3","encoding","encoding","173","Pasta_Shell.jpg","37","0","1002"
"3","3","encoding","encoding","174","CookieCutter_Bell.jpg","37","0","926"
"3","3","encoding","encoding","175","Freezer.jpg","36","0","952"
"3","3","encoding","encoding","176","Flower_Rose.jpg","37","0","740"
"3","3","encoding","encoding","177","HairCurler.jpg","37","0","923"
"3","3","retrieval","new_objects","1","Bed_Hospital.jpg","37","1","1131"
"3","3","retrieval","new_objects","2","Stove_Propane.jpg","36","0","932"
"3","3","retrieval","old_objects","3","Gloves_Winter.jpg","37","0","1001"
"3","3","retrieval","new_objects","4","Snowboard.jpg","37","1","579"
"3","3","retrieval","old_objects","5","Lynx.jpg","36","1","518"
"3","3","retrieval","new_objects","6","Partition.jpg","37","1","685"
"3","3","retrieval","new_objects","7","Chair_Student.jpg","37","1","1147"
"3","3","retrieval","old_objects","8","Can_GasSpout.jpg","37","0","790"
"3","3","retrieval","old_objects","9","ElectricOutlet.jpg","37","0","1108"
"3","3","retrieval","new_objects","10","CigarCutter.jpg","37","1","897"
"3","3","retrieval","old_objects","11","RollerBlade.jpg","37","0","926"
"3","3","retrieval","old_objects","12","AnsweringMachine.jpg","37","0","932"
"3","3","retrieval","new_objects","13","JukeboxAntique.jpg","37","1","890"
"3","3","retrieval","new_objects","14","CarLighter.jpg","37","1","843"
"3","3","retrieval","old_objects","15","Ball_Golf.jpg","37","0","921"
"3","3","retrieval","old_objects","16","WaterFountain.jpg","37","0","591"
"3","3","retrieval","old_objects","17","Mattress.jpg","37","0","820"
"3","3","retrieval","new_objects","18","Toy_Stroller.jpg","37","1","955"
"3","3","retrieval","new_objects","19","Peeler.jpg","37","1","1416"
"3","3","retrieval","new_objects","20","Trophy.jpg","37","1","831"
"3","3","retrieval","old_objects","21","Hoodie.jpg","37","0","657"
"3","3","retrieval","new_objects","22","Wreath.jpg","37","1","788"
"3","3","retrieval","old_objects","23","Computer_CPU.jpg","37","0","734"
"3","3","retrieval","old_objects","24","Bottle_Liquor.jpg","36","1","1015"
"3","3","retrieval","new_objects","25","Paddle_PingPong.jpg","36","0","928"
"3","3","retrieval","new_objects","26","Glass_Beer.jpg","37","1","906"
"3","3","retrieval","old_objects","27","PaintRollTray.jpg","37","0","725"
"3","3","retrieval","new_objects","28","Chair_Rocking.jpg","37","1","733"
"3","3","retrieval","old_objects","29","Guacamole.jpg","37","0","1055"
"3","3","retrieval","old_objects","30","KiddiePool.jpg","37","0","1369"
"3","3","retrieval","new_objects","31","DrinkingFountain.jpg","37","1","1421"
"3","3","retrieval","old_objects","32","HairBand.jpg","36","1","1047"
"3","3","retrieval","new_objects","33","Telephone_DialAntique.jpg","36","0","927"
"3","3","retrieval","old_objects","34","MortarPestle_WhiteMarble.jpg","36","1","1532"
"3","3","retrieval","new_objects","35","Toy_BearBrownPlushie.jpg","36","0","1396"
"3","3","retrieval","old_objects","36","Avocado.jpg","37","0","1092"
"3","3","retrieval","new_objects","37","Rock_Mimetite.jpg","37","1","1684"
"3","3","retrieval","new_objects","38","Candelabra.jpg","37","1","1757"
"3","3","retrieval","old_objects","39","RadioactiveContainer.jpg","36","1","1124"
"3","3","retrieval","new_objects","40","Toy_Moose.jpg","36","0","1415"
"3","3","retrieval","new_objects","41","Oars.jpg","37","1","1463"
"3","3","retrieval","new_objects","42","IceScraper.jpg","37","1","1169"
"3","3","retrieval","new_objects","43","Ashtray_Cigarettes.jpg","36","0","1016"
"3","3","retrieval","new_objects","44","Neckrest.jpg","37","1","834"
"3","3","retrieval","old_objects","45","Camera_Antique.jpg","36","1","1665"
"3","3","retrieval","new_objects","46","Ball_Tennis.jpg","37","1","844"
"3","3","retrieval","old_objects","47","Umbrella_Classic.jpg","37","0","760"
"3","3","retrieval","old_objects","48","Playground.jpg","37","0","1001"
"3","3","retrieval","new_objects","49","Toaster_Antique.jpg","37","1","883"
"3","3","retrieval","old_objects","50","Chairs_Stacked.jpg","37","0","1340"
"3","3","retrieval","old_objects","51","Flower_Tulip.jpg","36","1","1405"
"3","3","retrieval","old_objects","52","Clock_Grandfather.jpg","36","1","1233"
"3","3","retrieval","new_objects","53","Stool_Wood.jpg","36","0","1096"
"3","3","retrieval","new_objects","54","Case_Leather.jpg","36","0","1630"
"3","3","retrieval","old_objects","55","Chicken_FriedWing.jpg","36","1","1632"
"3","3","retrieval","new_objects","56","SewingMachine.jpg","36","0","893"
"3","3","retrieval","old_objects","57","BusStop.jpg","37","0","877"
"3","3","retrieval","new_objects","58","Nightstand.jpg","36","0","854"
"3","3","retrieval","old_objects","59","Horn_French.jpg","36","1","1032"
"3","3","retrieval","new_objects","60","Clock_Digital.jpg","37","1","1471"
"3","3","retrieval","new_objects","62","FlipFlop_PairBlue.jpg","37","1","1118"
"3","3","retrieval","old_objects","63","MousepadAndMouse.jpg","37","0","1103"
"3","3","retrieval","old_objects","64","RemoteControl.jpg","36","1","1136"
"3","3","retrieval","old_objects","65","Cup_Bathroom.jpg","36","1","1445"
"3","3","retrieval","old_objects","66","Boat_Sail.jpg","0","0","2000"
"3","3","retrieval","old_objects","67","Cheese_Platter.jpg","36","1","1037"
"3","3","retrieval","new_objects","68","Mask_Ski.jpg","37","1","1410"
"3","3","retrieval","new_objects","69","ComputerKeyboard.jpg","37","1","1455"
"3","3","retrieval","old_objects","70","DryRack_Dishes.jpg","36","1","45"
"3","3","retrieval","new_objects","71","Cup_Latte.jpg","37","1","861"
"3","3","retrieval","new_objects","72","Bottle_BubbleBlower.jpg","37","1","1003"
"3","3","retrieval","old_objects","73","BridgeWooden.jpg","36","1","270"
"3","3","retrieval","old_objects","74","Flute_Tin.jpg","36","1","832"
"3","3","retrieval","new_objects","75","CandleSnuffer.jpg","36","0","1284"
"3","3","retrieval","new_objects","76","Sign_Airport.jpg","36","0","1410"
"3","3","retrieval","old_objects","77","Hat_Party.jpg","36","1","1530"
"3","3","retrieval","new_objects","78","Toy_Christmastree.jpg","0","0","2000"
"3","3","retrieval","new_objects","79","Seashell_RoseMurex.jpg","36","0","778"
"3","3","retrieval","old_objects","80","PortaPotty.jpg","36","1","821"
"3","3","retrieval","new_objects","81","Stove_Camping.jpg","36","0","1035"
"3","3","retrieval","old_objects","82","Wallet_ClosedBlack.jpg","36","1","991"
"3","3","retrieval","new_objects","83","Magnifying_Glass.jpg","36","0","1258"
"3","3","retrieval","new_objects","84","PotatoMasher_Grate.jpg","36","0","1137"
"3","3","retrieval","new_objects","85","PoliceTape.jpg","36","0","1334"
"3","3","retrieval","new_objects","86","WindowBlinds.jpg","36","0","1243"
"3","3","retrieval","new_objects","87","SculptureMetalFish.jpg","36","0","1509"
"3","3","retrieval","old_objects","88","Cassette_Audio.jpg","36","1","1499"
"3","3","retrieval","old_objects","89","Brush_Cleaning.jpg","36","1","900"
"3","3","retrieval","old_objects","90","Broom_Long.jpg","36","1","994"
"3","3","retrieval","old_objects","91","WorldMap.jpg","36","1","1682"
"3","3","retrieval","old_objects","92","CoolingFan_Engine.jpg","37","0","1021"
"3","3","retrieval","old_objects","93","FuzzyDice.jpg","37","0","1091"
"3","3","retrieval","old_objects","94","Pineapple.jpg","36","1","1295"
