"group","subject","blockcode","trialcode","trialnum","values.stimulus","response","correct","latency"
"1","1","encoding","encoding","1","Protractor.jpg","0","0","2001"
"1","1","encoding","encoding","2","Shoe_Sneaker.jpg","0","0","2001"
"1","1","encoding","encoding","3","LawnMower.jpg","Ctrl+'B'","1","128"
"1","1","retrieval","new_objects","1","Squid_Orange.jpg","0","0","2001"
"1","1","retrieval","old_objects","2","Croissant.jpg","Ctrl+'B'","1","385"
"1","1","demographics_block","gender","1","Croissant.jpg","","1","4751"
"1","1","demographics_block","age","1","Croissant.jpg","","1","4751"
"1","1","demographics_block","education","1","Croissant.jpg","","1","4751"
"6","6","encoding","encoding","1","CarSuspension.jpg","37","0","1775"
"6","6","encoding","encoding","2","Telephone_TinCan.jpg","37","0","1663"
"6","6","encoding","encoding","3","PagodaModel.jpg","0","0","2000"
"6","6","encoding","encoding","4","Stick_Honey.jpg","37","0","1025"
"6","6","encoding","encoding","5","ShoeLace_Flat.jpg","37","0","997"
"6","6","encoding","encoding","6","Thermostat.jpg","37","0","790"
"6","6","encoding","encoding","7","Sign_Taxi.jpg","36","0","1528"
"6","6","encoding","encoding","8","Bed_ChildBirch.jpg","36","0","1644"
"6","6","encoding","encoding","9","GoldNugget.jpg","37","0","1073"
"6","6","encoding","encoding","10","Teardrop.jpg","37","0","1275"
"6","6","encoding","encoding","11","Goat.jpg","36","0","1060"
"6","6","encoding","encoding","12","BicycleChain.jpg","0","0","2000"
"6","6","encoding","encoding","13","Jug_Wicker.jpg","0","0","2000"
"6","6","encoding","encoding","14","Mirror_Dental.jpg","37","0","1006"
"6","6","encoding","encoding","15","Pitcher.jpg","37","0","1089"
"6","6","encoding","encoding","16","Helmet_Construction.jpg","37","0","1262"
"6","6","encoding","encoding","17","Shirt_Tshirt.jpg","37","0","1566"
"6","6","encoding","encoding","18","ChainRusty.jpg","37","0","805"
"6","6","encoding","encoding","19","VacuumHose.jpg","37","0","1038"
"6","6","encoding","encoding","20","Toolbox_Old.jpg","36","0","839"
"6","6","encoding","encoding","21","Door_Blue.jpg","36","0","867"
"6","6","encoding","encoding","22","Figurine_Ballerina.jpg","37","0","825"
"6","6","encoding","encoding","23","LeatherPuncherTool.jpg","37","0","951"
"6","6","encoding","encoding","24","Clock_Interior.jpg","37","0","1067"
"6","6","encoding","encoding","25","Brush_Windshield.jpg","36","0","1001"
"6","6","encoding","encoding","26","PowerDoorPushButton.jpg","37","0","1695"
"6","6","encoding","encoding","27","Toy_StackingRing.jpg","37","0","731"
"6","6","encoding","encoding","28","Locomotive.jpg","36","0","797"
"6","6","encoding","encoding","29","Wire_ElectricalSingle.jpg","37","0","770"
"6","6","encoding","encoding","30","TurkeyDinner.jpg","37","0","939"
"6","6","encoding","encoding","31","Chair_High.jpg","36","0","1020"
"6","6","encoding","encoding","32","Knife_Butter.jpg","37","0","787"
"6","6","encoding","encoding","33","Hook_Fishing.jpg","37","0","639"
"6","6","encoding","encoding","34","DusterFeather.jpg","36","0","992"
"6","6","encoding","encoding","35","Shoe_Highheel.jpg","37","0","1192"
"6","6","encoding","encoding","36","Shoe_Sneaker.jpg","37","0","651"
"6","6","encoding","encoding","37","BicyclePedal.jpg","37","0","867"
"6","6","encoding","encoding","38","Candy_Heart.jpg","37","0","1061"
"6","6","encoding","encoding","39","GasStation.jpg","36","0","732"
"6","6","encoding","encoding","40","Comb.jpg","37","0","655"
"6","6","encoding","encoding","41","Exercise_Stepper.jpg","36","0","1314"
"6","6","encoding","encoding","42","Lips_Wax.jpg","37","0","734"
"6","6","encoding","encoding","43","Cage_Hamster.jpg","36","0","946"
"6","6","encoding","encoding","44","Suit_Women.jpg","36","0","757"
"6","6","encoding","encoding","45","Toy_Witch.jpg","36","0","1535"
"6","6","encoding","encoding","46","Sandcastle.jpg","36","0","1324"
"6","6","encoding","encoding","47","Lettuce_GreenLeaf.jpg","37","0","1281"
"6","6","encoding","encoding","48","Bag_Toiletry.jpg","36","0","869"
"6","6","encoding","encoding","49","Bread_Carrot.jpg","37","0","847"
"6","6","encoding","encoding","50","Scarecrow.jpg","36","0","968"
"6","6","encoding","encoding","51","Chair_BeanBag.jpg","36","0","898"
"6","6","encoding","encoding","52","Hedgehog.jpg","37","0","1574"
"6","6","encoding","encoding","53","GatedEntrance.jpg","36","0","695"
"6","6","encoding","encoding","54","Loveseat.jpg","36","0","908"
"6","6","encoding","encoding","55","Necklace_Pearl.jpg","37","0","1815"
"6","6","encoding","encoding","56","Bottle_Wine.jpg","37","0","1922"
"6","6","encoding","encoding","57","Crib_Basket.jpg","36","0","1099"
"6","6","encoding","encoding","58","Chair_Folding.jpg","36","0","697"
"6","6","encoding","encoding","59","Box_WoodenClosed.jpg","36","0","1262"
"6","6","encoding","encoding","60","Pillow_Heart.jpg","37","0","1085"
"6","6","encoding","encoding","62","Candleholder_LampShaped.jpg","37","0","1177"
"6","6","encoding","encoding","63","HDMIConnector.jpg","37","0","872"
"6","6","encoding","encoding","64","TortillaChip.jpg","37","0","645"
"6","6","encoding","encoding","65","Sign_Wetfloor.jpg","36","0","809"
"6","6","encoding","encoding","66","Feet.jpg","36","0","1505"
"6","6","encoding","encoding","67","Croissant.jpg","37","0","1123"
"6","6","encoding","encoding","68","BookShelf.jpg","36","0","792"
"6","6","encoding","encoding","69","LawnMower.jpg","36","0","744"
"6","6","encoding","encoding","70","Protractor.jpg","37","0","1026"
"6","6","encoding","encoding","71","Decoration_ChristmasRed.jpg","37","0","697"
"6","6","encoding","encoding","72","Clock_Radio.jpg","37","0","718"
"6","6","encoding","encoding","73","Arch_Triomphe.jpg","36","0","626"
"6","6","encoding","encoding","74","Stingray.jpg","36","0","1068"
"6","6","encoding","encoding","75","Airplane_Fighter.jpg","36","0","675"
"6","6","encoding","encoding","76","Egg_Wooden.jpg","37","0","1415"
"6","6","encoding","encoding","77","Gloves_WhiteKnit.jpg","37","0","763"
"6","6","encoding","encoding","78","Canister_Oil.jpg","36","0","901"
"6","6","encoding","encoding","79","Pickle.jpg","37","0","836"
"6","6","encoding","encoding","80","LampPost_OneBulb.jpg","36","0","812"
"6","6","encoding","encoding","81","Skirt_Stripes.jpg","37","0","711"
"6","6","encoding","encoding","82","Razor.jpg","36","0","1227"
"6","6","encoding","encoding","83","HairDryer.jpg","36","0","1572"
"6","6","encoding","encoding","84","SlushieMachine.jpg","36","0","710"
"6","6","encoding","encoding","85","Clock_Wall.jpg","36","0","969"
"6","6","encoding","encoding","86","Switch_LightWhite.jpg","37","0","852"
"6","6","encoding","encoding","87","Toy_SeeSaw.jpg","36","0","1192"
"6","6","encoding","encoding","88","ToothPick.jpg","37","0","1434"
"6","6","encoding","encoding","89","Cherry.jpg","37","0","937"
"6","6","encoding","encoding","90","Toaster_MetalSleek.jpg","36","0","1132"
"6","6","encoding","encoding","91","Jar_Canopic.jpg","36","0","599"
"6","6","encoding","encoding","92","Hat_Beret.jpg","37","0","1053"
"6","6","encoding","encoding","93","FireAlarm.jpg","36","0","992"
"6","6","encoding","encoding","94","Cake_Birthday.jpg","36","0","1158"
"6","6","encoding","encoding","95","Brush_Makeup.jpg","37","0","1028"
"6","6","encoding","encoding","96","Birdhouse.jpg","36","0","845"
"6","6","encoding","encoding","97","Toy_Lizard.jpg","37","0","1183"
"6","6","encoding","encoding","98","Cheesegrater_Handheld.jpg","37","0","624"
"6","6","encoding","encoding","99","Level.jpg","37","0","839"
"6","6","encoding","encoding","100","Toy_Turtle.jpg","36","0","1000"
"6","6","encoding","encoding","101","House_Rural.jpg","36","0","746"
"6","6","encoding","encoding","102","BuildingChinese.jpg","36","0","607"
"6","6","encoding","encoding","103","RollerCoaster.jpg","36","0","795"
"6","6","encoding","encoding","104","Eggplant.jpg","37","0","672"
"6","6","encoding","encoding","105","Pot_BlackOld.jpg","36","0","818"
"6","6","encoding","encoding","106","FortuneCookie.jpg","37","0","838"
"6","6","encoding","encoding","107","Battery_Car.jpg","36","0","973"
"6","6","encoding","encoding","108","Cheesegrater_Box.jpg","37","0","1477"
"6","6","encoding","encoding","109","Earring_Hoop.jpg","37","0","1526"
"6","6","encoding","encoding","110","Tombstone.jpg","36","0","827"
"6","6","encoding","encoding","111","Barometer_Wood.jpg","36","0","1221"
"6","6","encoding","encoding","112","Fruit_Orange.jpg","37","0","739"
"6","6","encoding","encoding","113","Gorilla.jpg","36","0","631"
"6","6","encoding","encoding","114","Container_Tupperware.jpg","37","0","840"
"6","6","encoding","encoding","115","Kebab_Vegetables.jpg","37","0","1440"
"6","6","encoding","encoding","116","Wontons.jpg","37","0","931"
"6","6","encoding","encoding","117","Dolly.jpg","36","0","740"
"6","6","encoding","encoding","118","Flamingo_Cartoon.jpg","36","0","1011"
"6","6","encoding","encoding","119","Chair_Bamboo.jpg","36","0","737"
"6","6","encoding","encoding","120","Door_Green.jpg","36","0","647"
"6","6","encoding","encoding","121","Cart_Groceries.jpg","36","0","736"
"6","6","encoding","encoding","123","Ginger.jpg","37","0","1006"
"6","6","encoding","encoding","124","PhoneCase.jpg","37","0","811"
"6","6","encoding","encoding","125","MalletJudge.jpg","37","0","1508"
"6","6","encoding","encoding","126","Microwave.jpg","36","0","734"
"6","6","encoding","encoding","127","Dart.jpg","37","0","761"
"6","6","encoding","encoding","128","Vase_Decorative.jpg","36","0","922"
"6","6","encoding","encoding","129","BicycleOdometer.jpg","0","0","2000"
"6","6","encoding","encoding","130","Pancakes.jpg","37","0","635"
"6","6","encoding","encoding","131","GutterAndDrainPipe.jpg","36","0","833"
"6","6","encoding","encoding","132","Ship_Battle.jpg","36","0","702"
"6","6","encoding","encoding","133","Tape_Scotch.jpg","37","0","937"
"6","6","encoding","encoding","134","Toy_DollHomeMade.jpg","37","0","817"
"6","6","encoding","encoding","135","Inukshuk.jpg","36","0","678"
"6","6","encoding","encoding","136","Camera_Video.jpg","37","0","956"
"6","6","encoding","encoding","137","TelephoneSwitchboard.jpg","37","0","1369"
"6","6","encoding","encoding","138","Cabinet_Office.jpg","36","0","790"
"6","6","encoding","encoding","139","RiceRaw.jpg","37","0","865"
"6","6","encoding","encoding","140","Plunger.jpg","36","0","760"
"6","6","encoding","encoding","141","Case_CD.jpg","37","0","1070"
"6","6","encoding","encoding","142","Bullet.jpg","37","0","878"
"6","6","encoding","encoding","143","ScrewDriver.jpg","37","0","993"
"6","6","encoding","encoding","144","Cornucopia.jpg","36","0","1077"
"6","6","encoding","encoding","145","ManholeCover.jpg","36","0","857"
"6","6","encoding","encoding","146","Steamroller.jpg","36","0","629"
"6","6","encoding","encoding","147","Pipette.jpg","36","0","1810"
"6","6","encoding","encoding","148","Humidifier.jpg","36","0","1640"
"6","6","encoding","encoding","149","Syrup_Maple.jpg","37","0","977"
"6","6","encoding","encoding","150","Table_Poker.jpg","36","0","1118"
"6","6","encoding","encoding","151","TotemPole.jpg","36","0","1003"
"6","6","encoding","encoding","152","TailLight.jpg","36","0","924"
"6","6","encoding","encoding","153","Pot_TurkishCoffee.jpg","37","0","1251"
"6","6","encoding","encoding","154","Easel.jpg","36","0","962"
"6","6","encoding","encoding","155","RibbonPin.jpg","37","0","1064"
"6","6","encoding","encoding","156","Table_Side.jpg","36","0","649"
"6","6","encoding","encoding","157","Chair_PlasticGreen.jpg","36","0","643"
"6","6","encoding","encoding","158","DJMixer.jpg","37","0","1024"
"6","6","encoding","encoding","159","RibbonString.jpg","37","0","553"
"6","6","encoding","encoding","160","Lock_Key.jpg","37","0","581"
"6","6","encoding","encoding","161","Pants_Firefighter.jpg","36","0","1522"
"6","6","encoding","encoding","162","ToothbrushHolder.jpg","37","0","1080"
"6","6","encoding","encoding","163","Helmet_Bicycle.jpg","36","0","976"
"6","6","encoding","encoding","164","Sieve_TopView.jpg","37","0","943"
"6","6","encoding","encoding","165","Spoon_Serving.jpg","37","0","613"
"6","6","encoding","encoding","166","Tag_Identifier.jpg","37","0","648"
"6","6","encoding","encoding","167","MoneyBill50.jpg","37","0","721"
"6","6","encoding","encoding","168","Alfalfa.jpg","37","0","733"
"6","6","encoding","encoding","169","Ship_Model.jpg","36","0","877"
"6","6","encoding","encoding","170","Table_Set.jpg","36","0","638"
"6","6","encoding","encoding","171","ChocolateBar_HalfUnwrapped.jpg","37","0","1215"
"6","6","encoding","encoding","172","Scooter.jpg","36","0","670"
"6","6","encoding","encoding","173","Bucket_WoodenDark.jpg","36","0","673"
"6","6","encoding","encoding","174","ChiliFlakes.jpg","37","0","748"
"6","6","encoding","encoding","175","House_Stone.jpg","36","0","614"
"6","6","encoding","encoding","176","LifeJacket_BlueYellow.jpg","37","0","1092"
"6","6","encoding","encoding","177","Crate_Milk.jpg","36","0","912"
"6","6","retrieval","old_objects","1","Croissant.jpg","36","1","851"
"6","6","retrieval","new_objects","2","Screw.jpg","37","1","917"
"6","6","retrieval","new_objects","3","GasBurner.jpg","37","1","813"
"6","6","retrieval","new_objects","4","WateringCan_Antique.jpg","37","1","720"
"6","6","retrieval","new_objects","5","Heater_Infrared.jpg","37","1","597"
"6","6","retrieval","new_objects","6","Lion.jpg","37","1","578"
"6","6","retrieval","old_objects","7","Thermostat.jpg","36","1","689"
"6","6","retrieval","old_objects","8","Table_Side.jpg","36","1","715"
"6","6","retrieval","old_objects","9","Clock_Wall.jpg","36","1","818"
"6","6","retrieval","old_objects","10","BicycleChain.jpg","36","1","642"
"6","6","retrieval","new_objects","11","Glass_Ball.jpg","37","1","838"
"6","6","retrieval","old_objects","12","Humidifier.jpg","36","1","854"
"6","6","retrieval","new_objects","13","Harp.jpg","37","1","661"
"6","6","retrieval","old_objects","14","TortillaChip.jpg","37","0","686"
"6","6","retrieval","old_objects","15","Bullet.jpg","36","1","973"
"6","6","retrieval","new_objects","16","Toy_GasPump.jpg","37","1","831"
"6","6","retrieval","old_objects","17","Kebab_Vegetables.jpg","36","1","799"
"6","6","retrieval","new_objects","18","Hotdog_Weiner.jpg","37","1","971"
"6","6","retrieval","new_objects","19","Computer_ExpansionCard.jpg","37","1","1018"
"6","6","retrieval","new_objects","20","PillBottle_Prescription.jpg","37","1","725"
"6","6","retrieval","new_objects","21","Camel_Dromedary.jpg","37","1","634"
"6","6","retrieval","new_objects","22","Helmet_Football.jpg","37","1","604"
"6","6","retrieval","old_objects","23","PowerDoorPushButton.jpg","36","1","874"
"6","6","retrieval","old_objects","24","Tape_Scotch.jpg","36","1","869"
"6","6","retrieval","old_objects","25","Toy_Turtle.jpg","36","1","679"
"6","6","retrieval","new_objects","26","Cracker_Saltine.jpg","37","1","818"
"6","6","retrieval","old_objects","27","Case_CD.jpg","36","1","846"
"6","6","retrieval","old_objects","28","Plunger.jpg","36","1","637"
"6","6","retrieval","old_objects","29","Hat_Beret.jpg","36","1","789"
"6","6","retrieval","new_objects","30","Boat_Dinghy.jpg","37","1","805"
"6","6","retrieval","new_objects","31","Lighter_Black.jpg","37","1","762"
"6","6","retrieval","old_objects","32","Switch_LightWhite.jpg","36","1","668"
"6","6","retrieval","new_objects","33","Bread_Pita.jpg","37","1","970"
"6","6","retrieval","new_objects","34","Toy_Firetruck.jpg","37","1","816"
"6","6","retrieval","old_objects","35","Earring_Hoop.jpg","36","1","742"
"6","6","retrieval","old_objects","36","BuildingChinese.jpg","36","1","741"
"6","6","retrieval","new_objects","37","Dreamcatcher.jpg","37","1","728"
"6","6","retrieval","old_objects","38","Table_Set.jpg","36","1","639"
"6","6","retrieval","new_objects","39","Spoon_Wooden.jpg","37","1","906"
"6","6","retrieval","old_objects","40","Cage_Hamster.jpg","36","1","774"
"6","6","retrieval","old_objects","41","Cherry.jpg","36","1","684"
"6","6","retrieval","new_objects","42","Speaker_Single.jpg","37","1","678"
"6","6","retrieval","old_objects","43","PagodaModel.jpg","36","1","629"
"6","6","retrieval","new_objects","44","Hat_Cowboy.jpg","37","1","640"
"6","6","retrieval","old_objects","45","Crib_Basket.jpg","36","1","683"
"6","6","retrieval","new_objects","46","Beater_Electric.jpg","37","1","598"
"6","6","retrieval","new_objects","47","Table_Magazine.jpg","37","1","656"
"6","6","retrieval","new_objects","48","Drum_Conga.jpg","37","1","542"
"6","6","retrieval","old_objects","49","Scooter.jpg","37","0","507"
"6","6","retrieval","old_objects","50","Cornucopia.jpg","36","1","656"
"6","6","retrieval","old_objects","51","Arch_Triomphe.jpg","36","1","712"
"6","6","retrieval","old_objects","52","Chair_Bamboo.jpg","36","1","787"
"6","6","retrieval","old_objects","53","Toolbox_Old.jpg","36","1","711"
"6","6","retrieval","old_objects","54","Gorilla.jpg","36","1","574"
"6","6","retrieval","new_objects","55","Ball_Squashball.jpg","37","1","690"
"6","6","retrieval","old_objects","56","Pot_BlackOld.jpg","36","1","730"
"6","6","retrieval","new_objects","57","Pickaxe.jpg","37","1","958"
"6","6","retrieval","new_objects","58","Foam_Accoustic.jpg","37","1","564"
"6","6","retrieval","old_objects","59","Syrup_Maple.jpg","36","1","751"
"6","6","retrieval","new_objects","60","Bag_Computer.jpg","37","1","643"
"6","6","retrieval","old_objects","62","Cabinet_Office.jpg","36","1","975"
"6","6","retrieval","new_objects","63","SoapBottle.jpg","37","1","680"
"6","6","retrieval","new_objects","64","Tire_Hollow.jpg","37","1","789"
"6","6","retrieval","old_objects","65","ChainRusty.jpg","36","1","746"
"6","6","retrieval","new_objects","66","House_Doll.jpg","37","1","758"
"6","6","retrieval","new_objects","67","WaterGun.jpg","37","1","1003"
"6","6","retrieval","old_objects","68","House_Rural.jpg","36","1","655"
"6","6","retrieval","new_objects","69","Plate_Children.jpg","37","1","832"
"6","6","retrieval","old_objects","70","Suit_Women.jpg","36","1","843"
"6","6","retrieval","new_objects","71","CoinRolls.jpg","37","1","642"
"6","6","retrieval","new_objects","72","Cake_Cheese.jpg","37","1","636"
"6","6","retrieval","new_objects","73","Mixer_Hand.jpg","37","1","705"
"6","6","retrieval","new_objects","74","Sign_Caution.jpg","36","0","694"
"6","6","retrieval","new_objects","75","Yarmulke.jpg","37","1","597"
"6","6","retrieval","new_objects","76","White_Screen.jpg","0","0","2000"
"6","6","retrieval","old_objects","77","RibbonString.jpg","36","1","944"
"6","6","retrieval","old_objects","78","TotemPole.jpg","36","1","622"
"6","6","retrieval","new_objects","79","Bag_PaperWithFlour.jpg","37","1","769"
"6","6","retrieval","old_objects","80","FortuneCookie.jpg","36","1","617"
"6","6","retrieval","old_objects","81","PhoneCase.jpg","36","1","891"
"6","6","retrieval","old_objects","82","Flamingo_Cartoon.jpg","36","1","580"
"6","6","retrieval","new_objects","83","Bowl_Chopsticks.jpg","37","1","745"
"6","6","retrieval","new_objects","84","LitterScoop.jpg","37","1","939"
"6","6","retrieval","new_objects","85","HorseshoeCrab.jpg","37","1","686"
"6","6","retrieval","new_objects","86","Handbag.jpg","37","1","564"
"6","6","retrieval","new_objects","87","Sign_TrafficArrow.jpg","37","1","516"
"6","6","retrieval","old_objects","88","RibbonPin.jpg","37","0","660"
"6","6","retrieval","new_objects","89","JuicerCitrus.jpg","37","1","631"
"6","6","retrieval","new_objects","90","Window.jpg","37","1","567"
"6","6","retrieval","old_objects","91","LifeJacket_BlueYellow.jpg","36","1","711"
"6","6","retrieval","old_objects","92","Crate_Milk.jpg","36","1","605"
"6","6","retrieval","old_objects","93","Cheesegrater_Box.jpg","36","1","660"
"6","6","retrieval","new_objects","94","Boots_KneeHigh.jpg","37","1","612"
"6","6","retrieval","old_objects","95","BicyclePedal.jpg","36","1","820"
"6","6","retrieval","old_objects","96","Locomotive.jpg","37","0","581"
"6","6","retrieval","new_objects","97","Bird_Toucan.jpg","37","1","666"
"6","6","retrieval","new_objects","98","Spider.jpg","37","1","572"
"6","6","retrieval","new_objects","99","Spotlight.jpg","37","1","695"
"6","6","retrieval","new_objects","100","IceCream_Chocolate.jpg","37","1","596"
"6","6","retrieval","new_objects","101","Bag_Gift.jpg","37","1","590"
"6","6","retrieval","new_objects","102","Flower_Basket.jpg","37","1","526"
"6","6","retrieval","new_objects","103","Gauge.jpg","37","1","760"
"6","6","retrieval","old_objects","104","Pickle.jpg","36","1","595"
"6","6","retrieval","old_objects","105","Sign_Wetfloor.jpg","36","1","617"
"6","6","retrieval","new_objects","106","PencilCase.jpg","37","1","571"
"6","6","retrieval","new_objects","107","Flower_Crane.jpg","37","1","591"
"6","6","retrieval","new_objects","108","Tray_Muffin.jpg","37","1","550"
"6","6","retrieval","new_objects","109","Buffalo.jpg","37","1","535"
"6","6","retrieval","old_objects","110","Barometer_Wood.jpg","37","0","474"
"6","6","retrieval","old_objects","111","Sign_Taxi.jpg","37","0","614"
"6","6","retrieval","old_objects","112","Gloves_WhiteKnit.jpg","36","1","947"
"6","6","retrieval","new_objects","113","OperaGlasses.jpg","37","1","758"
"6","6","retrieval","old_objects","114","Bread_Carrot.jpg","36","1","947"
"6","6","retrieval","old_objects","115","Lettuce_GreenLeaf.jpg","36","1","622"
"6","6","retrieval","old_objects","116","Stingray.jpg","36","1","592"
"6","6","retrieval","old_objects","117","Comb.jpg","36","1","618"
"6","6","retrieval","old_objects","118","Bag_Toiletry.jpg","36","1","636"
"6","6","retrieval","old_objects","119","House_Stone.jpg","36","1","696"
"6","6","retrieval","new_objects","120","Gum_Pack.jpg","37","1","1260"
"6","6","retrieval","old_objects","121","Lock_Key.jpg","36","1","628"
"6","6","retrieval","new_objects","123","Costume_Wizard.jpg","37","1","728"
"6","6","retrieval","new_objects","124","Otoscope.jpg","37","1","605"
"6","6","retrieval","old_objects","125","Level.jpg","36","1","735"
"6","6","retrieval","old_objects","126","Inukshuk.jpg","36","1","927"
"6","6","retrieval","new_objects","127","Stool_Camping.jpg","37","1","756"
"6","6","retrieval","new_objects","128","Headphones.jpg","37","1","694"
"6","6","retrieval","old_objects","129","Ship_Battle.jpg","36","1","709"
"6","6","retrieval","new_objects","130","ComputerKeyboard_F1.jpg","37","1","623"
"6","6","retrieval","new_objects","131","Mug_Travel.jpg","37","1","776"
"6","6","retrieval","new_objects","132","Glass_Bowl.jpg","37","1","593"
"6","6","retrieval","old_objects","133","Jug_Wicker.jpg","36","1","773"
"6","6","retrieval","old_objects","134","Door_Blue.jpg","36","1","640"
"6","6","retrieval","new_objects","135","Tribunal_Wooden.jpg","37","1","697"
"6","6","retrieval","old_objects","136","MoneyBill50.jpg","36","1","729"
"6","6","retrieval","old_objects","137","ToothPick.jpg","36","1","629"
"6","6","retrieval","new_objects","138","Whip.jpg","37","1","732"
"6","6","retrieval","new_objects","139","Dresser.jpg","37","1","792"
"6","6","retrieval","old_objects","140","DJMixer.jpg","36","1","659"
"6","6","retrieval","new_objects","141","Heater_ElectricUpright.jpg","37","1","642"
"6","6","retrieval","old_objects","142","Chair_PlasticGreen.jpg","36","1","755"
"6","6","retrieval","old_objects","143","MalletJudge.jpg","36","1","605"
"6","6","retrieval","old_objects","144","Sandcastle.jpg","36","1","605"
"6","6","retrieval","new_objects","145","Lamp_Table.jpg","36","0","933"
"6","6","retrieval","old_objects","146","Airplane_Fighter.jpg","36","1","752"
"6","6","retrieval","old_objects","147","Steamroller.jpg","36","1","751"
"6","6","retrieval","old_objects","148","SlushieMachine.jpg","36","1","888"
"6","6","retrieval","new_objects","149","Toy_Car.jpg","37","1","663"
"6","6","retrieval","old_objects","150","Scarecrow.jpg","36","1","627"
"6","6","retrieval","old_objects","151","HDMIConnector.jpg","36","1","833"
"6","6","retrieval","new_objects","152","Dropper.jpg","37","1","763"
"6","6","retrieval","new_objects","153","Bandage_Adhesive.jpg","37","1","594"
"6","6","retrieval","old_objects","154","Vase_Decorative.jpg","36","1","616"
"6","6","retrieval","old_objects","155","CarSuspension.jpg","36","1","605"
"6","6","retrieval","new_objects","156","SundaeBanana.jpg","37","1","692"
"6","6","retrieval","new_objects","157","Ruler_Wooden.jpg","37","1","613"
"6","6","retrieval","old_objects","158","Loveseat.jpg","36","1","792"
"6","6","retrieval","old_objects","159","Ship_Model.jpg","36","1","707"
"6","6","retrieval","old_objects","160","Brush_Windshield.jpg","36","1","896"
"6","6","retrieval","old_objects","161","GoldNugget.jpg","36","1","592"
"6","6","retrieval","new_objects","162","Rock_Agate.jpg","37","1","655"
"6","6","retrieval","new_objects","163","Heater_Outdoor.jpg","37","1","919"
"6","6","retrieval","old_objects","164","BookShelf.jpg","36","1","693"
"6","6","retrieval","old_objects","165","Candleholder_LampShaped.jpg","36","1","616"
"6","6","retrieval","old_objects","166","Hook_Fishing.jpg","36","1","649"
"6","6","retrieval","new_objects","167","Staircase_Curving.jpg","37","1","753"
"6","6","retrieval","new_objects","168","Microphone.jpg","36","0","753"
"6","6","retrieval","old_objects","169","VacuumHose.jpg","36","1","835"
"6","6","retrieval","old_objects","170","Toy_SeeSaw.jpg","36","1","700"
"6","6","retrieval","old_objects","171","GutterAndDrainPipe.jpg","36","1","748"
"6","6","retrieval","old_objects","172","Dart.jpg","36","1","1002"
"6","6","retrieval","new_objects","173","Pot_Cooking.jpg","37","1","726"
"6","6","retrieval","old_objects","174","Wire_ElectricalSingle.jpg","36","1","801"
"6","6","retrieval","old_objects","175","Camera_Video.jpg","36","1","652"
"6","6","retrieval","old_objects","176","Tag_Identifier.jpg","36","1","691"
"6","6","retrieval","new_objects","177","Origami_Bird.jpg","37","1","698"
"6","6","retrieval","new_objects","178","Rake_Long.jpg","37","1","657"
"6","6","retrieval","new_objects","179","Desk_School.jpg","37","1","739"
"6","6","retrieval","new_objects","180","Arch.jpg","36","0","782"
"6","6","retrieval","old_objects","181","Knife_Butter.jpg","36","1","763"
"6","6","retrieval","new_objects","182","Ladle.jpg","37","1","658"
"6","6","retrieval","new_objects","184","Noisemaker_Streamers.jpg","37","1","805"
"6","6","retrieval","old_objects","185","Skirt_Stripes.jpg","36","1","839"
"6","6","retrieval","old_objects","186","BicycleOdometer.jpg","36","1","755"
"6","6","retrieval","old_objects","187","Toy_StackingRing.jpg","36","1","576"
"6","6","retrieval","old_objects","188","Shirt_Tshirt.jpg","36","1","601"
"6","6","retrieval","new_objects","189","Tricycle.jpg","37","1","701"
"6","6","retrieval","new_objects","190","Corkboard.jpg","37","1","589"
"6","6","retrieval","old_objects","191","Battery_Car.jpg","36","1","654"
"6","6","retrieval","old_objects","192","Hedgehog.jpg","36","1","581"
"6","6","retrieval","old_objects","193","Exercise_Stepper.jpg","36","1","651"
"6","6","retrieval","new_objects","194","Sign_SpeedLimit25.jpg","37","1","744"
"6","6","retrieval","old_objects","195","GasStation.jpg","36","1","725"
"6","6","retrieval","old_objects","196","Eggplant.jpg","36","1","579"
"6","6","retrieval","old_objects","197","Toy_Lizard.jpg","36","1","607"
"6","6","retrieval","new_objects","198","Bench_Park.jpg","37","1","740"
"6","6","retrieval","new_objects","199","Blackboard.jpg","37","1","818"
"6","6","retrieval","new_objects","200","Bucket_Rusty.jpg","37","1","653"
"6","6","retrieval","new_objects","201","Chicken_Dinner.jpg","37","1","628"
"6","6","retrieval","old_objects","202","HairDryer.jpg","36","1","732"
"6","6","retrieval","new_objects","203","MovieSlate.jpg","37","1","798"
"6","6","retrieval","old_objects","204","Clock_Interior.jpg","36","1","775"
"6","6","retrieval","new_objects","205","TowelRack_Brown.jpg","37","1","728"
"6","6","retrieval","old_objects","206","Alfalfa.jpg","36","1","609"
"6","6","retrieval","new_objects","207","Lock_Door.jpg","37","1","664"
"6","6","retrieval","old_objects","208","Helmet_Construction.jpg","36","1","679"
"6","6","retrieval","old_objects","209","LampPost_OneBulb.jpg","36","1","710"
"6","6","retrieval","new_objects","210","TigerWhite.jpg","37","1","674"
"6","6","retrieval","old_objects","211","Easel.jpg","36","1","719"
"6","6","retrieval","old_objects","212","Mirror_Dental.jpg","37","0","890"
"6","6","retrieval","new_objects","213","Stool_Foot.jpg","37","1","693"
"6","6","retrieval","old_objects","214","Chair_BeanBag.jpg","37","0","587"
"6","6","retrieval","new_objects","215","Stroboscope.jpg","37","1","702"
"6","6","retrieval","new_objects","216","Bucket_Halloween.jpg","37","1","597"
"6","6","retrieval","old_objects","217","Cake_Birthday.jpg","36","1","717"
"6","6","retrieval","new_objects","218","DeepFryer.jpg","37","1","749"
"6","6","retrieval","old_objects","219","ShoeLace_Flat.jpg","36","1","664"
"6","6","retrieval","new_objects","220","Hubcap.jpg","37","1","669"
"6","6","retrieval","old_objects","221","ChiliFlakes.jpg","36","1","649"
"6","6","retrieval","new_objects","222","Box_WoodCrate.jpg","37","1","723"
"6","6","retrieval","old_objects","223","Pipette.jpg","36","1","699"
"6","6","retrieval","new_objects","224","Jetski.jpg","37","1","906"
"6","6","retrieval","old_objects","225","Bed_ChildBirch.jpg","36","1","745"
"6","6","retrieval","new_objects","226","DormerWindow.jpg","37","1","693"
"6","6","retrieval","old_objects","227","Ginger.jpg","36","1","609"
"6","6","retrieval","old_objects","228","RiceRaw.jpg","36","1","555"
"6","6","retrieval","new_objects","229","BadgeSpecialAgent.jpg","37","1","626"
"6","6","retrieval","new_objects","230","Snowpea.jpg","37","1","910"
"6","6","retrieval","old_objects","231","Pants_Firefighter.jpg","36","1","665"
"6","6","retrieval","old_objects","232","Telephone_TinCan.jpg","36","1","660"
"6","6","retrieval","old_objects","233","Shoe_Sneaker.jpg","36","1","572"
"6","6","retrieval","new_objects","234","Light_Traffic.jpg","37","1","690"
"6","6","retrieval","new_objects","235","Broccoli.jpg","37","1","735"
"6","6","retrieval","new_objects","236","Jar_Empty.jpg","37","1","630"
"6","6","retrieval","new_objects","237","Toy_Train.jpg","37","1","517"
"6","6","retrieval","old_objects","238","Dolly.jpg","36","1","742"
"6","6","retrieval","old_objects","239","Cart_Groceries.jpg","36","1","562"
"6","6","retrieval","new_objects","240","Mitt_Oven.jpg","37","1","655"
"6","6","retrieval","new_objects","241","Chair_MedicalToilet.jpg","37","1","616"
"6","6","retrieval","old_objects","242","TurkeyDinner.jpg","37","0","603"
"6","6","retrieval","new_objects","243","Parcel.jpg","37","1","753"
"6","6","retrieval","new_objects","245","SewingPin_Cushion.jpg","37","1","911"
"6","6","retrieval","new_objects","246","Hockey_Puck.jpg","37","1","623"
"6","6","retrieval","old_objects","247","Spoon_Serving.jpg","36","1","668"
"6","6","retrieval","old_objects","248","Pancakes.jpg","36","1","563"
"6","6","retrieval","old_objects","249","Goat.jpg","36","1","854"
"6","6","retrieval","new_objects","250","Toy_BearBluePlushie.jpg","37","1","728"
"6","6","retrieval","new_objects","251","Sphinx.jpg","37","1","703"
"6","6","retrieval","new_objects","252","ReindeerHeadband.jpg","37","1","1042"
"6","6","retrieval","new_objects","253","Bagpipes.jpg","37","1","604"
"6","6","retrieval","old_objects","254","Pitcher.jpg","36","1","870"
"6","6","retrieval","old_objects","255","Figurine_Ballerina.jpg","36","1","658"
"6","6","retrieval","new_objects","256","DogLeash.jpg","37","1","825"
"6","6","retrieval","new_objects","257","Paddle_Beach.jpg","37","1","861"
"6","6","retrieval","new_objects","258","Weights_Dumbells.jpg","37","1","673"
"6","6","retrieval","old_objects","259","Decoration_ChristmasRed.jpg","36","1","656"
"6","6","retrieval","new_objects","260","Chair_Car.jpg","37","1","594"
"6","6","retrieval","old_objects","261","TailLight.jpg","36","1","678"
"6","6","retrieval","new_objects","262","Steam_Cleaner.jpg","37","1","1030"
"6","6","retrieval","old_objects","263","Teardrop.jpg","36","1","787"
"6","6","retrieval","old_objects","264","ToothbrushHolder.jpg","36","1","643"
"6","6","retrieval","new_objects","265","Cologne.jpg","37","1","604"
"6","6","retrieval","old_objects","266","Helmet_Bicycle.jpg","36","1","629"
"6","6","retrieval","new_objects","267","Shoes_DutchClogs.jpg","37","1","750"
"6","6","retrieval","old_objects","268","Pot_TurkishCoffee.jpg","36","1","671"
"6","6","retrieval","new_objects","269","Vase_EarthToned.jpg","37","1","675"
"6","6","retrieval","old_objects","270","Bucket_WoodenDark.jpg","36","1","748"
"6","6","retrieval","old_objects","271","Razor.jpg","37","0","630"
"6","6","retrieval","old_objects","272","Protractor.jpg","36","1","741"
"6","6","retrieval","old_objects","273","Brush_Makeup.jpg","36","1","652"
"6","6","retrieval","new_objects","274","Nuts_Pecan.jpg","37","1","790"
"6","6","retrieval","new_objects","275","Sign_Open.jpg","37","1","691"
"6","6","retrieval","new_objects","276","TubeRing.jpg","37","1","544"
"6","6","retrieval","new_objects","277","Radish.jpg","37","1","584"
"6","6","retrieval","new_objects","278","Toy_FigurineEngineer.jpg","36","0","957"
"6","6","retrieval","new_objects","279","Shirt_SportsJersey.jpg","36","0","752"
"6","6","retrieval","new_objects","280","VacuumHead.jpg","37","1","870"
"6","6","retrieval","old_objects","281","LeatherPuncherTool.jpg","36","1","981"
"6","6","retrieval","new_objects","282","Bugle.jpg","37","1","693"
"6","6","retrieval","old_objects","283","Stick_Honey.jpg","36","1","636"
"6","6","retrieval","old_objects","284","Necklace_Pearl.jpg","37","0","847"
"6","6","retrieval","new_objects","285","LicensePlate.jpg","37","1","977"
"6","6","retrieval","old_objects","286","Egg_Wooden.jpg","36","1","652"
"6","6","retrieval","old_objects","287","Sieve_TopView.jpg","36","1","776"
"6","6","retrieval","new_objects","288","SledgeHammer.jpg","37","1","727"
"6","6","retrieval","old_objects","289","Shoe_Highheel.jpg","36","1","646"
"6","6","retrieval","old_objects","290","Container_Tupperware.jpg","36","1","629"
"6","6","retrieval","new_objects","291","Bench_Wooden.jpg","37","1","668"
"6","6","retrieval","new_objects","292","Makeup_Mascara.jpg","37","1","777"
"6","6","retrieval","old_objects","293","RollerCoaster.jpg","36","1","775"
"6","6","retrieval","new_objects","294","Paddle_Canoe.jpg","36","0","745"
"6","6","retrieval","new_objects","295","Almond.jpg","37","1","650"
"6","6","retrieval","new_objects","296","Olives.jpg","37","1","765"
"6","6","retrieval","new_objects","297","Caterpillar.jpg","37","1","624"
"6","6","retrieval","new_objects","298","Artichoke.jpg","37","1","594"
"6","6","retrieval","old_objects","299","Birdhouse.jpg","36","1","673"
"6","6","retrieval","old_objects","300","Cheesegrater_Handheld.jpg","36","1","640"
"6","6","retrieval","new_objects","301","Toy_Ladybug.jpg","37","1","1056"
"6","6","retrieval","old_objects","302","Jar_Canopic.jpg","36","1","642"
"6","6","retrieval","old_objects","303","Pillow_Heart.jpg","36","1","601"
"6","6","retrieval","new_objects","304","JuiceBox.jpg","37","1","597"
"6","6","retrieval","new_objects","306","Pen_Calligraphy.jpg","37","1","715"
"6","6","retrieval","old_objects","307","Chair_Folding.jpg","36","1","629"
"6","6","retrieval","new_objects","308","Awning.jpg","37","1","615"
"6","6","retrieval","new_objects","309","Squid_Orange.jpg","37","1","838"
"6","6","retrieval","new_objects","310","Swing_Child.jpg","37","1","592"
"6","6","retrieval","old_objects","311","GatedEntrance.jpg","37","0","874"
"6","6","retrieval","new_objects","312","Hat_Beanie.jpg","37","1","668"
"6","6","retrieval","new_objects","313","Lollipop_Rainbow.jpg","37","1","523"
"6","6","retrieval","old_objects","314","Wontons.jpg","36","1","737"
"6","6","retrieval","old_objects","315","Fruit_Orange.jpg","36","1","646"
"6","6","retrieval","old_objects","316","Clock_Radio.jpg","36","1","584"
"6","6","retrieval","old_objects","317","TelephoneSwitchboard.jpg","36","1","585"
"6","6","retrieval","new_objects","318","Barrel_Wine.jpg","36","0","984"
"6","6","retrieval","new_objects","319","Grill_Gas.jpg","37","1","612"
"6","6","retrieval","old_objects","320","Door_Green.jpg","36","1","862"
"6","6","retrieval","new_objects","321","CameoPortrait.jpg","37","1","666"
"6","6","retrieval","new_objects","322","Toy_TableSet.jpg","37","1","593"
"6","6","retrieval","old_objects","323","Toaster_MetalSleek.jpg","36","1","752"
"6","6","retrieval","new_objects","324","Bark.jpg","37","1","746"
"6","6","retrieval","old_objects","325","ScrewDriver.jpg","36","1","567"
"6","6","retrieval","new_objects","326","Box_Wine.jpg","36","0","1134"
"6","6","retrieval","old_objects","327","Lips_Wax.jpg","36","1","630"
"6","6","retrieval","old_objects","328","Canister_Oil.jpg","36","1","728"
"6","6","retrieval","old_objects","329","Toy_DollHomeMade.jpg","36","1","565"
"6","6","retrieval","old_objects","330","Microwave.jpg","36","1","607"
"6","6","retrieval","new_objects","331","Cast.jpg","37","1","711"
"6","6","retrieval","old_objects","332","Bottle_Wine.jpg","36","1","712"
"6","6","retrieval","old_objects","333","Toy_Witch.jpg","36","1","600"
"6","6","retrieval","new_objects","334","Shoes_Mould.jpg","37","1","704"
"6","6","retrieval","new_objects","335","LifeJacket_Orangejpg.jpg","36","0","882"
"6","6","retrieval","new_objects","336","HairClipper.jpg","37","1","1015"
"6","6","retrieval","old_objects","337","FireAlarm.jpg","36","1","721"
"6","6","retrieval","old_objects","338","ChocolateBar_HalfUnwrapped.jpg","36","1","592"
"6","6","retrieval","old_objects","339","Table_Poker.jpg","36","1","865"
"6","6","retrieval","new_objects","340","Case_DVD.jpg","36","0","704"
"6","6","retrieval","old_objects","341","Feet.jpg","36","1","716"
"6","6","retrieval","new_objects","342","Cord_usb.jpg","37","1","969"
"6","6","retrieval","new_objects","343","ComputerKey_Escape.jpg","37","1","1361"
"6","6","retrieval","old_objects","344","Candy_Heart.jpg","36","1","1181"
"6","6","retrieval","new_objects","345","Dress_Blue.jpg","37","1","804"
"6","6","retrieval","new_objects","346","Folder_Plastic.jpg","37","1","740"
"6","6","retrieval","new_objects","347","Bolt_WithNut.jpg","37","1","596"
"6","6","retrieval","new_objects","348","Keyhole.jpg","37","1","590"
"6","6","retrieval","old_objects","349","Box_WoodenClosed.jpg","36","1","603"
"6","6","retrieval","old_objects","350","Tombstone.jpg","36","1","648"
"6","6","retrieval","old_objects","351","Chair_High.jpg","37","0","695"
"6","6","retrieval","new_objects","352","Flower_Daisy.jpg","36","0","597"
"6","6","retrieval","old_objects","353","LawnMower.jpg","36","1","683"
"6","6","retrieval","old_objects","354","ManholeCover.jpg","36","1","549"
"6","6","retrieval","old_objects","355","DusterFeather.jpg","36","1","580"
"6","6","demographics_block","gender","1","DusterFeather.jpg","MALE","1","21889"
"6","6","demographics_block","age","1","DusterFeather.jpg","69","1","21889"
"6","6","demographics_block","education","1","DusterFeather.jpg","16","1","21889"
"6","6","demographics_block","left_right_handed","2","DusterFeather.jpg","Left","1","9381"
"6","6","demographics_block","raceoption1","2","DusterFeather.jpg","0","1","9381"
"6","6","demographics_block","raceoption2","2","DusterFeather.jpg","","1","9381"
"6","6","demographics_block","raceoption3","2","DusterFeather.jpg","","1","9381"
"6","6","demographics_block","raceoption4","2","DusterFeather.jpg","","1","9381"
"6","6","demographics_block","raceoption5","2","DusterFeather.jpg","","1","9381"
"6","6","demographics_block","raceoption6","2","DusterFeather.jpg","","1","9381"
"6","6","demographics_block","raceoption7","2","DusterFeather.jpg","","1","9381"
"6","6","demographics_block","raceoption8","2","DusterFeather.jpg","","1","9381"
"6","6","demographics_block","raceoption9","2","DusterFeather.jpg","","1","9381"
"6","6","demographics_block","raceother","2","DusterFeather.jpg","","1","9381"
"6","6","demographics_block","raceother","2","DusterFeather.jpg","","1","9381"
"6","6","demographics_block","english_language","2","DusterFeather.jpg","Yes","1","9381"
"6","6","demographics_block","english_languageother","2","DusterFeather.jpg","","1","9381"
"6","6","demographics_block","eyesight","3","DusterFeather.jpg","Yes","1","6497"
"6","6","demographics_block","colorblind","3","DusterFeather.jpg","No","1","6497"
"6","6","worker_id_block","worker_id_textbox","1","DusterFeather.jpg","A3HYLVFUDKJFKC","1","9800"
"5","5","encoding","encoding","1","Crate_Milk.jpg","36","0","856"
"5","5","encoding","encoding","2","Loveseat.jpg","36","0","895"
"5","5","encoding","encoding","3","PhoneCase.jpg","37","0","1086"
"5","5","encoding","encoding","4","Toaster_MetalSleek.jpg","36","0","1356"
"5","5","encoding","encoding","5","DJMixer.jpg","36","0","1284"
"5","5","encoding","encoding","6","Arch_Triomphe.jpg","36","0","971"
"5","5","encoding","encoding","7","ManholeCover.jpg","36","0","1272"
"5","5","encoding","encoding","8","Steamroller.jpg","36","0","926"
"5","5","encoding","encoding","9","Hat_Beret.jpg","36","0","1246"
"5","5","encoding","encoding","10","Bucket_WoodenDark.jpg","36","0","1023"
"5","5","encoding","encoding","11","LampPost_OneBulb.jpg","36","0","1115"
"5","5","encoding","encoding","12","ChainRusty.jpg","37","0","1233"
"5","5","encoding","encoding","13","Chair_PlasticGreen.jpg","36","0","840"
"5","5","encoding","encoding","14","Stingray.jpg","36","0","1407"
"5","5","encoding","encoding","15","Battery_Car.jpg","36","0","1070"
"5","5","encoding","encoding","16","MoneyBill50.jpg","37","0","1848"
"5","5","encoding","encoding","17","Camera_Video.jpg","37","0","1667"
"5","5","encoding","encoding","18","Candy_Heart.jpg","37","0","1442"
"5","5","encoding","encoding","19","Cornucopia.jpg","37","0","1602"
"5","5","encoding","encoding","20","BuildingChinese.jpg","36","0","1519"
"5","5","encoding","encoding","21","Exercise_Stepper.jpg","37","0","1368"
"5","5","encoding","encoding","22","Switch_LightWhite.jpg","37","0","1415"
"5","5","encoding","encoding","23","SlushieMachine.jpg","37","0","1718"
"5","5","encoding","encoding","24","Pickle.jpg","37","0","1622"
"5","5","encoding","encoding","25","Gloves_WhiteKnit.jpg","37","0","1435"
"5","5","encoding","encoding","26","LifeJacket_BlueYellow.jpg","36","0","1095"
"5","5","encoding","encoding","27","HairDryer.jpg","37","0","982"
"5","5","encoding","encoding","28","Table_Set.jpg","36","0","1693"
"5","5","encoding","encoding","29","Scooter.jpg","36","0","1219"
"5","5","encoding","encoding","30","Easel.jpg","36","0","1344"
"5","5","encoding","encoding","31","BicyclePedal.jpg","36","0","1401"
"5","5","encoding","encoding","32","Door_Blue.jpg","36","0","1286"
"5","5","encoding","encoding","33","PowerDoorPushButton.jpg","37","0","1262"
"5","5","encoding","encoding","34","Pancakes.jpg","36","0","1307"
"5","5","encoding","encoding","35","Goat.jpg","36","0","1572"
"5","5","encoding","encoding","36","Hook_Fishing.jpg","36","0","1291"
"5","5","encoding","encoding","37","Mirror_Dental.jpg","37","0","1161"
"5","5","encoding","encoding","38","Sign_Wetfloor.jpg","36","0","1207"
"5","5","encoding","encoding","39","Protractor.jpg","37","0","1557"
"5","5","encoding","encoding","40","ToothbrushHolder.jpg","37","0","1772"
"5","5","encoding","encoding","41","TelephoneSwitchboard.jpg","36","0","1550"
"5","5","encoding","encoding","42","Alfalfa.jpg","37","0","996"
"5","5","encoding","encoding","43","GatedEntrance.jpg","36","0","854"
"5","5","encoding","encoding","44","Croissant.jpg","37","0","1274"
"5","5","encoding","encoding","45","Lettuce_GreenLeaf.jpg","37","0","1433"
"5","5","encoding","encoding","46","Pants_Firefighter.jpg","36","0","1870"
"5","5","encoding","encoding","47","Flamingo_Cartoon.jpg","36","0","1544"
"5","5","encoding","encoding","48","Pipette.jpg","37","0","1236"
"5","5","encoding","encoding","49","Chair_Folding.jpg","36","0","1233"
"5","5","encoding","encoding","50","Gorilla.jpg","36","0","1274"
"5","5","encoding","encoding","51","Syrup_Maple.jpg","37","0","1102"
"5","5","encoding","encoding","52","Sieve_TopView.jpg","37","0","891"
"5","5","encoding","encoding","53","Shirt_Tshirt.jpg","36","0","1405"
"5","5","encoding","encoding","54","Clock_Radio.jpg","37","0","1330"
"5","5","encoding","encoding","55","Table_Poker.jpg","37","0","1286"
"5","5","encoding","encoding","56","Humidifier.jpg","37","0","1311"
"5","5","encoding","encoding","57","Chair_Bamboo.jpg","36","0","878"
"5","5","encoding","encoding","58","Eggplant.jpg","37","0","1532"
"5","5","encoding","encoding","59","Plunger.jpg","36","0","1042"
"5","5","encoding","encoding","60","Shoe_Highheel.jpg","37","0","1273"
"5","5","encoding","encoding","62","Cart_Groceries.jpg","36","0","1432"
"5","5","encoding","encoding","63","Canister_Oil.jpg","0","0","2000"
"5","5","encoding","encoding","64","Birdhouse.jpg","37","0","954"
"5","5","encoding","encoding","65","FireAlarm.jpg","37","0","1058"
"5","5","encoding","encoding","66","Lips_Wax.jpg","37","0","1400"
"5","5","encoding","encoding","67","Box_WoodenClosed.jpg","37","0","1384"
"5","5","encoding","encoding","68","ChocolateBar_HalfUnwrapped.jpg","37","0","1478"
"5","5","encoding","encoding","69","Candleholder_LampShaped.jpg","37","0","1455"
"5","5","encoding","encoding","70","BicycleOdometer.jpg","37","0","1187"
"5","5","encoding","encoding","71","Table_Side.jpg","36","0","1065"
"5","5","encoding","encoding","72","Pitcher.jpg","37","0","1096"
"5","5","encoding","encoding","73","PagodaModel.jpg","37","0","1599"
"5","5","encoding","encoding","74","Bottle_Wine.jpg","37","0","797"
"5","5","encoding","encoding","75","TotemPole.jpg","37","0","1411"
"5","5","encoding","encoding","76","GasStation.jpg","36","0","1252"
"5","5","encoding","encoding","77","Tombstone.jpg","36","0","1497"
"5","5","encoding","encoding","78","Ship_Battle.jpg","37","0","1447"
"5","5","encoding","encoding","79","Toy_DollHomeMade.jpg","37","0","1518"
"5","5","encoding","encoding","80","BookShelf.jpg","36","0","1350"
"5","5","encoding","encoding","81","Wontons.jpg","37","0","1826"
"5","5","encoding","encoding","82","ToothPick.jpg","37","0","802"
"5","5","encoding","encoding","83","House_Rural.jpg","36","0","1058"
"5","5","encoding","encoding","84","MalletJudge.jpg","37","0","1283"
"5","5","encoding","encoding","85","TurkeyDinner.jpg","36","0","1752"
"5","5","encoding","encoding","86","Bread_Carrot.jpg","37","0","758"
"5","5","encoding","encoding","87","Pot_BlackOld.jpg","36","0","1790"
"5","5","encoding","encoding","88","House_Stone.jpg","36","0","1530"
"5","5","encoding","encoding","89","Toolbox_Old.jpg","0","0","2000"
"5","5","encoding","encoding","90","CarSuspension.jpg","37","0","800"
"5","5","encoding","encoding","91","Cabinet_Office.jpg","36","0","990"
"5","5","encoding","encoding","92","Crib_Basket.jpg","37","0","1478"
"5","5","encoding","encoding","93","Tape_Scotch.jpg","37","0","733"
"5","5","encoding","encoding","94","Tag_Identifier.jpg","37","0","1024"
"5","5","encoding","encoding","95","Teardrop.jpg","37","0","1231"
"5","5","encoding","encoding","96","Knife_Butter.jpg","37","0","683"
"5","5","encoding","encoding","97","Bullet.jpg","37","0","1723"
"5","5","encoding","encoding","98","Vase_Decorative.jpg","37","0","1229"
"5","5","encoding","encoding","99","RollerCoaster.jpg","36","0","922"
"5","5","encoding","encoding","100","TailLight.jpg","36","0","1289"
"5","5","encoding","encoding","101","Sign_Taxi.jpg","37","0","920"
"5","5","encoding","encoding","102","Bed_ChildBirch.jpg","36","0","1054"
"5","5","encoding","encoding","103","Clock_Wall.jpg","36","0","1515"
"5","5","encoding","encoding","104","Case_CD.jpg","37","0","1114"
"5","5","encoding","encoding","105","Egg_Wooden.jpg","37","0","601"
"5","5","encoding","encoding","106","Decoration_ChristmasRed.jpg","37","0","1588"
"5","5","encoding","encoding","107","Barometer_Wood.jpg","36","0","1494"
"5","5","encoding","encoding","108","Kebab_Vegetables.jpg","37","0","860"
"5","5","encoding","encoding","109","Figurine_Ballerina.jpg","37","0","1571"
"5","5","encoding","encoding","110","Brush_Windshield.jpg","36","0","1122"
"5","5","encoding","encoding","111","TortillaChip.jpg","37","0","840"
"5","5","encoding","encoding","112","ShoeLace_Flat.jpg","37","0","1030"
"5","5","encoding","encoding","113","Razor.jpg","36","0","1189"
"5","5","encoding","encoding","114","Airplane_Fighter.jpg","36","0","1528"
"5","5","encoding","encoding","115","Jug_Wicker.jpg","36","0","960"
"5","5","encoding","encoding","116","Chair_High.jpg","36","0","1087"
"5","5","encoding","encoding","117","Inukshuk.jpg","36","0","1741"
"5","5","encoding","encoding","118","Thermostat.jpg","0","0","2000"
"5","5","encoding","encoding","119","Sandcastle.jpg","36","0","1673"
"5","5","encoding","encoding","120","Toy_Lizard.jpg","37","0","688"
"5","5","encoding","encoding","121","Toy_StackingRing.jpg","36","0","1861"
"5","5","encoding","encoding","123","Spoon_Serving.jpg","37","0","803"
"5","5","encoding","encoding","124","Dart.jpg","37","0","866"
"5","5","encoding","encoding","125","Stick_Honey.jpg","37","0","1679"
"5","5","encoding","encoding","126","Brush_Makeup.jpg","37","0","1411"
"5","5","encoding","encoding","127","Jar_Canopic.jpg","36","0","1458"
"5","5","encoding","encoding","128","ScrewDriver.jpg","37","0","938"
"5","5","encoding","encoding","129","ChiliFlakes.jpg","37","0","1088"
"5","5","encoding","encoding","130","Door_Green.jpg","36","0","1557"
"5","5","encoding","encoding","131","Bag_Toiletry.jpg","36","0","1284"
"5","5","encoding","encoding","132","LeatherPuncherTool.jpg","37","0","819"
"5","5","encoding","encoding","133","HDMIConnector.jpg","37","0","1033"
"5","5","encoding","encoding","134","Comb.jpg","37","0","1120"
"5","5","encoding","encoding","135","Cheesegrater_Box.jpg","36","0","1711"
"5","5","encoding","encoding","136","RibbonString.jpg","37","0","823"
"5","5","encoding","encoding","137","BicycleChain.jpg","37","0","1540"
"5","5","encoding","encoding","138","Lock_Key.jpg","37","0","731"
"5","5","encoding","encoding","139","Ship_Model.jpg","36","0","1075"
"5","5","encoding","encoding","140","RiceRaw.jpg","37","0","859"
"5","5","encoding","encoding","141","Suit_Women.jpg","36","0","895"
"5","5","encoding","encoding","142","Clock_Interior.jpg","37","0","975"
"5","5","encoding","encoding","143","Pillow_Heart.jpg","37","0","1182"
"5","5","encoding","encoding","144","Skirt_Stripes.jpg","36","0","861"
"5","5","encoding","encoding","145","Feet.jpg","36","0","923"
"5","5","encoding","encoding","146","LawnMower.jpg","36","0","1235"
"5","5","encoding","encoding","147","Helmet_Construction.jpg","37","0","1078"
"5","5","encoding","encoding","148","Toy_Turtle.jpg","37","0","846"
"5","5","encoding","encoding","149","Dolly.jpg","36","0","1439"
"5","5","encoding","encoding","150","Locomotive.jpg","36","0","1323"
"5","5","encoding","encoding","151","FortuneCookie.jpg","37","0","1054"
"5","5","encoding","encoding","152","VacuumHose.jpg","37","0","1086"
"5","5","encoding","encoding","153","Necklace_Pearl.jpg","37","0","780"
"5","5","encoding","encoding","154","Pot_TurkishCoffee.jpg","37","0","1506"
"5","5","encoding","encoding","155","Cheesegrater_Handheld.jpg","37","0","921"
"5","5","encoding","encoding","156","Toy_Witch.jpg","37","0","1230"
"5","5","encoding","encoding","157","Chair_BeanBag.jpg","37","0","1261"
"5","5","encoding","encoding","158","Earring_Hoop.jpg","37","0","904"
"5","5","encoding","encoding","159","Cake_Birthday.jpg","37","0","738"
"5","5","encoding","encoding","160","GutterAndDrainPipe.jpg","37","0","1107"
"5","5","encoding","encoding","161","Cherry.jpg","37","0","1040"
"5","5","encoding","encoding","162","GoldNugget.jpg","37","0","1374"
"5","5","encoding","encoding","163","Wire_ElectricalSingle.jpg","37","0","829"
"5","5","encoding","encoding","164","Microwave.jpg","36","0","1213"
"5","5","encoding","encoding","165","Fruit_Orange.jpg","37","0","674"
"5","5","encoding","encoding","166","Helmet_Bicycle.jpg","37","0","889"
"5","5","encoding","encoding","167","Shoe_Sneaker.jpg","37","0","1544"
"5","5","encoding","encoding","168","Scarecrow.jpg","37","0","1146"
"5","5","encoding","encoding","169","RibbonPin.jpg","37","0","1431"
"5","5","encoding","encoding","170","Level.jpg","37","0","1172"
"5","5","encoding","encoding","171","Ginger.jpg","37","0","771"
"5","5","encoding","encoding","172","Hedgehog.jpg","36","0","1258"
"5","5","encoding","encoding","173","Toy_SeeSaw.jpg","36","0","1315"
"5","5","encoding","encoding","174","Container_Tupperware.jpg","37","0","846"
"5","5","encoding","encoding","175","DusterFeather.jpg","37","0","1056"
"5","5","encoding","encoding","176","Cage_Hamster.jpg","36","0","1527"
"5","5","encoding","encoding","177","Telephone_TinCan.jpg","37","0","1283"
"5","5","retrieval","new_objects","1","Helmet_Football.jpg","37","1","1038"
"5","5","retrieval","new_objects","2","Otoscope.jpg","37","1","789"
"5","5","retrieval","new_objects","3","Shoes_Mould.jpg","37","1","923"
"5","5","retrieval","old_objects","4","Arch_Triomphe.jpg","36","1","860"
"5","5","retrieval","old_objects","5","Tombstone.jpg","36","1","810"
"5","5","retrieval","new_objects","6","Toy_Train.jpg","37","1","1092"
"5","5","retrieval","old_objects","7","Feet.jpg","36","1","758"
"5","5","retrieval","old_objects","8","DJMixer.jpg","36","1","760"
"5","5","retrieval","old_objects","9","Knife_Butter.jpg","36","1","792"
"5","5","retrieval","new_objects","10","DogLeash.jpg","37","1","907"
"5","5","retrieval","old_objects","11","Gorilla.jpg","36","1","805"
"5","5","retrieval","old_objects","12","Cabinet_Office.jpg","36","1","971"
"5","5","retrieval","old_objects","13","Candy_Heart.jpg","36","1","1083"
"5","5","retrieval","new_objects","14","Bench_Park.jpg","37","1","901"
"5","5","retrieval","new_objects","15","Box_WoodCrate.jpg","37","1","686"
"5","5","retrieval","old_objects","16","ManholeCover.jpg","37","0","1319"
"5","5","retrieval","new_objects","17","Glass_Ball.jpg","37","1","760"
"5","5","retrieval","old_objects","18","Container_Tupperware.jpg","36","1","797"
"5","5","retrieval","old_objects","19","BookShelf.jpg","36","1","925"
"5","5","retrieval","new_objects","20","VacuumHead.jpg","37","1","822"
"5","5","retrieval","old_objects","21","Comb.jpg","37","0","797"
"5","5","retrieval","old_objects","22","Vase_Decorative.jpg","36","1","635"
"5","5","retrieval","new_objects","23","Case_DVD.jpg","37","1","697"
"5","5","retrieval","old_objects","24","Plunger.jpg","37","0","921"
"5","5","retrieval","new_objects","25","Mug_Travel.jpg","36","0","862"
"5","5","retrieval","new_objects","26","Rock_Agate.jpg","37","1","700"
"5","5","retrieval","new_objects","27","LicensePlate.jpg","37","1","586"
"5","5","retrieval","new_objects","28","Camel_Dromedary.jpg","37","1","609"
"5","5","retrieval","old_objects","29","Cherry.jpg","37","0","946"
"5","5","retrieval","old_objects","30","Bullet.jpg","36","1","1010"
"5","5","retrieval","old_objects","31","Hedgehog.jpg","37","0","659"
"5","5","retrieval","new_objects","32","Tray_Muffin.jpg","37","1","611"
"5","5","retrieval","old_objects","33","DusterFeather.jpg","37","0","1095"
"5","5","retrieval","old_objects","34","TortillaChip.jpg","36","1","675"
"5","5","retrieval","new_objects","35","Arch.jpg","36","0","813"
"5","5","retrieval","new_objects","36","Sign_Caution.jpg","37","1","988"
"5","5","retrieval","old_objects","37","Jar_Canopic.jpg","36","1","788"
"5","5","retrieval","new_objects","38","Tricycle.jpg","37","1","584"
"5","5","retrieval","new_objects","39","ComputerKey_Escape.jpg","37","1","527"
"5","5","retrieval","new_objects","40","Origami_Bird.jpg","37","1","505"
"5","5","retrieval","old_objects","41","Jug_Wicker.jpg","37","0","1266"
"5","5","retrieval","new_objects","42","Folder_Plastic.jpg","37","1","658"
"5","5","retrieval","new_objects","43","Microphone.jpg","37","1","663"
"5","5","retrieval","old_objects","44","Ginger.jpg","36","1","918"
"5","5","retrieval","old_objects","45","BuildingChinese.jpg","37","0","835"
"5","5","retrieval","new_objects","46","Almond.jpg","37","1","711"
"5","5","retrieval","new_objects","47","Desk_School.jpg","37","1","642"
"5","5","retrieval","old_objects","48","Box_WoodenClosed.jpg","37","0","691"
"5","5","retrieval","old_objects","49","Toy_Lizard.jpg","36","1","838"
"5","5","retrieval","new_objects","50","Bugle.jpg","37","1","577"
"5","5","retrieval","old_objects","51","LeatherPuncherTool.jpg","37","0","632"
"5","5","retrieval","new_objects","52","Speaker_Single.jpg","37","1","596"
"5","5","retrieval","old_objects","53","FortuneCookie.jpg","37","0","539"
"5","5","retrieval","new_objects","54","IceCream_Chocolate.jpg","37","1","635"
"5","5","retrieval","new_objects","55","Flower_Crane.jpg","37","1","570"
"5","5","retrieval","new_objects","56","Tribunal_Wooden.jpg","37","1","590"
"5","5","retrieval","new_objects","57","PencilCase.jpg","37","1","726"
"5","5","retrieval","old_objects","58","Cage_Hamster.jpg","37","0","612"
"5","5","retrieval","old_objects","59","Pipette.jpg","37","0","635"
"5","5","retrieval","old_objects","60","Helmet_Construction.jpg","37","0","551"
"5","5","retrieval","new_objects","62","Flower_Basket.jpg","37","1","526"
"5","5","retrieval","new_objects","63","Chair_Car.jpg","37","1","529"
"5","5","retrieval","new_objects","64","Bird_Toucan.jpg","37","1","498"
"5","5","retrieval","old_objects","65","Fruit_Orange.jpg","37","0","1050"
"5","5","retrieval","new_objects","66","Toy_Ladybug.jpg","37","1","613"
"5","5","retrieval","new_objects","67","Keyhole.jpg","37","1","831"
"5","5","retrieval","new_objects","68","Buffalo.jpg","37","1","906"
"5","5","retrieval","new_objects","69","Box_Wine.jpg","37","1","1556"
"5","5","retrieval","old_objects","70","Birdhouse.jpg","36","1","707"
"5","5","retrieval","old_objects","71","Croissant.jpg","36","1","790"
"5","5","retrieval","old_objects","72","Mirror_Dental.jpg","36","1","929"
"5","5","retrieval","new_objects","73","Bolt_WithNut.jpg","37","1","772"
"5","5","retrieval","old_objects","74","Teardrop.jpg","36","1","654"
"5","5","retrieval","new_objects","75","Stool_Foot.jpg","37","1","598"
"5","5","retrieval","old_objects","76","Exercise_Stepper.jpg","37","0","788"
"5","5","retrieval","new_objects","77","Pen_Calligraphy.jpg","37","1","756"
"5","5","retrieval","old_objects","78","Bucket_WoodenDark.jpg","37","0","746"
"5","5","retrieval","old_objects","79","ChiliFlakes.jpg","37","0","724"
"5","5","retrieval","old_objects","80","Case_CD.jpg","36","1","1110"
"5","5","retrieval","old_objects","81","Pitcher.jpg","37","0","598"
"5","5","retrieval","old_objects","82","Cornucopia.jpg","37","0","572"
"5","5","retrieval","new_objects","83","Boots_KneeHigh.jpg","37","1","658"
"5","5","retrieval","new_objects","84","Beater_Electric.jpg","37","1","732"
"5","5","retrieval","old_objects","85","Lips_Wax.jpg","36","1","846"
"5","5","retrieval","new_objects","86","Ruler_Wooden.jpg","37","1","705"
"5","5","retrieval","new_objects","87","Tire_Hollow.jpg","37","1","1218"
"5","5","retrieval","old_objects","88","Door_Blue.jpg","36","1","1002"
"5","5","retrieval","old_objects","89","LifeJacket_BlueYellow.jpg","37","0","910"
"5","5","retrieval","old_objects","90","Chair_Bamboo.jpg","36","1","915"
"5","5","retrieval","old_objects","91","Pot_TurkishCoffee.jpg","37","0","970"
"5","5","retrieval","old_objects","92","Shoe_Highheel.jpg","37","0","1247"
"5","5","retrieval","old_objects","93","Flamingo_Cartoon.jpg","37","0","1462"
"5","5","retrieval","new_objects","94","Lion.jpg","37","1","1270"
"5","5","retrieval","old_objects","95","BicycleChain.jpg","36","1","1338"
"5","5","retrieval","old_objects","96","BicycleOdometer.jpg","37","0","1526"
"5","5","retrieval","old_objects","97","Toy_StackingRing.jpg","36","1","1685"
"5","5","retrieval","old_objects","98","Shirt_Tshirt.jpg","36","1","786"
"5","5","retrieval","old_objects","99","Helmet_Bicycle.jpg","37","0","1263"
"5","5","retrieval","old_objects","100","GatedEntrance.jpg","37","0","1036"
"5","5","retrieval","old_objects","101","Clock_Wall.jpg","37","0","1609"
"5","5","retrieval","old_objects","102","GoldNugget.jpg","37","0","886"
"5","5","retrieval","new_objects","103","Shoes_DutchClogs.jpg","37","1","1033"
"5","5","retrieval","new_objects","104","Toy_Firetruck.jpg","37","1","1062"
"5","5","retrieval","new_objects","105","Hotdog_Weiner.jpg","37","1","1079"
"5","5","retrieval","new_objects","106","Bread_Pita.jpg","37","1","1098"
"5","5","retrieval","new_objects","107","Lamp_Table.jpg","37","1","979"
"5","5","retrieval","old_objects","108","SlushieMachine.jpg","37","0","964"
"5","5","retrieval","old_objects","109","Skirt_Stripes.jpg","37","0","780"
"5","5","retrieval","old_objects","110","Pot_BlackOld.jpg","37","0","891"
"5","5","retrieval","old_objects","111","TotemPole.jpg","37","0","1046"
"5","5","retrieval","old_objects","112","Alfalfa.jpg","36","1","1056"
"5","5","retrieval","old_objects","113","Thermostat.jpg","36","1","685"
"5","5","retrieval","new_objects","114","BadgeSpecialAgent.jpg","37","1","752"
"5","5","retrieval","old_objects","115","ToothPick.jpg","37","0","965"
"5","5","retrieval","new_objects","116","Cracker_Saltine.jpg","37","1","1215"
"5","5","retrieval","new_objects","117","Sign_Open.jpg","37","1","713"
"5","5","retrieval","old_objects","118","Scooter.jpg","37","0","962"
"5","5","retrieval","new_objects","119","Parcel.jpg","37","1","1068"
"5","5","retrieval","new_objects","120","Broccoli.jpg","37","1","1357"
"5","5","retrieval","new_objects","121","Window.jpg","36","0","1193"
"5","5","retrieval","new_objects","123","Chair_MedicalToilet.jpg","37","1","974"
"5","5","retrieval","old_objects","124","MalletJudge.jpg","36","1","861"
"5","5","retrieval","new_objects","125","Caterpillar.jpg","37","1","612"
"5","5","retrieval","new_objects","126","OperaGlasses.jpg","37","1","678"
"5","5","retrieval","old_objects","127","Earring_Hoop.jpg","36","1","781"
"5","5","retrieval","old_objects","128","RibbonString.jpg","37","0","1159"
"5","5","retrieval","old_objects","129","Clock_Interior.jpg","36","1","1032"
"5","5","retrieval","new_objects","130","Hockey_Puck.jpg","37","1","605"
"5","5","retrieval","new_objects","131","DeepFryer.jpg","37","1","906"
"5","5","retrieval","old_objects","132","Lock_Key.jpg","36","1","700"
"5","5","retrieval","new_objects","133","Spider.jpg","37","1","542"
"5","5","retrieval","old_objects","134","Chair_PlasticGreen.jpg","36","1","1039"
"5","5","retrieval","old_objects","135","Table_Side.jpg","36","1","875"
"5","5","retrieval","old_objects","136","Sign_Taxi.jpg","36","1","1351"
"5","5","retrieval","old_objects","137","Ship_Battle.jpg","37","0","1109"
"5","5","retrieval","old_objects","138","Stick_Honey.jpg","37","0","690"
"5","5","retrieval","old_objects","139","Eggplant.jpg","36","1","890"
"5","5","retrieval","old_objects","140","Chair_BeanBag.jpg","37","0","886"
"5","5","retrieval","new_objects","141","CameoPortrait.jpg","37","1","670"
"5","5","retrieval","new_objects","142","Blackboard.jpg","37","1","770"
"5","5","retrieval","new_objects","143","Boat_Dinghy.jpg","37","1","1091"
"5","5","retrieval","old_objects","144","Table_Poker.jpg","37","0","1276"
"5","5","retrieval","old_objects","145","Loveseat.jpg","37","0","1145"
"5","5","retrieval","new_objects","146","Glass_Bowl.jpg","37","1","1287"
"5","5","retrieval","new_objects","147","WaterGun.jpg","37","1","1202"
"5","5","retrieval","old_objects","148","ChainRusty.jpg","37","0","1089"
"5","5","retrieval","new_objects","149","Table_Magazine.jpg","37","1","1145"
"5","5","retrieval","old_objects","150","Toy_Witch.jpg","36","1","922"
"5","5","retrieval","old_objects","151","GutterAndDrainPipe.jpg","37","0","1204"
"5","5","retrieval","new_objects","152","Paddle_Canoe.jpg","37","1","1705"
"5","5","retrieval","new_objects","153","Sphinx.jpg","37","1","1053"
"5","5","retrieval","old_objects","154","HDMIConnector.jpg","36","1","918"
"5","5","retrieval","new_objects","155","SewingPin_Cushion.jpg","37","1","766"
"5","5","retrieval","new_objects","156","TowelRack_Brown.jpg","37","1","855"
"5","5","retrieval","new_objects","157","Plate_Children.jpg","37","1","787"
"5","5","retrieval","old_objects","158","Ship_Model.jpg","36","1","911"
"5","5","retrieval","old_objects","159","Camera_Video.jpg","37","0","900"
"5","5","retrieval","new_objects","160","Pickaxe.jpg","37","1","843"
"5","5","retrieval","old_objects","161","Wire_ElectricalSingle.jpg","37","0","1218"
"5","5","retrieval","new_objects","162","JuicerCitrus.jpg","37","1","1382"
"5","5","retrieval","new_objects","163","Toy_TableSet.jpg","37","1","759"
"5","5","retrieval","new_objects","164","WateringCan_Antique.jpg","37","1","900"
"5","5","retrieval","new_objects","165","GasBurner.jpg","37","1","799"
"5","5","retrieval","new_objects","166","SledgeHammer.jpg","37","1","1045"
"5","5","retrieval","old_objects","167","Humidifier.jpg","36","1","1046"
"5","5","retrieval","new_objects","168","Dresser.jpg","37","1","1045"
"5","5","retrieval","new_objects","169","Computer_ExpansionCard.jpg","36","0","661"
"5","5","retrieval","old_objects","170","ShoeLace_Flat.jpg","36","1","946"
"5","5","retrieval","old_objects","171","Necklace_Pearl.jpg","37","0","950"
"5","5","retrieval","new_objects","172","Bag_PaperWithFlour.jpg","37","1","629"
"5","5","retrieval","old_objects","173","Level.jpg","37","0","667"
"5","5","retrieval","new_objects","174","Handbag.jpg","37","1","1029"
"5","5","retrieval","new_objects","175","Hubcap.jpg","37","1","639"
"5","5","retrieval","old_objects","176","Dolly.jpg","37","0","757"
"5","5","retrieval","new_objects","177","Cord_usb.jpg","37","1","826"
"5","5","retrieval","new_objects","178","Gauge.jpg","37","1","911"
"5","5","retrieval","new_objects","179","Bark.jpg","37","1","595"
"5","5","retrieval","new_objects","180","Grill_Gas.jpg","37","1","731"
"5","5","retrieval","old_objects","181","Protractor.jpg","37","0","569"
"5","5","retrieval","old_objects","182","Locomotive.jpg","36","1","1103"
"5","5","retrieval","old_objects","184","Bed_ChildBirch.jpg","37","0","837"
"5","5","retrieval","old_objects","185","Chair_Folding.jpg","36","1","994"
"5","5","retrieval","new_objects","186","Rake_Long.jpg","37","1","647"
"5","5","retrieval","new_objects","187","Awning.jpg","37","1","630"
"5","5","retrieval","old_objects","188","Hook_Fishing.jpg","36","1","1121"
"5","5","retrieval","new_objects","189","Artichoke.jpg","37","1","609"
"5","5","retrieval","new_objects","190","Harp.jpg","37","1","623"
"5","5","retrieval","old_objects","191","LawnMower.jpg","37","0","1166"
"5","5","retrieval","old_objects","192","TelephoneSwitchboard.jpg","37","0","684"
"5","5","retrieval","new_objects","193","Pot_Cooking.jpg","37","1","1209"
"5","5","retrieval","new_objects","194","Bench_Wooden.jpg","37","1","805"
"5","5","retrieval","old_objects","195","Candleholder_LampShaped.jpg","36","1","652"
"5","5","retrieval","new_objects","196","Hat_Cowboy.jpg","37","1","759"
"5","5","retrieval","new_objects","197","Toy_FigurineEngineer.jpg","37","1","647"
"5","5","retrieval","old_objects","198","Kebab_Vegetables.jpg","37","0","604"
"5","5","retrieval","old_objects","199","Toolbox_Old.jpg","37","0","734"
"5","5","retrieval","new_objects","200","Swing_Child.jpg","37","1","675"
"5","5","retrieval","new_objects","201","Heater_ElectricUpright.jpg","37","1","644"
"5","5","retrieval","old_objects","202","Microwave.jpg","37","0","793"
"5","5","retrieval","old_objects","203","RibbonPin.jpg","36","1","768"
"5","5","retrieval","new_objects","204","Vase_EarthToned.jpg","37","1","685"
"5","5","retrieval","old_objects","205","Barometer_Wood.jpg","36","1","778"
"5","5","retrieval","new_objects","206","White_Screen.jpg","0","0","2000"
"5","5","retrieval","old_objects","207","Bread_Carrot.jpg","37","0","1389"
"5","5","retrieval","old_objects","208","LampPost_OneBulb.jpg","36","1","854"
"5","5","retrieval","new_objects","209","Corkboard.jpg","37","1","863"
"5","5","retrieval","old_objects","210","PagodaModel.jpg","37","0","953"
"5","5","retrieval","new_objects","211","Jetski.jpg","37","1","809"
"5","5","retrieval","old_objects","212","PowerDoorPushButton.jpg","37","0","663"
"5","5","retrieval","old_objects","213","Toy_SeeSaw.jpg","37","0","883"
"5","5","retrieval","old_objects","214","HairDryer.jpg","37","0","503"
"5","5","retrieval","new_objects","215","Paddle_Beach.jpg","37","1","710"
"5","5","retrieval","new_objects","216","Bowl_Chopsticks.jpg","37","1","685"
"5","5","retrieval","old_objects","217","Egg_Wooden.jpg","37","0","746"
"5","5","retrieval","new_objects","218","Chicken_Dinner.jpg","37","1","907"
"5","5","retrieval","old_objects","219","Table_Set.jpg","37","0","810"
"5","5","retrieval","old_objects","220","Shoe_Sneaker.jpg","37","0","1082"
"5","5","retrieval","old_objects","221","Sieve_TopView.jpg","37","0","738"
"5","5","retrieval","new_objects","222","Sign_TrafficArrow.jpg","37","1","781"
"5","5","retrieval","new_objects","223","Cologne.jpg","37","1","707"
"5","5","retrieval","new_objects","224","Bandage_Adhesive.jpg","37","1","898"
"5","5","retrieval","new_objects","225","Flower_Daisy.jpg","36","0","1183"
"5","5","retrieval","new_objects","226","Lighter_Black.jpg","37","1","899"
"5","5","retrieval","old_objects","227","ToothbrushHolder.jpg","37","0","794"
"5","5","retrieval","old_objects","228","Dart.jpg","36","1","914"
"5","5","retrieval","old_objects","229","FireAlarm.jpg","36","1","1063"
"5","5","retrieval","new_objects","230","Radish.jpg","37","1","693"
"5","5","retrieval","old_objects","231","Toy_Turtle.jpg","37","0","642"
"5","5","retrieval","new_objects","232","PillBottle_Prescription.jpg","37","1","933"
"5","5","retrieval","old_objects","233","Tag_Identifier.jpg","36","1","944"
"5","5","retrieval","old_objects","234","Crate_Milk.jpg","36","1","839"
"5","5","retrieval","new_objects","235","Weights_Dumbells.jpg","37","1","867"
"5","5","retrieval","new_objects","236","HorseshoeCrab.jpg","37","1","909"
"5","5","retrieval","old_objects","237","Sandcastle.jpg","36","1","881"
"5","5","retrieval","new_objects","238","Cake_Cheese.jpg","37","1","606"
"5","5","retrieval","old_objects","239","BicyclePedal.jpg","37","0","785"
"5","5","retrieval","old_objects","240","RollerCoaster.jpg","36","1","1387"
"5","5","retrieval","old_objects","241","Brush_Windshield.jpg","36","1","765"
"5","5","retrieval","new_objects","242","Mitt_Oven.jpg","37","1","758"
"5","5","retrieval","new_objects","243","Ladle.jpg","37","1","1166"
"5","5","retrieval","old_objects","245","Cheesegrater_Handheld.jpg","36","1","761"
"5","5","retrieval","old_objects","246","Pickle.jpg","36","1","808"
"5","5","retrieval","new_objects","247","Dropper.jpg","37","1","673"
"5","5","retrieval","old_objects","248","Brush_Makeup.jpg","37","0","1080"
"5","5","retrieval","new_objects","249","Snowpea.jpg","37","1","714"
"5","5","retrieval","new_objects","250","Spotlight.jpg","37","1","715"
"5","5","retrieval","old_objects","251","Door_Green.jpg","36","1","718"
"5","5","retrieval","old_objects","252","Canister_Oil.jpg","37","0","689"
"5","5","retrieval","old_objects","253","Crib_Basket.jpg","37","0","885"
"5","5","retrieval","new_objects","254","House_Doll.jpg","37","1","1179"
"5","5","retrieval","new_objects","255","Whip.jpg","37","1","604"
"5","5","retrieval","old_objects","256","Pillow_Heart.jpg","37","0","1124"
"5","5","retrieval","new_objects","257","Heater_Outdoor.jpg","37","1","615"
"5","5","retrieval","new_objects","258","Drum_Conga.jpg","37","1","1156"
"5","5","retrieval","old_objects","259","Clock_Radio.jpg","37","0","1066"
"5","5","retrieval","new_objects","260","Toy_GasPump.jpg","37","1","717"
"5","5","retrieval","new_objects","261","Noisemaker_Streamers.jpg","37","1","589"
"5","5","retrieval","new_objects","262","JuiceBox.jpg","37","1","994"
"5","5","retrieval","old_objects","263","CarSuspension.jpg","37","0","990"
"5","5","retrieval","new_objects","264","ComputerKeyboard_F1.jpg","37","1","1443"
"5","5","retrieval","new_objects","265","LitterScoop.jpg","37","1","1183"
"5","5","retrieval","old_objects","266","Telephone_TinCan.jpg","37","0","1232"
"5","5","retrieval","old_objects","267","Chair_High.jpg","36","1","784"
"5","5","retrieval","new_objects","268","Bagpipes.jpg","37","1","937"
"5","5","retrieval","old_objects","269","Sign_Wetfloor.jpg","36","1","627"
"5","5","retrieval","old_objects","270","Decoration_ChristmasRed.jpg","36","1","638"
"5","5","retrieval","new_objects","271","Makeup_Mascara.jpg","37","1","938"
"5","5","retrieval","new_objects","272","Ball_Squashball.jpg","37","1","988"
"5","5","retrieval","new_objects","273","Olives.jpg","37","1","722"
"5","5","retrieval","old_objects","274","VacuumHose.jpg","37","0","644"
"5","5","retrieval","old_objects","275","Toaster_MetalSleek.jpg","36","1","1258"
"5","5","retrieval","old_objects","276","Cart_Groceries.jpg","37","0","708"
"5","5","retrieval","new_objects","277","LifeJacket_Orangejpg.jpg","37","1","768"
"5","5","retrieval","old_objects","278","Inukshuk.jpg","36","1","896"
"5","5","retrieval","old_objects","279","Syrup_Maple.jpg","37","0","714"
"5","5","retrieval","old_objects","280","Tape_Scotch.jpg","37","0","1395"
"5","5","retrieval","new_objects","281","Nuts_Pecan.jpg","37","1","746"
"5","5","retrieval","new_objects","282","Hat_Beanie.jpg","37","1","890"
"5","5","retrieval","new_objects","283","DormerWindow.jpg","37","1","966"
"5","5","retrieval","old_objects","284","Cheesegrater_Box.jpg","36","1","683"
"5","5","retrieval","new_objects","285","Squid_Orange.jpg","37","1","578"
"5","5","retrieval","old_objects","286","Pancakes.jpg","37","0","758"
"5","5","retrieval","new_objects","287","TigerWhite.jpg","37","1","1393"
"5","5","retrieval","old_objects","288","Toy_DollHomeMade.jpg","36","1","904"
"5","5","retrieval","new_objects","289","SundaeBanana.jpg","37","1","783"
"5","5","retrieval","new_objects","290","Sign_SpeedLimit25.jpg","36","0","1220"
"5","5","retrieval","new_objects","291","MovieSlate.jpg","37","1","895"
"5","5","retrieval","old_objects","292","ChocolateBar_HalfUnwrapped.jpg","37","0","1443"
"5","5","retrieval","new_objects","293","Headphones.jpg","37","1","1183"
"5","5","retrieval","old_objects","294","Bottle_Wine.jpg","37","0","1156"
"5","5","retrieval","old_objects","295","Steamroller.jpg","37","0","1265"
"5","5","retrieval","new_objects","296","Mixer_Hand.jpg","37","1","1975"
"5","5","retrieval","old_objects","297","TurkeyDinner.jpg","36","1","880"
"5","5","retrieval","old_objects","298","Cake_Birthday.jpg","37","0","1456"
"5","5","retrieval","new_objects","299","Toy_Car.jpg","37","1","1413"
"5","5","retrieval","old_objects","300","ScrewDriver.jpg","37","0","878"
"5","5","retrieval","new_objects","301","CoinRolls.jpg","37","1","878"
"5","5","retrieval","new_objects","302","SoapBottle.jpg","37","1","1459"
"5","5","retrieval","new_objects","303","Bucket_Rusty.jpg","37","1","1556"
"5","5","retrieval","new_objects","304","Gum_Pack.jpg","37","1","860"
"5","5","retrieval","old_objects","306","Easel.jpg","36","1","1100"
"5","5","retrieval","old_objects","307","Pants_Firefighter.jpg","37","0","1477"
"5","5","retrieval","old_objects","308","Switch_LightWhite.jpg","36","1","833"
"5","5","retrieval","new_objects","309","TubeRing.jpg","36","0","805"
"5","5","retrieval","new_objects","310","Stroboscope.jpg","37","1","1098"
"5","5","retrieval","new_objects","311","ReindeerHeadband.jpg","37","1","1536"
"5","5","retrieval","old_objects","312","Goat.jpg","37","0","933"
"5","5","retrieval","new_objects","313","Dress_Blue.jpg","37","1","807"
"5","5","retrieval","new_objects","314","Jar_Empty.jpg","37","1","879"
"5","5","retrieval","new_objects","315","Steam_Cleaner.jpg","37","1","909"
"5","5","retrieval","old_objects","316","Scarecrow.jpg","36","1","975"
"5","5","retrieval","old_objects","317","Bag_Toiletry.jpg","37","0","1125"
"5","5","retrieval","old_objects","318","House_Stone.jpg","37","0","1081"
"5","5","retrieval","old_objects","319","Airplane_Fighter.jpg","37","0","881"
"5","5","retrieval","new_objects","320","Toy_BearBluePlushie.jpg","37","1","995"
"5","5","retrieval","new_objects","321","Yarmulke.jpg","36","0","867"
"5","5","retrieval","new_objects","322","Spoon_Wooden.jpg","37","1","1350"
"5","5","retrieval","new_objects","323","Staircase_Curving.jpg","37","1","774"
"5","5","retrieval","new_objects","324","Bag_Computer.jpg","36","0","962"
"5","5","retrieval","new_objects","325","HairClipper.jpg","37","1","962"
"5","5","retrieval","new_objects","326","Screw.jpg","37","1","1019"
"5","5","retrieval","new_objects","327","Lollipop_Rainbow.jpg","37","1","842"
"5","5","retrieval","new_objects","328","Stool_Camping.jpg","37","1","1028"
"5","5","retrieval","old_objects","329","Figurine_Ballerina.jpg","36","1","919"
"5","5","retrieval","new_objects","330","Costume_Wizard.jpg","37","1","921"
"5","5","retrieval","old_objects","331","RiceRaw.jpg","37","0","674"
"5","5","retrieval","new_objects","332","Bag_Gift.jpg","37","1","797"
"5","5","retrieval","new_objects","333","Lock_Door.jpg","37","1","1579"
"5","5","retrieval","old_objects","334","TailLight.jpg","37","0","1610"
"5","5","retrieval","old_objects","335","MoneyBill50.jpg","36","1","871"
"5","5","retrieval","old_objects","336","Hat_Beret.jpg","37","0","1040"
"5","5","retrieval","new_objects","337","Foam_Accoustic.jpg","37","1","640"
"5","5","retrieval","old_objects","338","Battery_Car.jpg","37","0","1071"
"5","5","retrieval","old_objects","339","Gloves_WhiteKnit.jpg","37","0","1160"
"5","5","retrieval","old_objects","340","GasStation.jpg","37","0","1559"
"5","5","retrieval","old_objects","341","Lettuce_GreenLeaf.jpg","37","0","1423"
"5","5","retrieval","old_objects","342","House_Rural.jpg","36","1","716"
"5","5","retrieval","new_objects","343","Light_Traffic.jpg","36","0","911"
"5","5","retrieval","old_objects","344","Wontons.jpg","37","0","736"
"5","5","retrieval","new_objects","345","Dreamcatcher.jpg","37","1","810"
"5","5","retrieval","old_objects","346","Spoon_Serving.jpg","36","1","744"
"5","5","retrieval","old_objects","347","Razor.jpg","36","1","855"
"5","5","retrieval","new_objects","348","Heater_Infrared.jpg","37","1","756"
"5","5","retrieval","new_objects","349","Barrel_Wine.jpg","37","1","683"
"5","5","retrieval","new_objects","350","Shirt_SportsJersey.jpg","37","1","676"
"5","5","retrieval","new_objects","351","Bucket_Halloween.jpg","37","1","690"
"5","5","retrieval","old_objects","352","Suit_Women.jpg","36","1","753"
"5","5","retrieval","new_objects","353","Cast.jpg","37","1","633"
"5","5","retrieval","old_objects","354","Stingray.jpg","37","0","774"
"5","5","retrieval","old_objects","355","PhoneCase.jpg","37","0","679"
"5","5","demographics_block","gender","1","PhoneCase.jpg","male","1","7109"
"5","5","demographics_block","age","1","PhoneCase.jpg","28","1","7109"
"5","5","demographics_block","education","1","PhoneCase.jpg","12","1","7109"
"5","5","demographics_block","left_right_handed","2","PhoneCase.jpg","Right","1","5001"
"5","5","demographics_block","raceoption1","2","PhoneCase.jpg","0","1","5001"
"5","5","demographics_block","raceoption2","2","PhoneCase.jpg","","1","5001"
"5","5","demographics_block","raceoption3","2","PhoneCase.jpg","","1","5001"
"5","5","demographics_block","raceoption4","2","PhoneCase.jpg","","1","5001"
"5","5","demographics_block","raceoption5","2","PhoneCase.jpg","","1","5001"
"5","5","demographics_block","raceoption6","2","PhoneCase.jpg","","1","5001"
"5","5","demographics_block","raceoption7","2","PhoneCase.jpg","","1","5001"
"5","5","demographics_block","raceoption8","2","PhoneCase.jpg","","1","5001"
"5","5","demographics_block","raceoption9","2","PhoneCase.jpg","","1","5001"
"5","5","demographics_block","raceother","2","PhoneCase.jpg","","1","5001"
"5","5","demographics_block","raceother","2","PhoneCase.jpg","","1","5001"
"5","5","demographics_block","english_language","2","PhoneCase.jpg","Yes","1","5001"
"5","5","demographics_block","english_languageother","2","PhoneCase.jpg","","1","5001"
"5","5","demographics_block","eyesight","3","PhoneCase.jpg","Yes","1","8926"
"5","5","demographics_block","colorblind","3","PhoneCase.jpg","No","1","8926"
"5","5","worker_id_block","worker_id_textbox","1","PhoneCase.jpg","A2FOUSWQDYHIE0","1","101612"
"4","4","encoding","encoding","1","BicyclePedal.jpg","37","0","1742"
"4","4","encoding","encoding","2","Shirt_Tshirt.jpg","37","0","977"
"4","4","encoding","encoding","3","Tape_Scotch.jpg","37","0","1034"
"4","4","encoding","encoding","4","Toy_DollHomeMade.jpg","37","0","1037"
"4","4","encoding","encoding","5","BicycleChain.jpg","37","0","1615"
"4","4","encoding","encoding","6","MalletJudge.jpg","37","0","1427"
"4","4","encoding","encoding","7","Chair_High.jpg","36","0","791"
"4","4","encoding","encoding","8","Level.jpg","37","0","1064"
"4","4","encoding","encoding","9","Pipette.jpg","37","0","866"
"4","4","encoding","encoding","10","Chair_PlasticGreen.jpg","36","0","713"
"4","4","encoding","encoding","11","Spoon_Serving.jpg","37","0","913"
"4","4","encoding","encoding","12","Hook_Fishing.jpg","37","0","622"
"4","4","encoding","encoding","13","Cornucopia.jpg","37","0","1504"
"4","4","encoding","encoding","14","RollerCoaster.jpg","36","0","937"
"4","4","encoding","encoding","15","PagodaModel.jpg","36","0","860"
"4","4","encoding","encoding","16","Toy_StackingRing.jpg","36","0","1039"
"4","4","encoding","encoding","17","Bed_ChildBirch.jpg","36","0","705"
"4","4","encoding","encoding","18","Cheesegrater_Handheld.jpg","37","0","849"
"4","4","encoding","encoding","19","LeatherPuncherTool.jpg","37","0","701"
"4","4","encoding","encoding","20","Scooter.jpg","36","0","873"
"4","4","encoding","encoding","21","Necklace_Pearl.jpg","37","0","772"
"4","4","encoding","encoding","22","Toy_Turtle.jpg","37","0","724"
"4","4","encoding","encoding","23","Jar_Canopic.jpg","36","0","886"
"4","4","encoding","encoding","24","Brush_Windshield.jpg","37","0","642"
"4","4","encoding","encoding","25","TurkeyDinner.jpg","37","0","814"
"4","4","encoding","encoding","26","ChiliFlakes.jpg","37","0","853"
"4","4","encoding","encoding","27","Bullet.jpg","37","0","687"
"4","4","encoding","encoding","28","LampPost_OneBulb.jpg","37","0","733"
"4","4","encoding","encoding","29","Loveseat.jpg","36","0","543"
"4","4","encoding","encoding","30","Sign_Taxi.jpg","37","0","1071"
"4","4","encoding","encoding","31","Table_Set.jpg","36","0","886"
"4","4","encoding","encoding","32","Airplane_Fighter.jpg","36","0","932"
"4","4","encoding","encoding","33","Pot_BlackOld.jpg","36","0","620"
"4","4","encoding","encoding","34","PhoneCase.jpg","37","0","1053"
"4","4","encoding","encoding","35","Kebab_Vegetables.jpg","37","0","1069"
"4","4","encoding","encoding","36","Protractor.jpg","37","0","728"
"4","4","encoding","encoding","37","Alfalfa.jpg","37","0","704"
"4","4","encoding","encoding","38","Sieve_TopView.jpg","37","0","581"
"4","4","encoding","encoding","39","Humidifier.jpg","37","0","1168"
"4","4","encoding","encoding","40","ToothbrushHolder.jpg","37","0","788"
"4","4","encoding","encoding","41","FortuneCookie.jpg","37","0","867"
"4","4","encoding","encoding","42","RiceRaw.jpg","37","0","770"
"4","4","encoding","encoding","43","Pitcher.jpg","37","0","638"
"4","4","encoding","encoding","44","Door_Blue.jpg","37","0","1129"
"4","4","encoding","encoding","45","BicycleOdometer.jpg","37","0","1045"
"4","4","encoding","encoding","46","DusterFeather.jpg","37","0","634"
"4","4","encoding","encoding","47","Stingray.jpg","37","0","745"
"4","4","encoding","encoding","48","Gorilla.jpg","36","0","584"
"4","4","encoding","encoding","49","Helmet_Construction.jpg","37","0","1101"
"4","4","encoding","encoding","50","Toy_SeeSaw.jpg","36","0","1227"
"4","4","encoding","encoding","51","Cake_Birthday.jpg","37","0","1398"
"4","4","encoding","encoding","52","GasStation.jpg","36","0","693"
"4","4","encoding","encoding","53","Lock_Key.jpg","37","0","715"
"4","4","encoding","encoding","54","Pillow_Heart.jpg","37","0","1207"
"4","4","encoding","encoding","55","Jug_Wicker.jpg","37","0","865"
"4","4","encoding","encoding","56","ChocolateBar_HalfUnwrapped.jpg","37","0","1200"
"4","4","encoding","encoding","57","Mirror_Dental.jpg","37","0","1010"
"4","4","encoding","encoding","58","Door_Green.jpg","36","0","658"
"4","4","encoding","encoding","59","GutterAndDrainPipe.jpg","37","0","1017"
"4","4","encoding","encoding","60","Gloves_WhiteKnit.jpg","37","0","833"
"4","4","encoding","encoding","62","Pickle.jpg","37","0","1761"
"4","4","encoding","encoding","63","Sandcastle.jpg","37","0","1445"
"4","4","encoding","encoding","64","Fruit_Orange.jpg","36","0","1138"
"4","4","encoding","encoding","65","Pants_Firefighter.jpg","36","0","999"
"4","4","encoding","encoding","66","Ginger.jpg","36","0","1373"
"4","4","encoding","encoding","67","House_Stone.jpg","37","0","1869"
"4","4","encoding","encoding","68","Box_WoodenClosed.jpg","36","0","976"
"4","4","encoding","encoding","69","Battery_Car.jpg","36","0","1002"
"4","4","encoding","encoding","70","Suit_Women.jpg","36","0","564"
"4","4","encoding","encoding","71","Lettuce_GreenLeaf.jpg","37","0","659"
"4","4","encoding","encoding","72","House_Rural.jpg","36","0","584"
"4","4","encoding","encoding","73","LifeJacket_BlueYellow.jpg","36","0","735"
"4","4","encoding","encoding","74","Candy_Heart.jpg","37","0","943"
"4","4","encoding","encoding","75","ToothPick.jpg","37","0","647"
"4","4","encoding","encoding","76","Exercise_Stepper.jpg","36","0","795"
"4","4","encoding","encoding","77","GoldNugget.jpg","37","0","592"
"4","4","encoding","encoding","78","Knife_Butter.jpg","37","0","645"
"4","4","encoding","encoding","79","Figurine_Ballerina.jpg","37","0","1242"
"4","4","encoding","encoding","80","Toaster_MetalSleek.jpg","36","0","763"
"4","4","encoding","encoding","81","Brush_Makeup.jpg","37","0","622"
"4","4","encoding","encoding","82","Bread_Carrot.jpg","37","0","693"
"4","4","encoding","encoding","83","Barometer_Wood.jpg","37","0","1677"
"4","4","encoding","encoding","84","Cage_Hamster.jpg","36","0","775"
"4","4","encoding","encoding","85","HairDryer.jpg","37","0","1032"
"4","4","encoding","encoding","86","Candleholder_LampShaped.jpg","37","0","717"
"4","4","encoding","encoding","87","TailLight.jpg","36","0","1283"
"4","4","encoding","encoding","88","Pancakes.jpg","0","0","2000"
"4","4","encoding","encoding","89","Clock_Radio.jpg","37","0","1036"
"4","4","encoding","encoding","90","Razor.jpg","37","0","1638"
"4","4","encoding","encoding","91","Pot_TurkishCoffee.jpg","36","0","1057"
"4","4","encoding","encoding","92","Earring_Hoop.jpg","37","0","974"
"4","4","encoding","encoding","93","CarSuspension.jpg","37","0","1251"
"4","4","encoding","encoding","94","Cart_Groceries.jpg","0","0","2000"
"4","4","encoding","encoding","95","Wontons.jpg","37","0","206"
"4","4","encoding","encoding","96","HDMIConnector.jpg","37","0","1269"
"4","4","encoding","encoding","97","Crate_Milk.jpg","37","0","1431"
"4","4","encoding","encoding","98","Lips_Wax.jpg","37","0","1070"
"4","4","encoding","encoding","99","Bag_Toiletry.jpg","37","0","1536"
"4","4","encoding","encoding","100","Helmet_Bicycle.jpg","37","0","879"
"4","4","encoding","encoding","101","Syrup_Maple.jpg","37","0","665"
"4","4","encoding","encoding","102","Sign_Wetfloor.jpg","37","0","1332"
"4","4","encoding","encoding","103","Dart.jpg","36","0","1760"
"4","4","encoding","encoding","104","BuildingChinese.jpg","36","0","790"
"4","4","encoding","encoding","105","Tombstone.jpg","36","0","980"
"4","4","encoding","encoding","106","Wire_ElectricalSingle.jpg","37","0","1860"
"4","4","encoding","encoding","107","Bottle_Wine.jpg","37","0","970"
"4","4","encoding","encoding","108","Cherry.jpg","37","0","815"
"4","4","encoding","encoding","109","BookShelf.jpg","36","0","648"
"4","4","encoding","encoding","110","MoneyBill50.jpg","37","0","661"
"4","4","encoding","encoding","111","Birdhouse.jpg","37","0","785"
"4","4","encoding","encoding","112","LawnMower.jpg","37","0","1234"
"4","4","encoding","encoding","113","Steamroller.jpg","36","0","888"
"4","4","encoding","encoding","114","FireAlarm.jpg","36","0","1074"
"4","4","encoding","encoding","115","TortillaChip.jpg","37","0","748"
"4","4","encoding","encoding","116","Flamingo_Cartoon.jpg","37","0","721"
"4","4","encoding","encoding","117","Chair_Folding.jpg","36","0","581"
"4","4","encoding","encoding","118","Toy_Witch.jpg","36","0","676"
"4","4","encoding","encoding","119","Inukshuk.jpg","36","0","586"
"4","4","encoding","encoding","120","Vase_Decorative.jpg","36","0","634"
"4","4","encoding","encoding","121","Decoration_ChristmasRed.jpg","37","0","920"
"4","4","encoding","encoding","123","Chair_Bamboo.jpg","36","0","1563"
"4","4","encoding","encoding","124","Crib_Basket.jpg","36","0","1495"
"4","4","encoding","encoding","125","GatedEntrance.jpg","36","0","586"
"4","4","encoding","encoding","126","Comb.jpg","37","0","737"
"4","4","encoding","encoding","127","PowerDoorPushButton.jpg","37","0","737"
"4","4","encoding","encoding","128","Skirt_Stripes.jpg","36","0","761"
"4","4","encoding","encoding","129","DJMixer.jpg","36","0","700"
"4","4","encoding","encoding","130","Cabinet_Office.jpg","36","0","484"
"4","4","encoding","encoding","131","Dolly.jpg","36","0","786"
"4","4","encoding","encoding","132","Canister_Oil.jpg","36","0","740"
"4","4","encoding","encoding","133","Clock_Interior.jpg","37","0","739"
"4","4","encoding","encoding","134","Cheesegrater_Box.jpg","37","0","1026"
"4","4","encoding","encoding","135","ScrewDriver.jpg","37","0","551"
"4","4","encoding","encoding","136","Shoe_Sneaker.jpg","37","0","1055"
"4","4","encoding","encoding","137","TotemPole.jpg","37","0","736"
"4","4","encoding","encoding","138","ShoeLace_Flat.jpg","37","0","470"
"4","4","encoding","encoding","139","Eggplant.jpg","37","0","581"
"4","4","encoding","encoding","140","ManholeCover.jpg","36","0","808"
"4","4","encoding","encoding","141","Telephone_TinCan.jpg","37","0","1944"
"4","4","encoding","encoding","142","Scarecrow.jpg","37","0","1305"
"4","4","encoding","encoding","143","Goat.jpg","36","0","1798"
"4","4","encoding","encoding","144","Hat_Beret.jpg","36","0","1097"
"4","4","encoding","encoding","145","Thermostat.jpg","37","0","978"
"4","4","encoding","encoding","146","Feet.jpg","37","0","1244"
"4","4","encoding","encoding","147","Container_Tupperware.jpg","37","0","949"
"4","4","encoding","encoding","148","Ship_Battle.jpg","36","0","998"
"4","4","encoding","encoding","149","Egg_Wooden.jpg","37","0","1144"
"4","4","encoding","encoding","150","Tag_Identifier.jpg","37","0","849"
"4","4","encoding","encoding","151","Clock_Wall.jpg","36","0","1768"
"4","4","encoding","encoding","152","TelephoneSwitchboard.jpg","36","0","666"
"4","4","encoding","encoding","153","Plunger.jpg","37","0","587"
"4","4","encoding","encoding","154","ChainRusty.jpg","37","0","1231"
"4","4","encoding","encoding","155","Stick_Honey.jpg","37","0","1621"
"4","4","encoding","encoding","156","Croissant.jpg","37","0","1291"
"4","4","encoding","encoding","157","Toy_Lizard.jpg","37","0","1165"
"4","4","encoding","encoding","158","SlushieMachine.jpg","36","0","903"
"4","4","encoding","encoding","159","Teardrop.jpg","37","0","1268"
"4","4","encoding","encoding","160","Locomotive.jpg","36","0","672"
"4","4","encoding","encoding","161","Microwave.jpg","36","0","990"
"4","4","encoding","encoding","162","Shoe_Highheel.jpg","37","0","1402"
"4","4","encoding","encoding","163","Chair_BeanBag.jpg","37","0","1786"
"4","4","encoding","encoding","164","RibbonPin.jpg","37","0","521"
"4","4","encoding","encoding","165","Table_Side.jpg","36","0","717"
"4","4","encoding","encoding","166","Table_Poker.jpg","37","0","638"
"4","4","encoding","encoding","167","VacuumHose.jpg","37","0","633"
"4","4","encoding","encoding","168","Ship_Model.jpg","36","0","734"
"4","4","encoding","encoding","169","Hedgehog.jpg","36","0","1218"
"4","4","encoding","encoding","170","Camera_Video.jpg","37","0","1354"
"4","4","encoding","encoding","171","Easel.jpg","36","0","905"
"4","4","encoding","encoding","172","RibbonString.jpg","37","0","1337"
"4","4","encoding","encoding","173","Toolbox_Old.jpg","36","0","890"
"4","4","encoding","encoding","174","Bucket_WoodenDark.jpg","36","0","653"
"4","4","encoding","encoding","175","Switch_LightWhite.jpg","37","0","989"
"4","4","encoding","encoding","176","Arch_Triomphe.jpg","36","0","599"
"4","4","encoding","encoding","177","Case_CD.jpg","36","0","1183"
"4","4","retrieval","new_objects","1","Almond.jpg","37","1","857"
"4","4","retrieval","new_objects","2","Bag_PaperWithFlour.jpg","37","1","610"
"4","4","retrieval","old_objects","3","House_Rural.jpg","36","1","709"
"4","4","retrieval","old_objects","4","Fruit_Orange.jpg","36","1","941"
"4","4","retrieval","old_objects","5","Hedgehog.jpg","36","1","634"
"4","4","retrieval","new_objects","6","Bandage_Adhesive.jpg","37","1","711"
"4","4","retrieval","old_objects","7","Gorilla.jpg","36","1","551"
"4","4","retrieval","old_objects","8","Toy_StackingRing.jpg","36","1","537"
"4","4","retrieval","old_objects","9","Case_CD.jpg","36","1","523"
"4","4","retrieval","new_objects","10","Squid_Orange.jpg","37","1","823"
"4","4","retrieval","new_objects","11","Tray_Muffin.jpg","37","1","597"
"4","4","retrieval","old_objects","12","Ginger.jpg","36","1","598"
"4","4","retrieval","old_objects","13","ToothbrushHolder.jpg","36","1","532"
"4","4","retrieval","old_objects","14","Razor.jpg","37","0","932"
"4","4","retrieval","new_objects","15","Sign_Open.jpg","37","1","584"
"4","4","retrieval","new_objects","16","Folder_Plastic.jpg","37","1","790"
"4","4","retrieval","old_objects","17","Chair_High.jpg","36","1","529"
"4","4","retrieval","new_objects","18","Parcel.jpg","37","1","1115"
"4","4","retrieval","new_objects","19","TowelRack_Brown.jpg","37","1","823"
"4","4","retrieval","new_objects","20","Light_Traffic.jpg","37","1","693"
"4","4","retrieval","new_objects","21","Shoes_DutchClogs.jpg","37","1","813"
"4","4","retrieval","new_objects","22","SundaeBanana.jpg","37","1","690"
"4","4","retrieval","old_objects","23","Clock_Interior.jpg","36","1","585"
"4","4","retrieval","new_objects","24","Pot_Cooking.jpg","0","0","2000"
"4","4","retrieval","new_objects","25","Pickaxe.jpg","0","0","2000"
"4","4","retrieval","old_objects","26","Pot_BlackOld.jpg","37","0","941"
"4","4","retrieval","old_objects","27","Dolly.jpg","36","1","698"
"4","4","retrieval","old_objects","28","Earring_Hoop.jpg","36","1","778"
"4","4","retrieval","old_objects","29","RiceRaw.jpg","36","1","793"
"4","4","retrieval","new_objects","30","ComputerKey_Escape.jpg","37","1","712"
"4","4","retrieval","new_objects","31","Staircase_Curving.jpg","0","0","2000"
"4","4","retrieval","new_objects","32","Toy_Firetruck.jpg","37","1","855"
"4","4","retrieval","old_objects","33","VacuumHose.jpg","37","0","242"
"4","4","retrieval","old_objects","34","Telephone_TinCan.jpg","36","1","513"
"4","4","retrieval","new_objects","35","Swing_Child.jpg","36","0","643"
"4","4","retrieval","old_objects","36","HairDryer.jpg","36","1","613"
"4","4","retrieval","new_objects","37","Dresser.jpg","37","1","1044"
"4","4","retrieval","old_objects","38","Candleholder_LampShaped.jpg","36","1","712"
"4","4","retrieval","old_objects","39","Hat_Beret.jpg","37","0","711"
"4","4","retrieval","new_objects","40","CameoPortrait.jpg","37","1","646"
"4","4","retrieval","old_objects","41","Gloves_WhiteKnit.jpg","36","1","614"
"4","4","retrieval","old_objects","42","Lettuce_GreenLeaf.jpg","36","1","588"
"4","4","retrieval","new_objects","43","JuicerCitrus.jpg","37","1","632"
"4","4","retrieval","new_objects","44","Ladle.jpg","37","1","798"
"4","4","retrieval","new_objects","45","Cord_usb.jpg","37","1","751"
"4","4","retrieval","old_objects","46","Shoe_Sneaker.jpg","36","1","613"
"4","4","retrieval","old_objects","47","Toaster_MetalSleek.jpg","36","1","583"
"4","4","retrieval","new_objects","48","DeepFryer.jpg","37","1","867"
"4","4","retrieval","new_objects","49","Tire_Hollow.jpg","37","1","669"
"4","4","retrieval","old_objects","50","Pants_Firefighter.jpg","36","1","566"
"4","4","retrieval","new_objects","51","Makeup_Mascara.jpg","37","1","612"
"4","4","retrieval","old_objects","52","Alfalfa.jpg","36","1","713"
"4","4","retrieval","new_objects","53","Flower_Basket.jpg","37","1","666"
"4","4","retrieval","old_objects","54","MalletJudge.jpg","36","1","632"
"4","4","retrieval","new_objects","55","Spoon_Wooden.jpg","37","1","774"
"4","4","retrieval","new_objects","56","Toy_Train.jpg","36","0","625"
"4","4","retrieval","old_objects","57","Chair_Folding.jpg","36","1","508"
"4","4","retrieval","old_objects","58","Sign_Taxi.jpg","36","1","580"
"4","4","retrieval","new_objects","59","Toy_Car.jpg","37","1","652"
"4","4","retrieval","new_objects","60","SledgeHammer.jpg","36","0","916"
"4","4","retrieval","new_objects","62","Ball_Squashball.jpg","37","1","616"
"4","4","retrieval","old_objects","63","Table_Side.jpg","36","1","600"
"4","4","retrieval","old_objects","64","Bed_ChildBirch.jpg","36","1","597"
"4","4","retrieval","old_objects","65","Stingray.jpg","36","1","618"
"4","4","retrieval","old_objects","66","Protractor.jpg","36","1","526"
"4","4","retrieval","new_objects","67","Stool_Camping.jpg","37","1","718"
"4","4","retrieval","new_objects","68","Stool_Foot.jpg","37","1","681"
"4","4","retrieval","old_objects","69","ShoeLace_Flat.jpg","37","0","559"
"4","4","retrieval","old_objects","70","MoneyBill50.jpg","36","1","534"
"4","4","retrieval","new_objects","71","Sign_TrafficArrow.jpg","37","1","578"
"4","4","retrieval","old_objects","72","Camera_Video.jpg","36","1","630"
"4","4","retrieval","old_objects","73","SlushieMachine.jpg","37","0","1006"
"4","4","retrieval","old_objects","74","Mirror_Dental.jpg","36","1","933"
"4","4","retrieval","new_objects","75","House_Doll.jpg","37","1","879"
"4","4","retrieval","new_objects","76","Toy_FigurineEngineer.jpg","37","1","827"
"4","4","retrieval","new_objects","77","TubeRing.jpg","37","1","635"
"4","4","retrieval","new_objects","78","Rake_Long.jpg","37","1","676"
"4","4","retrieval","new_objects","79","Hat_Beanie.jpg","37","1","661"
"4","4","retrieval","old_objects","80","Goat.jpg","36","1","645"
"4","4","retrieval","old_objects","81","Battery_Car.jpg","36","1","882"
"4","4","retrieval","new_objects","82","Otoscope.jpg","37","1","773"
"4","4","retrieval","old_objects","83","BuildingChinese.jpg","36","1","569"
"4","4","retrieval","old_objects","84","Level.jpg","36","1","891"
"4","4","retrieval","new_objects","85","Toy_GasPump.jpg","37","1","1001"
"4","4","retrieval","old_objects","86","Crib_Basket.jpg","36","1","599"
"4","4","retrieval","old_objects","87","House_Stone.jpg","36","1","587"
"4","4","retrieval","old_objects","88","Toolbox_Old.jpg","36","1","913"
"4","4","retrieval","old_objects","89","Hook_Fishing.jpg","36","1","648"
"4","4","retrieval","new_objects","90","Paddle_Canoe.jpg","36","0","819"
"4","4","retrieval","old_objects","91","Skirt_Stripes.jpg","36","1","685"
"4","4","retrieval","new_objects","92","DormerWindow.jpg","37","1","855"
"4","4","retrieval","new_objects","93","Mitt_Oven.jpg","37","1","864"
"4","4","retrieval","old_objects","94","LawnMower.jpg","36","1","775"
"4","4","retrieval","old_objects","95","Exercise_Stepper.jpg","36","1","928"
