"group","subject","blockcode","trialcode","trialnum","values.stimulus","response","correct","latency"
"1","1","encoding","encoding","1","Bread_Roll.jpg","0","0","2001"
"1","1","encoding","encoding","2","ColumnMarble.jpg","Ctrl+'B'","0","0"
"1","1","retrieval","old_objects","1","Mat_Door.jpg","0","0","2001"
"1","1","retrieval","old_objects","2","Toy_PoliceCar.jpg","Ctrl+'B'","1","758"
"1","1","demographics_block","gender","1","Toy_PoliceCar.jpg","","1","11161"
"1","1","demographics_block","age","1","Toy_PoliceCar.jpg","","1","11161"
"1","1","demographics_block","education","1","Toy_PoliceCar.jpg","","1","11161"
"3","3","encoding","encoding","1","Pasta_Fusilli.jpg","37","0","1362"
"3","3","encoding","encoding","2","Bread_Roll.jpg","37","0","1077"
"3","3","encoding","encoding","3","DoorBell.jpg","37","0","1487"
"3","3","encoding","encoding","4","ComputerKeyboard_Backspace.jpg","37","0","1215"
"3","3","encoding","encoding","5","Toy_Top.jpg","37","0","804"
"3","3","encoding","encoding","6","Lantern_TeaBox.jpg","37","0","700"
"3","3","encoding","encoding","7","Jars_PetFood.jpg","36","0","1201"
"3","3","encoding","encoding","8","Ball_Disco.jpg","36","0","841"
"3","3","encoding","encoding","9","Acorn.jpg","37","0","911"
"3","3","encoding","encoding","10","Notepad_WithPen.jpg","37","0","1547"
"3","3","encoding","encoding","11","Toy_PoliceCar.jpg","37","0","1432"
"3","3","encoding","encoding","12","Mirror_Carside.jpg","36","0","1187"
"3","3","encoding","encoding","13","RAMchip.jpg","37","0","881"
"3","3","encoding","encoding","14","Cannister_Gas.jpg","36","0","838"
"3","3","encoding","encoding","15","BumperCar.jpg","36","0","1007"
"3","3","encoding","encoding","16","Machine_EKG.jpg","36","0","977"
"3","3","encoding","encoding","17","Box_Staples.jpg","37","0","764"
"3","3","encoding","encoding","18","Exercise_Stretch.jpg","37","0","781"
"3","3","encoding","encoding","19","ColumnMarble.jpg","36","0","939"
"3","3","encoding","encoding","20","Mat_Door.jpg","36","0","971"
"3","3","encoding","encoding","21","Balcony.jpg","36","0","642"
"3","3","encoding","encoding","22","Box_Present.jpg","36","0","686"
"3","3","encoding","encoding","23","LintRemover.jpg","36","0","1820"
"3","3","encoding","encoding","24","Origami_Boat.jpg","37","0","1188"
"3","3","encoding","encoding","25","Candy_Toffee.jpg","37","0","584"
"3","3","encoding","encoding","26","BrainSagittal.jpg","36","0","1255"
"3","3","encoding","encoding","27","Booties_Blue.jpg","37","0","1048"
"3","3","encoding","encoding","28","Cart_Wooden.jpg","36","0","1199"
"3","3","encoding","encoding","29","Pot_FlowerClay.jpg","36","0","775"
"3","3","encoding","encoding","30","Beaker.jpg","36","0","1357"
"3","3","encoding","encoding","31","Car_Buggy.jpg","36","0","725"
"3","3","encoding","encoding","32","ContactLens.jpg","37","0","729"
"3","3","encoding","encoding","33","Toy_SandRake.jpg","37","0","885"
"3","3","encoding","encoding","34","Lunchbox.jpg","36","0","757"
"3","3","encoding","encoding","35","Boardgame_Chess.jpg","36","0","953"
"3","3","encoding","encoding","36","Mask_CPR.jpg","36","0","1310"
"3","3","encoding","encoding","37","Pasta_Macaroni.jpg","37","0","562"
"3","3","encoding","encoding","38","Printer.jpg","36","0","750"
"3","3","encoding","encoding","39","Fryingpan.jpg","36","0","737"
"3","3","encoding","encoding","40","AngleGrinder.jpg","36","0","880"
"3","3","encoding","encoding","41","Apple_RedAndGreen.jpg","37","0","559"
"3","3","encoding","encoding","42","Cork.jpg","37","0","1433"
"3","3","encoding","encoding","43","Phone_Flip.jpg","37","0","708"
"3","3","encoding","encoding","44","Bottle_Beer.jpg","36","0","1309"
"3","3","encoding","encoding","45","Hand.jpg","37","0","1213"
"3","3","encoding","encoding","46","Truck_VintageBlue.jpg","36","0","1602"
"3","3","encoding","encoding","47","sign_traffic.jpg","36","0","1186"
"3","3","encoding","encoding","48","Bird_Peacock.jpg","36","0","782"
"3","3","encoding","encoding","49","Mallet.jpg","36","0","787"
"3","3","encoding","encoding","50","SoundMixer_White.jpg","36","0","736"
"3","3","encoding","encoding","51","Bible.jpg","36","0","595"
"3","3","encoding","encoding","52","CasketOpen.jpg","36","0","736"
"3","3","encoding","encoding","53","Sushi.jpg","37","0","732"
"3","3","encoding","encoding","54","Generator.jpg","36","0","650"
"3","3","encoding","encoding","55","Chair_Office.jpg","36","0","513"
"3","3","encoding","encoding","56","Sign_Washroom.jpg","36","0","652"
"3","3","encoding","encoding","57","Keys_Bunch.jpg","37","0","601"
"3","3","encoding","encoding","58","SelfieStick.jpg","36","0","621"
"3","3","encoding","encoding","59","DartBoard.jpg","36","0","640"
"3","3","encoding","encoding","60","Fridge.jpg","36","0","555"
"3","3","encoding","encoding","62","Toy_DonkeyFur.jpg","36","0","1204"
"3","3","encoding","encoding","63","RecordPlayer.jpg","36","0","550"
"3","3","encoding","encoding","64","Bird_Eagle.jpg","36","0","817"
"3","3","encoding","encoding","65","Truck_Pickup.jpg","36","0","611"
"3","3","encoding","encoding","66","Fence_Wooden.jpg","36","0","572"
"3","3","encoding","encoding","67","CapGraduation.jpg","36","0","1280"
"3","3","encoding","encoding","68","Sign_Parking.jpg","36","0","738"
"3","3","encoding","encoding","69","ChewingGum.jpg","37","0","592"
"3","3","encoding","encoding","70","Plate_Decorative.jpg","37","0","728"
"3","3","encoding","encoding","71","Outhouse.jpg","36","0","742"
"3","3","encoding","encoding","72","Mask_Masquerade.jpg","37","0","701"
"3","3","encoding","encoding","73","Mitt_Blue.jpg","37","0","829"
"3","3","encoding","encoding","74","Light_Fixtures.jpg","36","0","764"
"3","3","encoding","encoding","75","Hottub.jpg","36","0","592"
"3","3","encoding","encoding","76","Sand.jpg","37","0","647"
"3","3","encoding","encoding","77","Pretzel_Knot.jpg","37","0","833"
"3","3","encoding","encoding","78","DogTreat.jpg","37","0","905"
"3","3","encoding","encoding","79","Igloo.jpg","36","0","659"
"3","3","encoding","encoding","80","Jacket_Suit.jpg","36","0","706"
"3","3","encoding","encoding","81","Stick_Drum.jpg","37","0","539"
"3","3","encoding","encoding","82","Cucumber.jpg","36","0","1256"
"3","3","encoding","encoding","83","Peach.jpg","37","0","649"
"3","3","encoding","encoding","84","Barbecue_Charcoal.jpg","36","0","826"
"3","3","encoding","encoding","85","Shoes_WomenBoots.jpg","36","0","648"
"3","3","encoding","encoding","86","Kebab_Meat.jpg","37","0","703"
"3","3","encoding","encoding","87","OnionRed.jpg","37","0","594"
"3","3","encoding","encoding","88","Chair_Airplane.jpg","36","0","756"
"3","3","encoding","encoding","89","Escalator.jpg","36","0","679"
"3","3","encoding","encoding","90","Brush_Shoe.jpg","36","0","911"
"3","3","encoding","encoding","91","AirPump.jpg","36","0","821"
"3","3","encoding","encoding","92","Spoon_WoodenLight.jpg","37","0","884"
"3","3","encoding","encoding","93","Sculpture_MetalMan.jpg","36","0","667"
"3","3","encoding","encoding","94","Flask_Metal.jpg","36","0","868"
"3","3","encoding","encoding","95","Brace_Back.jpg","37","0","697"
"3","3","encoding","encoding","96","Cord_Ethernet.jpg","37","0","1261"
"3","3","encoding","encoding","97","Shark_GreatWhite.jpg","37","0","1497"
"3","3","encoding","encoding","98","Ball_8.jpg","37","0","1680"
"3","3","encoding","encoding","99","BakingDish.jpg","36","0","719"
"3","3","encoding","encoding","100","Cabinet_Display.jpg","36","0","637"
"3","3","encoding","encoding","101","Helmet_Soldier.jpg","36","0","658"
"3","3","encoding","encoding","102","Chopsticks.jpg","37","0","632"
"3","3","encoding","encoding","103","Pepper_Chili.jpg","37","0","633"
"3","3","encoding","encoding","104","CDstack.jpg","36","0","785"
"3","3","encoding","encoding","105","Monitor.jpg","36","0","613"
"3","3","encoding","encoding","106","Pants_Jeans.jpg","36","0","1253"
"3","3","encoding","encoding","107","ProcessorFood_Old.jpg","36","0","1018"
"3","3","encoding","encoding","108","Boar.jpg","36","0","759"
"3","3","encoding","encoding","109","Purse.jpg","36","0","538"
"3","3","encoding","encoding","110","Cauliflower.jpg","37","0","605"
"3","3","encoding","encoding","111","RickShaw.jpg","36","0","674"
"3","3","encoding","encoding","112","Stone_Mill.jpg","36","0","1154"
"3","3","encoding","encoding","113","Stamper.jpg","36","0","583"
"3","3","encoding","encoding","114","Seahorse.jpg","36","0","1062"
"3","3","encoding","encoding","115","SofaAntique.jpg","36","0","666"
"3","3","encoding","encoding","116","Thermos_MetalSleek.jpg","37","0","839"
"3","3","encoding","encoding","117","Bread_Loaf.jpg","36","0","1283"
"3","3","encoding","encoding","118","PeasSplit.jpg","37","0","688"
"3","3","encoding","encoding","119","Ambulance.jpg","36","0","583"
"3","3","encoding","encoding","120","Clave.jpg","36","0","793"
"3","3","encoding","encoding","121","Cane_Wooden.jpg","36","0","1472"
"3","3","encoding","encoding","123","Dynamite.jpg","37","0","1508"
"3","3","encoding","encoding","124","PencilSharpener.jpg","36","0","1517"
"3","3","encoding","encoding","125","CodeDoorLock.jpg","36","0","1175"
"3","3","encoding","encoding","126","Panda.jpg","36","0","622"
"3","3","encoding","encoding","127","Chair_Deck.jpg","36","0","650"
"3","3","encoding","encoding","128","Defribrillator.jpg","36","0","590"
"3","3","encoding","encoding","129","EyeExamDevice.jpg","36","0","1017"
"3","3","encoding","encoding","130","Bellows.jpg","36","0","713"
"3","3","encoding","encoding","131","Comb_1.jpg","37","0","950"
"3","3","encoding","encoding","132","Drink_Green.jpg","36","0","1834"
"3","3","encoding","encoding","133","Bowl_Cereal.jpg","36","0","1170"
"3","3","encoding","encoding","134","Loofa.jpg","37","0","793"
"3","3","encoding","encoding","135","Can_Olives.jpg","37","0","1419"
"3","3","encoding","encoding","136","IceCream_Popsicle.jpg","37","0","596"
"3","3","encoding","encoding","137","Exercise_HandTrainer.jpg","37","0","920"
"3","3","encoding","encoding","138","Heelpad.jpg","37","0","665"
"3","3","encoding","encoding","139","Towel.jpg","36","0","1318"
"3","3","encoding","encoding","140","Ladybug.jpg","37","0","1228"
"3","3","encoding","encoding","141","Shoes_Sneakers.jpg","36","0","842"
"3","3","encoding","encoding","142","Cinnamonroll.jpg","37","0","745"
"3","3","encoding","encoding","143","Drill.jpg","36","0","706"
"3","3","encoding","encoding","144","Milkshake_StrawberryStraw.jpg","37","0","774"
"3","3","encoding","encoding","145","Walker_Blue.jpg","36","0","651"
"3","3","encoding","encoding","146","Plate_Ceramic.jpg","36","0","1155"
"3","3","encoding","encoding","147","Candy_Caramel.jpg","37","0","588"
"3","3","encoding","encoding","148","Nail.jpg","37","0","768"
"3","3","encoding","encoding","149","Bird_Cardinal.jpg","36","0","1025"
"3","3","encoding","encoding","150","CarJack.jpg","36","0","1201"
"3","3","encoding","encoding","151","CoffeeGrinder.jpg","36","0","682"
"3","3","encoding","encoding","152","HairClip.jpg","37","0","768"
"3","3","encoding","encoding","153","Thermostat_Digital.jpg","36","0","700"
"3","3","encoding","encoding","154","Mask_HockeyGoalie.jpg","36","0","657"
"3","3","encoding","encoding","155","Toy_JackInTheBox.jpg","37","0","728"
"3","3","encoding","encoding","156","Pot_CastIron.jpg","36","0","642"
"3","3","encoding","encoding","157","Cup_Styrofoam.jpg","37","0","721"
"3","3","encoding","encoding","158","Canteen.jpg","36","0","1193"
"3","3","encoding","encoding","159","FileDivider.jpg","37","0","785"
"3","3","encoding","encoding","160","Bus_DoubleDecker.jpg","36","0","1445"
"3","3","encoding","encoding","161","DoubleBass.jpg","36","0","802"
"3","3","encoding","encoding","162","Leg.jpg","36","0","594"
"3","3","encoding","encoding","163","Pasta_Spaghetti.jpg","37","0","575"
"3","3","encoding","encoding","164","Lantern_Tea.jpg","36","0","982"
"3","3","encoding","encoding","165","Stick_Stirring.jpg","37","0","883"
"3","3","encoding","encoding","166","Tube.jpg","37","0","659"
"3","3","encoding","encoding","167","Slippers.jpg","0","0","2001"
"3","3","encoding","encoding","168","Grape.jpg","37","0","742"
"3","3","encoding","encoding","169","Shoe_WomenHeals.jpg","36","0","629"
"3","3","encoding","encoding","170","ShowerCap.jpg","37","0","1123"
"3","3","encoding","encoding","171","TeethMould.jpg","37","0","784"
"3","3","encoding","encoding","172","Glass_Martini.jpg","37","0","863"
"3","3","encoding","encoding","173","Domino.jpg","37","0","642"
"3","3","encoding","encoding","174","Brush_BathBack.jpg","36","0","1036"
"3","3","encoding","encoding","175","Deodorant.jpg","36","0","1192"
"3","3","encoding","encoding","176","Toy_Alien.jpg","37","0","626"
"3","3","encoding","encoding","177","Tomato.jpg","37","0","601"
"3","3","retrieval","new_objects","1","GuineaPig.jpg","37","1","1430"
"3","3","retrieval","new_objects","2","Broom_Short.jpg","37","1","759"
"3","3","retrieval","new_objects","3","Abacus.jpg","37","1","652"
"3","3","retrieval","old_objects","4","DoorBell.jpg","36","1","853"
"3","3","retrieval","new_objects","5","BoxTrailer.jpg","37","1","736"
"3","3","retrieval","old_objects","6","Plate_Decorative.jpg","36","1","875"
"3","3","retrieval","old_objects","7","Domino.jpg","36","1","614"
"3","3","retrieval","new_objects","8","Statue_Man.jpg","37","1","540"
"3","3","retrieval","new_objects","9","OnionRings.jpg","37","1","624"
"3","3","retrieval","new_objects","10","Pasta_Penne.jpg","37","1","841"
"3","3","retrieval","new_objects","11","Mug_Beer.jpg","37","1","684"
"3","3","retrieval","new_objects","12","Exercise_Bike.jpg","37","1","698"
"3","3","retrieval","new_objects","13","Ghost.jpg","37","1","598"
"3","3","retrieval","new_objects","14","Statue_Horse.jpg","37","1","581"
"3","3","retrieval","old_objects","15","Ladybug.jpg","36","1","614"
"3","3","retrieval","new_objects","16","Carousel copy.jpg","37","1","717"
"3","3","retrieval","old_objects","17","Stone_Mill.jpg","36","1","734"
"3","3","retrieval","old_objects","18","Exercise_Stretch.jpg","36","1","841"
"3","3","retrieval","new_objects","19","Thimble.jpg","37","1","699"
"3","3","retrieval","old_objects","20","Car_Buggy.jpg","36","1","685"
"3","3","retrieval","old_objects","21","Cucumber.jpg","36","1","742"
"3","3","retrieval","new_objects","22","Photocopier.jpg","36","0","965"
"3","3","retrieval","old_objects","23","Mask_CPR.jpg","36","1","766"
"3","3","retrieval","new_objects","24","Keg.jpg","37","1","857"
"3","3","retrieval","new_objects","25","Pipe_Pitch.jpg","37","1","662"
"3","3","retrieval","new_objects","26","Bird_Duck.jpg","37","1","518"
"3","3","retrieval","new_objects","27","ChariotGold.jpg","37","1","504"
"3","3","retrieval","new_objects","28","NeedlesAcupuncture.jpg","37","1","708"
"3","3","retrieval","old_objects","29","FileDivider.jpg","36","1","628"
"3","3","retrieval","new_objects","30","SolderingIron.jpg","37","1","662"
"3","3","retrieval","new_objects","31","FloppyDisk.jpg","37","1","606"
"3","3","retrieval","old_objects","32","CDstack.jpg","36","1","778"
"3","3","retrieval","old_objects","33","RickShaw.jpg","37","0","647"
"3","3","retrieval","old_objects","34","Kebab_Meat.jpg","36","1","1325"
"3","3","retrieval","new_objects","35","BicycleSeat.jpg","37","1","646"
"3","3","retrieval","old_objects","36","BumperCar.jpg","36","1","1014"
"3","3","retrieval","old_objects","37","Toy_JackInTheBox.jpg","36","1","732"
"3","3","retrieval","old_objects","38","Booties_Blue.jpg","36","1","688"
"3","3","retrieval","old_objects","39","Pasta_Spaghetti.jpg","36","1","581"
"3","3","retrieval","new_objects","40","Horn_Hunting.jpg","37","1","579"
"3","3","retrieval","old_objects","41","Stamper.jpg","37","0","926"
"3","3","retrieval","new_objects","42","Instrument_Nyckelharpa.jpg","37","1","662"
"3","3","retrieval","old_objects","43","Lantern_TeaBox.jpg","36","1","628"
"3","3","retrieval","new_objects","44","Ruler_Triangle.jpg","37","1","574"
"3","3","retrieval","new_objects","45","BicycleHandleGrip.jpg","37","1","712"
"3","3","retrieval","new_objects","46","Fuse.jpg","37","1","531"
"3","3","retrieval","new_objects","47","CanOpener.jpg","37","1","525"
"3","3","retrieval","new_objects","48","Clock_Radioalarm.jpg","37","1","701"
"3","3","retrieval","new_objects","49","Tray_Metal.jpg","37","1","512"
"3","3","retrieval","new_objects","50","MannequinHead.jpg","37","1","700"
"3","3","retrieval","old_objects","51","Cauliflower.jpg","37","0","572"
"3","3","retrieval","new_objects","52","Microscope.jpg","37","1","642"
"3","3","retrieval","new_objects","53","Thumbtack.jpg","37","1","683"
"3","3","retrieval","new_objects","54","Pliers_SlipJoint.jpg","37","1","634"
"3","3","retrieval","new_objects","55","Goose_Canadian.jpg","37","1","1023"
"3","3","retrieval","old_objects","56","Can_Olives.jpg","36","1","666"
"3","3","retrieval","old_objects","57","Nail.jpg","36","1","961"
"3","3","retrieval","old_objects","58","Cane_Wooden.jpg","36","1","781"
"3","3","retrieval","old_objects","59","Pepper_Chili.jpg","36","1","731"
"3","3","retrieval","old_objects","60","RecordPlayer.jpg","37","0","638"
"3","3","retrieval","new_objects","62","Doll_Rag.jpg","37","1","589"
"3","3","retrieval","new_objects","63","Gazebo.jpg","37","1","597"
"3","3","retrieval","new_objects","64","MobilityScooter.jpg","37","1","585"
"3","3","retrieval","new_objects","65","Can_Milk.jpg","37","1","526"
"3","3","retrieval","old_objects","66","Pants_Jeans.jpg","36","1","640"
"3","3","retrieval","old_objects","67","OnionRed.jpg","37","0","741"
"3","3","retrieval","old_objects","68","ComputerKeyboard_Backspace.jpg","37","0","596"
"3","3","retrieval","new_objects","69","Gloves_Bicycle.jpg","37","1","738"
"3","3","retrieval","new_objects","70","Golf_Club.jpg","37","1","611"
"3","3","retrieval","new_objects","71","Boombox.jpg","37","1","715"
"3","3","retrieval","new_objects","72","Egg_Chocolate.jpg","37","1","590"
"3","3","retrieval","old_objects","73","HairClip.jpg","37","0","756"
"3","3","retrieval","old_objects","74","Mask_HockeyGoalie.jpg","37","0","532"
"3","3","retrieval","old_objects","75","Plate_Ceramic.jpg","36","1","524"
"3","3","retrieval","old_objects","76","Drill.jpg","37","0","655"
"3","3","retrieval","old_objects","77","Cabinet_Display.jpg","37","0","596"
"3","3","retrieval","old_objects","78","CoffeeGrinder.jpg","36","1","580"
"3","3","retrieval","old_objects","79","Candy_Toffee.jpg","36","1","700"
"3","3","retrieval","old_objects","80","Bread_Roll.jpg","36","1","818"
"3","3","retrieval","old_objects","81","PeasSplit.jpg","36","1","614"
"3","3","retrieval","new_objects","82","Staples.jpg","37","1","587"
"3","3","retrieval","old_objects","83","Walker_Blue.jpg","36","1","702"
"3","3","retrieval","old_objects","84","Shoes_WomenBoots.jpg","36","1","668"
"3","3","retrieval","old_objects","85","RAMchip.jpg","37","0","639"
"3","3","retrieval","new_objects","86","Clamp.jpg","37","1","691"
"3","3","retrieval","old_objects","87","Leg.jpg","36","1","530"
"3","3","retrieval","old_objects","88","ContactLens.jpg","37","0","615"
"3","3","retrieval","old_objects","89","Helmet_Soldier.jpg","36","1","659"
"3","3","retrieval","new_objects","90","Radio_Vintage.jpg","37","1","517"
"3","3","retrieval","old_objects","91","Jars_PetFood.jpg","36","1","596"
"3","3","retrieval","old_objects","92","Exercise_HandTrainer.jpg","36","1","684"
"3","3","retrieval","old_objects","93","CodeDoorLock.jpg","37","0","533"
"3","3","retrieval","new_objects","94","DrinkShaker.jpg","37","1","739"
"3","3","retrieval","old_objects","95","Brace_Back.jpg","36","1","856"
"3","3","retrieval","new_objects","96","SiloGrain.jpg","37","1","506"
"3","3","retrieval","old_objects","97","SoundMixer_White.jpg","36","1","912"
"3","3","retrieval","old_objects","98","AngleGrinder.jpg","37","0","556"
"3","3","retrieval","old_objects","99","Truck_VintageBlue.jpg","36","1","616"
"3","3","retrieval","new_objects","100","DryingMachine.jpg","37","1","557"
"3","3","retrieval","new_objects","101","Pillar.jpg","37","1","622"
"3","3","retrieval","new_objects","102","Bag_Saline.jpg","37","1","532"
"3","3","retrieval","old_objects","103","Pot_FlowerClay.jpg","36","1","585"
"3","3","retrieval","old_objects","104","Cup_Styrofoam.jpg","36","1","717"
"3","3","retrieval","old_objects","105","Slippers.jpg","36","1","626"
"3","3","retrieval","old_objects","106","Barbecue_Charcoal.jpg","36","1","724"
"3","3","retrieval","old_objects","107","Boardgame_Chess.jpg","37","0","707"
"3","3","retrieval","new_objects","108","GrillRack.jpg","37","1","565"
"3","3","retrieval","new_objects","109","Toy_MerryGoRound.jpg","36","0","726"
"3","3","retrieval","new_objects","110","ComputerMouse.jpg","37","1","531"
"3","3","retrieval","old_objects","111","SofaAntique.jpg","37","0","542"
"3","3","retrieval","old_objects","112","Shoes_Sneakers.jpg","37","0","611"
"3","3","retrieval","old_objects","113","Balcony.jpg","37","0","515"
"3","3","retrieval","new_objects","114","Drum_Tall.jpg","37","1","533"
"3","3","retrieval","old_objects","115","CasketOpen.jpg","36","1","604"
"3","3","retrieval","new_objects","116","Cane_Metal.jpg","37","1","711"
"3","3","retrieval","new_objects","117","Pliers_NeedleNose.jpg","37","1","702"
"3","3","retrieval","new_objects","118","Pepperoni.jpg","37","1","766"
"3","3","retrieval","new_objects","119","PaperShredder.jpg","37","1","613"
"3","3","retrieval","old_objects","120","Igloo.jpg","36","1","640"
"3","3","retrieval","old_objects","121","Milkshake_StrawberryStraw.jpg","36","1","708"
"3","3","retrieval","new_objects","123","Backpack_Suitcase.jpg","37","1","608"
"3","3","retrieval","new_objects","124","PatioHeater.jpg","37","1","548"
"3","3","retrieval","new_objects","125","WalkieTalkie_Red.jpg","37","1","508"
"3","3","retrieval","old_objects","126","Mallet.jpg","37","0","563"
"3","3","retrieval","old_objects","127","Thermostat_Digital.jpg","37","0","540"
"3","3","retrieval","new_objects","128","FuseBox.jpg","37","1","579"
"3","3","retrieval","new_objects","129","Toy_Drill.jpg","37","1","540"
"3","3","retrieval","new_objects","130","Cannister_GasVintage.jpg","37","1","534"
"3","3","retrieval","new_objects","131","Ashtray_Empty.jpg","37","1","517"
"3","3","retrieval","old_objects","132","Cart_Wooden.jpg","37","0","493"
"3","3","retrieval","new_objects","133","Pasta_Fettuccine.jpg","36","0","891"
"3","3","retrieval","new_objects","134","Snorkle.jpg","37","1","494"
"3","3","retrieval","new_objects","135","SpinningWheel.jpg","37","1","560"
"3","3","retrieval","new_objects","136","Camera_Digital.jpg","37","1","465"
"3","3","retrieval","old_objects","137","Comb_1.jpg","37","0","498"
"3","3","retrieval","old_objects","138","Brush_BathBack.jpg","36","1","801"
"3","3","retrieval","old_objects","139","Acorn.jpg","36","1","740"
"3","3","retrieval","old_objects","140","Flask_Metal.jpg","36","1","708"
"3","3","retrieval","new_objects","141","Qtip_Multiple.jpg","37","1","607"
"3","3","retrieval","new_objects","142","Scorpion.jpg","37","1","532"
"3","3","retrieval","old_objects","143","DartBoard.jpg","37","0","544"
"3","3","retrieval","old_objects","144","Pot_CastIron.jpg","36","1","667"
"3","3","retrieval","old_objects","145","Drink_Green.jpg","37","0","627"
"3","3","retrieval","new_objects","146","Teapot.jpg","37","1","589"
"3","3","retrieval","old_objects","147","Panda.jpg","36","1","606"
"3","3","retrieval","old_objects","148","Tomato.jpg","36","1","673"
"3","3","retrieval","new_objects","149","Tortilla.jpg","37","1","748"
"3","3","retrieval","new_objects","150","Hat_Feather.jpg","37","1","500"
"3","3","retrieval","old_objects","151","Truck_Pickup.jpg","37","0","778"
"3","3","retrieval","old_objects","152","Spoon_WoodenLight.jpg","36","1","538"
"3","3","retrieval","new_objects","153","Tiara.jpg","37","1","440"
"3","3","retrieval","new_objects","154","Strainer_Tea.jpg","37","1","533"
"3","3","retrieval","old_objects","155","Ambulance.jpg","37","0","631"
"3","3","retrieval","old_objects","156","AirPump.jpg","36","1","857"
"3","3","retrieval","old_objects","157","Keys_Bunch.jpg","37","0","499"
"3","3","retrieval","old_objects","158","Ball_8.jpg","36","1","746"
"3","3","retrieval","old_objects","159","Toy_Top.jpg","37","0","510"
"3","3","retrieval","old_objects","160","DoubleBass.jpg","36","1","971"
"3","3","retrieval","old_objects","161","Mask_Masquerade.jpg","36","1","751"
"3","3","retrieval","old_objects","162","Beaker.jpg","36","1","659"
"3","3","retrieval","old_objects","163","Pasta_Fusilli.jpg","37","0","531"
"3","3","retrieval","new_objects","164","Toy_Shark.jpg","37","1","472"
"3","3","retrieval","old_objects","165","Hottub.jpg","36","1","610"
"3","3","retrieval","new_objects","166","Banana.jpg","37","1","627"
"3","3","retrieval","old_objects","167","Brush_Shoe.jpg","36","1","836"
"3","3","retrieval","old_objects","168","Clave.jpg","36","1","718"
"3","3","retrieval","old_objects","169","CapGraduation.jpg","36","1","617"
"3","3","retrieval","old_objects","170","Toy_DonkeyFur.jpg","36","1","917"
"3","3","retrieval","new_objects","171","Stepper.jpg","37","1","1057"
"3","3","retrieval","new_objects","172","Chainsaw.jpg","37","1","555"
"3","3","retrieval","new_objects","173","Card_TwoSpade.jpg","37","1","554"
"3","3","retrieval","old_objects","174","CarJack.jpg","36","1","869"
"3","3","retrieval","old_objects","175","Jacket_Suit.jpg","37","0","794"
"3","3","retrieval","new_objects","176","Archery_ArrowsBows.jpg","37","1","570"
"3","3","retrieval","old_objects","177","Light_Fixtures.jpg","37","0","483"
"3","3","retrieval","new_objects","178","Skates.jpg","37","1","631"
"3","3","retrieval","new_objects","179","BowlingPin.jpg","37","1","561"
"3","3","retrieval","old_objects","180","Shark_GreatWhite.jpg","36","1","615"
"3","3","retrieval","new_objects","181","PlayerFootball.jpg","37","1","704"
"3","3","retrieval","old_objects","182","Loofa.jpg","36","1","779"
"3","3","retrieval","old_objects","184","Cannister_Gas.jpg","36","1","771"
"3","3","retrieval","new_objects","185","Diode.jpg","37","1","522"
"3","3","retrieval","new_objects","186","MeterElectric.jpg","37","1","565"
"3","3","retrieval","old_objects","187","EyeExamDevice.jpg","37","0","574"
"3","3","retrieval","old_objects","188","Generator.jpg","37","0","586"
"3","3","retrieval","old_objects","189","BakingDish.jpg","36","1","624"
"3","3","retrieval","new_objects","190","Barometer.jpg","37","1","416"
"3","3","retrieval","old_objects","191","Sand.jpg","37","0","735"
"3","3","retrieval","old_objects","192","Mitt_Blue.jpg","36","1","604"
"3","3","retrieval","new_objects","193","Toy_RaceTrack.jpg","37","1","460"
"3","3","retrieval","old_objects","194","Fridge.jpg","36","1","651"
"3","3","retrieval","old_objects","195","Printer.jpg","36","1","734"
"3","3","retrieval","new_objects","196","DiaperChangingStation.jpg","37","1","441"
"3","3","retrieval","new_objects","197","Toy_BlocksWoodenPlain.jpg","37","1","465"
"3","3","retrieval","new_objects","198","Candy_GummyBear.jpg","37","1","543"
"3","3","retrieval","old_objects","199","Lunchbox.jpg","37","0","442"
"3","3","retrieval","old_objects","200","Heelpad.jpg","36","1","839"
"3","3","retrieval","old_objects","201","Origami_Boat.jpg","37","0","535"
"3","3","retrieval","old_objects","202","Seahorse.jpg","36","1","646"
"3","3","retrieval","new_objects","203","StreetSweeper.jpg","37","1","457"
"3","3","retrieval","old_objects","204","PencilSharpener.jpg","37","0","494"
"3","3","retrieval","new_objects","205","TestTube_MultipleAndRack.jpg","37","1","549"
"3","3","retrieval","old_objects","206","ChewingGum.jpg","36","1","737"
"3","3","retrieval","old_objects","207","Pasta_Macaroni.jpg","37","0","885"
"3","3","retrieval","old_objects","208","Towel.jpg","36","1","1138"
"3","3","retrieval","old_objects","209","Defribrillator.jpg","37","0","610"
"3","3","retrieval","new_objects","210","CompassCardinal.jpg","37","1","511"
"3","3","retrieval","old_objects","211","Pretzel_Knot.jpg","36","1","937"
"3","3","retrieval","new_objects","212","GingerbreadMan.jpg","37","1","593"
"3","3","retrieval","new_objects","213","PowderProtein.jpg","37","1","584"
"3","3","retrieval","new_objects","214","NetButterfly.jpg","37","1","462"
"3","3","retrieval","new_objects","215","WalkieTalkie_Yellow.jpg","37","1","433"
"3","3","retrieval","old_objects","216","Toy_SandRake.jpg","37","0","388"
"3","3","retrieval","new_objects","217","Bat_Baseball.jpg","36","0","651"
"3","3","retrieval","old_objects","218","Shoe_WomenHeals.jpg","37","0","747"
"3","3","retrieval","new_objects","219","Syringe_Needle.jpg","37","1","513"
"3","3","retrieval","new_objects","220","Noisemaker.jpg","37","1","522"
"3","3","retrieval","old_objects","221","Monitor.jpg","37","0","709"
"3","3","retrieval","old_objects","222","sign_traffic.jpg","36","1","625"
"3","3","retrieval","new_objects","223","Axe.jpg","37","1","523"
"3","3","retrieval","old_objects","224","Phone_Flip.jpg","36","1","694"
"3","3","retrieval","new_objects","225","Nuts_Peanuts.jpg","37","1","514"
"3","3","retrieval","old_objects","226","Bible.jpg","36","1","718"
"3","3","retrieval","new_objects","227","Shorts_Plaid.jpg","37","1","556"
"3","3","retrieval","old_objects","228","Machine_EKG.jpg","37","0","779"
"3","3","retrieval","new_objects","229","Glasses_Sun.jpg","37","1","648"
"3","3","retrieval","old_objects","230","Thermos_MetalSleek.jpg","37","0","756"
"3","3","retrieval","old_objects","231","Mat_Door.jpg","36","1","763"
"3","3","retrieval","new_objects","232","MusicSheet.jpg","37","1","797"
"3","3","retrieval","new_objects","233","TelescopeSpacecraft.jpg","37","1","584"
"3","3","retrieval","old_objects","234","Tube.jpg","37","0","825"
"3","3","retrieval","old_objects","235","Bread_Loaf.jpg","36","1","796"
"3","3","retrieval","new_objects","236","Potato.jpg","37","1","652"
"3","3","retrieval","old_objects","237","Bird_Peacock.jpg","36","1","688"
"3","3","retrieval","old_objects","238","ProcessorFood_Old.jpg","36","1","683"
"3","3","retrieval","new_objects","239","Basket_Straw.jpg","37","1","760"
"3","3","retrieval","new_objects","240","RibbonSpool.jpg","37","1","507"
"3","3","retrieval","old_objects","241","Escalator.jpg","37","0","479"
"3","3","retrieval","new_objects","242","OrigamiPaper.jpg","37","1","622"
"3","3","retrieval","new_objects","243","Grenade.jpg","37","1","493"
"3","3","retrieval","new_objects","245","Crib_Standard.jpg","37","1","524"
"3","3","retrieval","new_objects","246","DentalFloss.jpg","37","1","594"
"3","3","retrieval","old_objects","247","Hand.jpg","37","0","714"
"3","3","retrieval","old_objects","248","Lantern_Tea.jpg","36","1","670"
"3","3","retrieval","new_objects","249","RamAnimal.jpg","37","1","480"
"3","3","retrieval","new_objects","250","Flashlight.jpg","37","1","494"
"3","3","retrieval","new_objects","251","Wire_Soldering.jpg","37","1","491"
"3","3","retrieval","old_objects","252","Mirror_Carside.jpg","37","0","515"
"3","3","retrieval","old_objects","253","Sushi.jpg","37","0","476"
"3","3","retrieval","new_objects","254","ServiceBell.jpg","37","1","632"
"3","3","retrieval","old_objects","255","SelfieStick.jpg","37","0","649"
"3","3","retrieval","old_objects","256","Outhouse.jpg","37","0","640"
"3","3","retrieval","old_objects","257","Chair_Office.jpg","36","1","585"
"3","3","retrieval","old_objects","258","Bellows.jpg","37","0","509"
"3","3","retrieval","new_objects","259","Toy_BearBlackPlastic.jpg","37","1","584"
"3","3","retrieval","new_objects","260","Playdoh.jpg","37","1","504"
"3","3","retrieval","new_objects","261","Hourglass.jpg","37","1","537"
"3","3","retrieval","old_objects","262","Chopsticks.jpg","36","1","752"
"3","3","retrieval","new_objects","263","Hulahoop.jpg","37","1","432"
"3","3","retrieval","new_objects","264","BearPolar.jpg","37","1","686"
"3","3","retrieval","new_objects","265","TowelRack_Metal.jpg","37","1","569"
"3","3","retrieval","new_objects","266","Hangar.jpg","37","1","507"
"3","3","retrieval","old_objects","267","Bus_DoubleDecker.jpg","36","1","629"
"3","3","retrieval","new_objects","268","Bat_Cricket.jpg","37","1","474"
"3","3","retrieval","new_objects","269","PharoahReplica.jpg","37","1","580"
"3","3","retrieval","old_objects","270","DogTreat.jpg","36","1","708"
"3","3","retrieval","new_objects","271","Boot_Rain.jpg","37","1","553"
"3","3","retrieval","new_objects","272","Makeup_Compact.jpg","37","1","518"
"3","3","retrieval","new_objects","273","Toy_Chameleon.jpg","37","1","464"
"3","3","retrieval","new_objects","274","PassionFruit.jpg","37","1","499"
"3","3","retrieval","new_objects","275","Honeydew_Green.jpg","37","1","577"
"3","3","retrieval","old_objects","276","Fryingpan.jpg","36","1","664"
"3","3","retrieval","old_objects","277","Toy_PoliceCar.jpg","37","0","519"
"3","3","retrieval","new_objects","278","Castle_Model.jpg","37","1","475"
"3","3","retrieval","new_objects","279","Squid_Pink.jpg","37","1","445"
"3","3","retrieval","old_objects","280","Sign_Washroom.jpg","37","0","499"
"3","3","retrieval","old_objects","281","Stick_Stirring.jpg","36","1","764"
"3","3","retrieval","old_objects","282","Chair_Airplane.jpg","37","0","461"
"3","3","retrieval","new_objects","283","Centrifuge.jpg","37","1","411"
"3","3","retrieval","old_objects","284","Stick_Drum.jpg","36","1","789"
"3","3","retrieval","new_objects","285","RiceCooker.jpg","37","1","449"
"3","3","retrieval","new_objects","286","ConnectorPlug.jpg","37","1","428"
"3","3","retrieval","new_objects","287","Brush_Toilet.jpg","37","1","425"
"3","3","retrieval","new_objects","288","Case_Pencil.jpg","37","1","656"
"3","3","retrieval","new_objects","289","Mug_Ceramic.jpg","37","1","400"
"3","3","retrieval","new_objects","290","Megaphone.jpg","37","1","591"
"3","3","retrieval","old_objects","291","TeethMould.jpg","36","1","665"
"3","3","retrieval","old_objects","292","Dynamite.jpg","37","0","552"
"3","3","retrieval","old_objects","293","Sign_Parking.jpg","37","0","841"
"3","3","retrieval","old_objects","294","Purse.jpg","37","0","1028"
"3","3","retrieval","new_objects","295","Crossbow.jpg","37","1","524"
"3","3","retrieval","old_objects","296","ShowerCap.jpg","36","1","686"
"3","3","retrieval","old_objects","297","Deodorant.jpg","37","0","470"
"3","3","retrieval","old_objects","298","Bird_Eagle.jpg","37","0","484"
"3","3","retrieval","old_objects","299","Ball_Disco.jpg","36","1","681"
"3","3","retrieval","new_objects","300","PaintBrushAndPallette.jpg","37","1","438"
"3","3","retrieval","new_objects","301","RollingPin.jpg","37","1","680"
"3","3","retrieval","new_objects","302","TestTube_Single.jpg","37","1","656"
"3","3","retrieval","old_objects","303","Canteen.jpg","37","0","485"
"3","3","retrieval","old_objects","304","Box_Present.jpg","37","0","505"
"3","3","retrieval","old_objects","306","Bird_Cardinal.jpg","36","1","661"
"3","3","retrieval","old_objects","307","Peach.jpg","37","0","579"
"3","3","retrieval","old_objects","308","IceCream_Popsicle.jpg","36","1","700"
"3","3","retrieval","new_objects","309","Camera_ProfessionalFilm.jpg","37","1","503"
"3","3","retrieval","new_objects","310","ScaleWeighing.jpg","37","1","570"
"3","3","retrieval","old_objects","311","BrainSagittal.jpg","37","0","490"
"3","3","retrieval","new_objects","312","Box_Vials.jpg","37","1","523"
"3","3","retrieval","new_objects","313","Flamingo_Real.jpg","37","1","719"
"3","3","retrieval","new_objects","314","Shovel_Sandbox.jpg","37","1","758"
"3","3","retrieval","new_objects","315","Playard.jpg","37","1","446"
"3","3","retrieval","new_objects","316","Snake_Cobra.jpg","37","1","472"
"3","3","retrieval","old_objects","317","Candy_Caramel.jpg","36","1","645"
"3","3","retrieval","old_objects","318","Glass_Martini.jpg","36","1","688"
"3","3","retrieval","new_objects","319","Mask_African.jpg","37","1","468"
"3","3","retrieval","old_objects","320","Cinnamonroll.jpg","37","0","662"
"3","3","retrieval","new_objects","321","ProcessorFood_Modern.jpg","37","1","489"
"3","3","retrieval","new_objects","322","Bird_Hen.jpg","37","1","490"
"3","3","retrieval","new_objects","323","Carbiner_Ascender.jpg","37","1","588"
"3","3","retrieval","new_objects","324","Cranberry.jpg","37","1","455"
"3","3","retrieval","old_objects","325","Box_Staples.jpg","37","0","466"
"3","3","retrieval","old_objects","326","Chair_Deck.jpg","37","0","428"
"3","3","retrieval","old_objects","327","Cord_Ethernet.jpg","37","0","585"
"3","3","retrieval","old_objects","328","Notepad_WithPen.jpg","36","1","698"
"3","3","retrieval","new_objects","329","Tap.jpg","37","1","596"
"3","3","retrieval","new_objects","330","Stapler_Regular.jpg","37","1","495"
"3","3","retrieval","old_objects","331","Fence_Wooden.jpg","37","0","566"
"3","3","retrieval","old_objects","332","Bottle_Beer.jpg","37","0","647"
"3","3","retrieval","new_objects","333","Hoverboard.jpg","37","1","495"
"3","3","retrieval","old_objects","334","Cork.jpg","36","1","692"
"3","3","retrieval","new_objects","335","Truck_Box.jpg","37","1","664"
"3","3","retrieval","old_objects","336","Toy_Alien.jpg","36","1","701"
"3","3","retrieval","new_objects","337","Lettuce_Romaine.jpg","37","1","532"
"3","3","retrieval","old_objects","338","LintRemover.jpg","37","0","633"
"3","3","retrieval","new_objects","339","Crown.jpg","37","1","484"
"3","3","retrieval","new_objects","340","Chair_Barber.jpg","37","1","769"
"3","3","retrieval","new_objects","341","Sashimi.jpg","37","1","508"
"3","3","retrieval","new_objects","342","Cannon.jpg","37","1","469"
"3","3","retrieval","new_objects","343","Bottle_Oil.jpg","37","1","435"
"3","3","retrieval","new_objects","344","Nametag.jpg","37","1","434"
"3","3","retrieval","new_objects","345","Frame_Oval.jpg","37","1","423"
"3","3","retrieval","new_objects","346","NintendoWii.jpg","37","1","624"
"3","3","retrieval","old_objects","347","Grape.jpg","37","0","423"
"3","3","retrieval","old_objects","348","Boar.jpg","37","0","446"
"3","3","retrieval","new_objects","349","TreeHouse.jpg","37","1","404"
"3","3","retrieval","new_objects","350","Archery_Arrows.jpg","37","1","369"
"3","3","retrieval","old_objects","351","Sculpture_MetalMan.jpg","37","0","467"
"3","3","retrieval","new_objects","352","Toblerone.jpg","37","1","452"
"3","3","retrieval","old_objects","353","ColumnMarble.jpg","37","0","621"
"3","3","retrieval","old_objects","354","Bowl_Cereal.jpg","37","0","524"
"3","3","retrieval","old_objects","355","Apple_RedAndGreen.jpg","37","0","813"
"3","3","demographics_block","gender","1","Apple_RedAndGreen.jpg","female","1","10678"
"3","3","demographics_block","age","1","Apple_RedAndGreen.jpg","28","1","10678"
"3","3","demographics_block","education","1","Apple_RedAndGreen.jpg","12","1","10678"
"3","3","demographics_block","left_right_handed","2","Apple_RedAndGreen.jpg","Right","1","4543"
"3","3","demographics_block","raceoption1","2","Apple_RedAndGreen.jpg","0","1","4543"
"3","3","demographics_block","raceoption2","2","Apple_RedAndGreen.jpg","","1","4543"
"3","3","demographics_block","raceoption3","2","Apple_RedAndGreen.jpg","","1","4543"
"3","3","demographics_block","raceoption4","2","Apple_RedAndGreen.jpg","","1","4543"
"3","3","demographics_block","raceoption5","2","Apple_RedAndGreen.jpg","","1","4543"
"3","3","demographics_block","raceoption6","2","Apple_RedAndGreen.jpg","","1","4543"
"3","3","demographics_block","raceoption7","2","Apple_RedAndGreen.jpg","","1","4543"
"3","3","demographics_block","raceoption8","2","Apple_RedAndGreen.jpg","","1","4543"
"3","3","demographics_block","raceoption9","2","Apple_RedAndGreen.jpg","","1","4543"
"3","3","demographics_block","raceother","2","Apple_RedAndGreen.jpg","","1","4543"
"3","3","demographics_block","raceother","2","Apple_RedAndGreen.jpg","","1","4543"
"3","3","demographics_block","english_language","2","Apple_RedAndGreen.jpg","Yes","1","4543"
"3","3","demographics_block","english_languageother","2","Apple_RedAndGreen.jpg","","1","4543"
"3","3","demographics_block","eyesight","3","Apple_RedAndGreen.jpg","Yes","1","3465"
"3","3","demographics_block","colorblind","3","Apple_RedAndGreen.jpg","No","1","3465"
"3","3","worker_id_block","worker_id_textbox","1","Apple_RedAndGreen.jpg","ABBP9JASL9AGK","1","34956"
"4","4","encoding","encoding","1","Flask_Metal.jpg","37","0","1178"
"4","4","encoding","encoding","2","ShowerCap.jpg","37","0","1463"
"4","4","encoding","encoding","3","Cord_Ethernet.jpg","37","0","1270"
"4","4","encoding","encoding","4","Bird_Cardinal.jpg","37","0","924"
"4","4","encoding","encoding","5","BumperCar.jpg","36","0","1443"
"4","4","encoding","encoding","6","Nail.jpg","37","0","673"
"4","4","encoding","encoding","7","Seahorse.jpg","37","0","907"
"4","4","encoding","encoding","8","CarJack.jpg","37","0","1223"
"4","4","encoding","encoding","9","Exercise_Stretch.jpg","37","0","893"
"4","4","encoding","encoding","10","CDstack.jpg","37","0","1355"
"4","4","encoding","encoding","11","Stone_Mill.jpg","37","0","1051"
"4","4","encoding","encoding","12","ComputerKeyboard_Backspace.jpg","36","0","904"
"4","4","encoding","encoding","13","Pants_Jeans.jpg","36","0","1495"
"4","4","encoding","encoding","14","Brush_BathBack.jpg","36","0","1525"
"4","4","encoding","encoding","15","Helmet_Soldier.jpg","36","0","1485"
"4","4","encoding","encoding","16","Cart_Wooden.jpg","36","0","1283"
"4","4","encoding","encoding","17","CodeDoorLock.jpg","37","0","1225"
"4","4","encoding","encoding","18","DogTreat.jpg","37","0","809"
"4","4","encoding","encoding","19","Toy_Alien.jpg","37","0","879"
"4","4","encoding","encoding","20","Boardgame_Chess.jpg","36","0","1077"
"4","4","encoding","encoding","21","Plate_Decorative.jpg","36","0","1380"
"4","4","encoding","encoding","22","Tomato.jpg","37","0","811"
"4","4","encoding","encoding","23","Notepad_WithPen.jpg","37","0","769"
"4","4","encoding","encoding","24","Sign_Washroom.jpg","36","0","1232"
"4","4","encoding","encoding","25","Pepper_Chili.jpg","37","0","663"
"4","4","encoding","encoding","26","Box_Staples.jpg","37","0","1085"
"4","4","encoding","encoding","27","Stick_Stirring.jpg","37","0","981"
"4","4","encoding","encoding","28","Igloo.jpg","36","0","979"
"4","4","encoding","encoding","29","AirPump.jpg","37","0","1242"
"4","4","encoding","encoding","30","Mask_Masquerade.jpg","37","0","1381"
"4","4","encoding","encoding","31","Pretzel_Knot.jpg","37","0","895"
"4","4","encoding","encoding","32","BakingDish.jpg","36","0","805"
"4","4","encoding","encoding","33","Cinnamonroll.jpg","37","0","732"
"4","4","encoding","encoding","34","Brace_Back.jpg","37","0","1259"
"4","4","encoding","encoding","35","Milkshake_StrawberryStraw.jpg","37","0","1041"
"4","4","encoding","encoding","36","sign_traffic.jpg","36","0","962"
"4","4","encoding","encoding","37","Fryingpan.jpg","36","0","855"
"4","4","encoding","encoding","38","Purse.jpg","36","0","925"
"4","4","encoding","encoding","39","Drill.jpg","37","0","1476"
"4","4","encoding","encoding","40","Walker_Blue.jpg","36","0","1043"
"4","4","encoding","encoding","41","Box_Present.jpg","36","0","809"
"4","4","encoding","encoding","42","Heelpad.jpg","37","0","1272"
"4","4","encoding","encoding","43","PeasSplit.jpg","37","0","702"
"4","4","encoding","encoding","44","Pasta_Macaroni.jpg","37","0","696"
"4","4","encoding","encoding","45","Fridge.jpg","36","0","852"
"4","4","encoding","encoding","46","Bird_Eagle.jpg","36","0","699"
"4","4","encoding","encoding","47","Peach.jpg","37","0","753"
"4","4","encoding","encoding","48","Cucumber.jpg","37","0","570"
"4","4","encoding","encoding","49","Bowl_Cereal.jpg","37","0","1319"
"4","4","encoding","encoding","50","EyeExamDevice.jpg","37","0","949"
"4","4","encoding","encoding","51","Comb_1.jpg","37","0","644"
"4","4","encoding","encoding","52","Panda.jpg","36","0","970"
"4","4","encoding","encoding","53","CasketOpen.jpg","36","0","657"
"4","4","encoding","encoding","54","Towel.jpg","36","0","1655"
"4","4","encoding","encoding","55","Pasta_Fusilli.jpg","37","0","774"
"4","4","encoding","encoding","56","Hottub.jpg","36","0","861"
"4","4","encoding","encoding","57","Tube.jpg","37","0","1356"
"4","4","encoding","encoding","58","Dynamite.jpg","37","0","1042"
"4","4","encoding","encoding","59","Thermos_MetalSleek.jpg","37","0","1305"
"4","4","encoding","encoding","60","Chair_Office.jpg","36","0","673"
"4","4","encoding","encoding","62","Plate_Ceramic.jpg","37","0","1429"
"4","4","encoding","encoding","63","Pot_FlowerClay.jpg","36","0","939"
"4","4","encoding","encoding","64","Cabinet_Display.jpg","36","0","762"
"4","4","encoding","encoding","65","Kebab_Meat.jpg","37","0","1049"
"4","4","encoding","encoding","66","Defribrillator.jpg","37","0","1039"
"4","4","encoding","encoding","67","Cane_Wooden.jpg","37","0","1366"
"4","4","encoding","encoding","68","Toy_SandRake.jpg","37","0","1141"
"4","4","encoding","encoding","69","ChewingGum.jpg","37","0","947"
"4","4","encoding","encoding","70","Mask_HockeyGoalie.jpg","36","0","738"
"4","4","encoding","encoding","71","Glass_Martini.jpg","37","0","761"
"4","4","encoding","encoding","72","Candy_Caramel.jpg","37","0","697"
"4","4","encoding","encoding","73","Mask_CPR.jpg","36","0","1694"
"4","4","encoding","encoding","74","Light_Fixtures.jpg","36","0","1397"
"4","4","encoding","encoding","75","Monitor.jpg","36","0","721"
"4","4","encoding","encoding","76","Lunchbox.jpg","36","0","1674"
"4","4","encoding","encoding","77","Fence_Wooden.jpg","36","0","937"
"4","4","encoding","encoding","78","Mallet.jpg","37","0","1263"
"4","4","encoding","encoding","79","Domino.jpg","37","0","768"
"4","4","encoding","encoding","80","Sculpture_MetalMan.jpg","37","0","1364"
"4","4","encoding","encoding","81","Ball_Disco.jpg","36","0","1203"
"4","4","encoding","encoding","82","Bird_Peacock.jpg","36","0","954"
"4","4","encoding","encoding","83","Drink_Green.jpg","37","0","809"
"4","4","encoding","encoding","84","Exercise_HandTrainer.jpg","37","0","735"
"4","4","encoding","encoding","85","Shoe_WomenHeals.jpg","37","0","1055"
"4","4","encoding","encoding","86","Slippers.jpg","37","0","621"
"4","4","encoding","encoding","87","TeethMould.jpg","37","0","747"
"4","4","encoding","encoding","88","Sushi.jpg","37","0","818"
"4","4","encoding","encoding","89","Sand.jpg","37","0","641"
"4","4","encoding","encoding","90","Keys_Bunch.jpg","37","0","535"
"4","4","encoding","encoding","91","SoundMixer_White.jpg","36","0","1174"
"4","4","encoding","encoding","92","Shoes_WomenBoots.jpg","37","0","1310"
"4","4","encoding","encoding","93","Grape.jpg","0","0","2000"
"4","4","encoding","encoding","94","Hand.jpg","37","0","1146"
"4","4","encoding","encoding","95","Toy_DonkeyFur.jpg","37","0","1465"
"4","4","encoding","encoding","96","Cauliflower.jpg","37","0","775"
"4","4","encoding","encoding","97","Sign_Parking.jpg","36","0","782"
"4","4","encoding","encoding","98","Cup_Styrofoam.jpg","37","0","1005"
"4","4","encoding","encoding","99","Chair_Deck.jpg","0","0","2000"
"4","4","encoding","encoding","100","Acorn.jpg","37","0","1546"
"4","4","encoding","encoding","101","Leg.jpg","36","0","1225"
"4","4","encoding","encoding","102","DoorBell.jpg","37","0","1479"
"4","4","encoding","encoding","103","Beaker.jpg","37","0","814"
"4","4","encoding","encoding","104","Can_Olives.jpg","37","0","677"
"4","4","encoding","encoding","105","IceCream_Popsicle.jpg","37","0","731"
"4","4","encoding","encoding","106","Pasta_Spaghetti.jpg","37","0","1089"
"4","4","encoding","encoding","107","Truck_VintageBlue.jpg","36","0","640"
"4","4","encoding","encoding","108","Jacket_Suit.jpg","36","0","846"
"4","4","encoding","encoding","109","CapGraduation.jpg","36","0","1101"
"4","4","encoding","encoding","110","Canteen.jpg","37","0","1132"
"4","4","encoding","encoding","111","Brush_Shoe.jpg","37","0","827"
"4","4","encoding","encoding","112","RAMchip.jpg","37","0","1361"
"4","4","encoding","encoding","113","FileDivider.jpg","37","0","1248"
"4","4","encoding","encoding","114","Stick_Drum.jpg","37","0","1055"
"4","4","encoding","encoding","115","PencilSharpener.jpg","37","0","1229"
"4","4","encoding","encoding","116","SofaAntique.jpg","36","0","747"
"4","4","encoding","encoding","117","Apple_RedAndGreen.jpg","37","0","539"
"4","4","encoding","encoding","118","Mitt_Blue.jpg","37","0","609"
"4","4","encoding","encoding","119","Spoon_WoodenLight.jpg","37","0","687"
"4","4","encoding","encoding","120","DoubleBass.jpg","36","0","734"
"4","4","encoding","encoding","121","ColumnMarble.jpg","36","0","757"
"4","4","encoding","encoding","123","Pot_CastIron.jpg","36","0","1227"
"4","4","encoding","encoding","124","LintRemover.jpg","36","0","1146"
"4","4","encoding","encoding","125","Ladybug.jpg","37","0","881"
"4","4","encoding","encoding","126","Chair_Airplane.jpg","36","0","895"
"4","4","encoding","encoding","127","Thermostat_Digital.jpg","37","0","982"
"4","4","encoding","encoding","128","Booties_Blue.jpg","37","0","828"
"4","4","encoding","encoding","129","Jars_PetFood.jpg","36","0","1307"
"4","4","encoding","encoding","130","Toy_JackInTheBox.jpg","36","0","1449"
"4","4","encoding","encoding","131","HairClip.jpg","37","0","878"
"4","4","encoding","encoding","132","Shoes_Sneakers.jpg","37","0","583"
"4","4","encoding","encoding","133","Ambulance.jpg","36","0","757"
"4","4","encoding","encoding","134","AngleGrinder.jpg","37","0","1140"
"4","4","encoding","encoding","135","Lantern_Tea.jpg","37","0","907"
"4","4","encoding","encoding","136","Mirror_Carside.jpg","37","0","673"
"4","4","encoding","encoding","137","Printer.jpg","36","0","768"
"4","4","encoding","encoding","138","Cork.jpg","37","0","679"
"4","4","encoding","encoding","139","Toy_Top.jpg","37","0","629"
"4","4","encoding","encoding","140","RecordPlayer.jpg","36","0","932"
"4","4","encoding","encoding","141","Balcony.jpg","36","0","723"
"4","4","encoding","encoding","142","Chopsticks.jpg","37","0","1529"
"4","4","encoding","encoding","143","Bellows.jpg","37","0","968"
"4","4","encoding","encoding","144","Truck_Pickup.jpg","36","0","638"
"4","4","encoding","encoding","145","Bread_Roll.jpg","37","0","637"
"4","4","encoding","encoding","146","Bus_DoubleDecker.jpg","37","0","1979"
"4","4","encoding","encoding","147","Car_Buggy.jpg","36","0","994"
"4","4","encoding","encoding","148","Clave.jpg","37","0","1201"
"4","4","encoding","encoding","149","Loofa.jpg","37","0","623"
"4","4","encoding","encoding","150","Bible.jpg","37","0","1304"
"4","4","encoding","encoding","151","Phone_Flip.jpg","37","0","845"
"4","4","encoding","encoding","152","Stamper.jpg","37","0","1067"
"4","4","encoding","encoding","153","Mat_Door.jpg","36","0","1169"
"4","4","encoding","encoding","154","Escalator.jpg","36","0","872"
"4","4","encoding","encoding","155","ProcessorFood_Old.jpg","36","0","1175"
"4","4","encoding","encoding","156","Generator.jpg","36","0","743"
"4","4","encoding","encoding","157","Candy_Toffee.jpg","37","0","716"
"4","4","encoding","encoding","158","Outhouse.jpg","36","0","1187"
"4","4","encoding","encoding","159","Origami_Boat.jpg","37","0","817"
"4","4","encoding","encoding","160","Shark_GreatWhite.jpg","36","0","827"
"4","4","encoding","encoding","161","Barbecue_Charcoal.jpg","36","0","695"
"4","4","encoding","encoding","162","Lantern_TeaBox.jpg","37","0","949"
"4","4","encoding","encoding","163","OnionRed.jpg","37","0","604"
"4","4","encoding","encoding","164","Machine_EKG.jpg","37","0","1179"
"4","4","encoding","encoding","165","BrainSagittal.jpg","37","0","1025"
"4","4","encoding","encoding","166","SelfieStick.jpg","37","0","776"
"4","4","encoding","encoding","167","RickShaw.jpg","36","0","819"
"4","4","encoding","encoding","168","CoffeeGrinder.jpg","36","0","757"
"4","4","encoding","encoding","169","Bottle_Beer.jpg","37","0","732"
"4","4","encoding","encoding","170","ContactLens.jpg","37","0","932"
"4","4","encoding","encoding","171","Ball_8.jpg","37","0","625"
"4","4","encoding","encoding","172","Cannister_Gas.jpg","37","0","496"
"4","4","encoding","encoding","173","Deodorant.jpg","37","0","871"
"4","4","encoding","encoding","174","Toy_PoliceCar.jpg","37","0","1125"
"4","4","encoding","encoding","175","Boar.jpg","36","0","835"
"4","4","encoding","encoding","176","Bread_Loaf.jpg","37","0","1017"
"4","4","encoding","encoding","177","DartBoard.jpg","36","0","616"
"4","4","retrieval","new_objects","1","RiceCooker.jpg","0","0","2000"
"4","4","retrieval","new_objects","2","TowelRack_Metal.jpg","0","0","2000"
"4","4","retrieval","new_objects","3","Case_Pencil.jpg","0","0","2000"
"4","4","retrieval","old_objects","4","AngleGrinder.jpg","0","0","2000"
"4","4","retrieval","new_objects","5","Stapler_Regular.jpg","0","0","2000"
"4","4","retrieval","old_objects","6","sign_traffic.jpg","0","0","2000"
"4","4","retrieval","old_objects","7","Boardgame_Chess.jpg","0","0","2000"
"4","4","retrieval","new_objects","8","Flashlight.jpg","37","1","1828"
"4","4","retrieval","old_objects","9","Plate_Decorative.jpg","36","1","1151"
"4","4","retrieval","new_objects","10","Ruler_Triangle.jpg","37","1","752"
"4","4","retrieval","new_objects","11","Makeup_Compact.jpg","37","1","792"
"4","4","retrieval","old_objects","12","Brush_Shoe.jpg","37","0","942"
"4","4","retrieval","new_objects","13","MobilityScooter.jpg","37","1","870"
"4","4","retrieval","new_objects","14","Snake_Cobra.jpg","37","1","777"
"4","4","retrieval","old_objects","15","Defribrillator.jpg","36","1","746"
"4","4","retrieval","old_objects","16","Cup_Styrofoam.jpg","37","0","832"
"4","4","retrieval","new_objects","17","GrillRack.jpg","37","1","637"
"4","4","retrieval","new_objects","18","Glasses_Sun.jpg","37","1","553"
"4","4","retrieval","old_objects","19","ComputerKeyboard_Backspace.jpg","36","1","785"
"4","4","retrieval","old_objects","20","Pot_CastIron.jpg","36","1","752"
"4","4","retrieval","old_objects","21","Ball_Disco.jpg","36","1","608"
"4","4","retrieval","old_objects","22","Milkshake_StrawberryStraw.jpg","36","1","607"
"4","4","retrieval","new_objects","23","PharoahReplica.jpg","36","0","876"
"4","4","retrieval","new_objects","24","Toy_BearBlackPlastic.jpg","37","1","1039"
"4","4","retrieval","new_objects","25","Box_Vials.jpg","37","1","596"
"4","4","retrieval","old_objects","26","DogTreat.jpg","37","0","611"
"4","4","retrieval","new_objects","27","Toy_Chameleon.jpg","37","1","1033"
"4","4","retrieval","new_objects","28","Hangar.jpg","37","1","669"
"4","4","retrieval","new_objects","29","DryingMachine.jpg","37","1","657"
"4","4","retrieval","new_objects","30","Banana.jpg","37","1","549"
"4","4","retrieval","old_objects","31","Pants_Jeans.jpg","36","1","790"
"4","4","retrieval","old_objects","32","DartBoard.jpg","36","1","563"
"4","4","retrieval","old_objects","33","Tomato.jpg","36","1","811"
"4","4","retrieval","new_objects","34","Drum_Tall.jpg","37","1","721"
"4","4","retrieval","new_objects","35","Archery_Arrows.jpg","37","1","771"
"4","4","retrieval","old_objects","36","Cane_Wooden.jpg","37","0","714"
"4","4","retrieval","new_objects","37","Broom_Short.jpg","36","0","899"
"4","4","retrieval","old_objects","38","ChewingGum.jpg","37","0","661"
"4","4","retrieval","old_objects","39","LintRemover.jpg","36","1","1065"
"4","4","retrieval","old_objects","40","DoorBell.jpg","36","1","741"
"4","4","retrieval","old_objects","41","Bread_Loaf.jpg","36","1","821"
"4","4","retrieval","old_objects","42","Chair_Airplane.jpg","36","1","595"
"4","4","retrieval","old_objects","43","Mask_HockeyGoalie.jpg","36","1","561"
"4","4","retrieval","new_objects","44","ProcessorFood_Modern.jpg","37","1","784"
"4","4","retrieval","new_objects","45","Hat_Feather.jpg","37","1","567"
"4","4","retrieval","new_objects","46","MannequinHead.jpg","37","1","631"
"4","4","retrieval","old_objects","47","Brush_BathBack.jpg","36","1","692"
"4","4","retrieval","new_objects","48","Toblerone.jpg","36","0","759"
"4","4","retrieval","old_objects","49","Bread_Roll.jpg","36","1","951"
"4","4","retrieval","old_objects","50","Pasta_Macaroni.jpg","36","1","671"
"4","4","retrieval","old_objects","51","Ambulance.jpg","36","1","714"
"4","4","retrieval","old_objects","52","Igloo.jpg","36","1","556"
"4","4","retrieval","new_objects","53","Toy_BlocksWoodenPlain.jpg","37","1","796"
"4","4","retrieval","new_objects","54","Skates.jpg","37","1","650"
"4","4","retrieval","old_objects","55","Toy_JackInTheBox.jpg","37","0","494"
"4","4","retrieval","old_objects","56","Pepper_Chili.jpg","36","1","859"
"4","4","retrieval","old_objects","57","Glass_Martini.jpg","36","1","773"
"4","4","retrieval","old_objects","58","Toy_DonkeyFur.jpg","36","1","630"
"4","4","retrieval","old_objects","59","BakingDish.jpg","36","1","617"
"4","4","retrieval","new_objects","60","Archery_ArrowsBows.jpg","37","1","694"
"4","4","retrieval","old_objects","62","Clave.jpg","36","1","741"
"4","4","retrieval","new_objects","63","Nametag.jpg","36","0","765"
"4","4","retrieval","old_objects","64","Cabinet_Display.jpg","36","1","669"
"4","4","retrieval","new_objects","65","PaintBrushAndPallette.jpg","36","0","799"
"4","4","retrieval","new_objects","66","Ghost.jpg","36","0","790"
"4","4","retrieval","old_objects","67","Canteen.jpg","36","1","845"
"4","4","retrieval","new_objects","68","ScaleWeighing.jpg","37","1","873"
"4","4","retrieval","new_objects","69","SiloGrain.jpg","37","1","605"
"4","4","retrieval","old_objects","70","Stick_Drum.jpg","36","1","651"
"4","4","retrieval","new_objects","71","Camera_Digital.jpg","37","1","982"
"4","4","retrieval","new_objects","72","Radio_Vintage.jpg","37","1","829"
"4","4","retrieval","new_objects","73","MusicSheet.jpg","37","1","531"
"4","4","retrieval","new_objects","74","Bird_Hen.jpg","37","1","643"
"4","4","retrieval","new_objects","75","TestTube_MultipleAndRack.jpg","37","1","712"
"4","4","retrieval","old_objects","76","Flask_Metal.jpg","36","1","626"
"4","4","retrieval","old_objects","77","Pasta_Fusilli.jpg","36","1","727"
"4","4","retrieval","new_objects","78","ChariotGold.jpg","37","1","674"
"4","4","retrieval","new_objects","79","TestTube_Single.jpg","37","1","860"
"4","4","retrieval","old_objects","80","CapGraduation.jpg","36","1","680"
"4","4","retrieval","new_objects","81","Axe.jpg","37","1","839"
"4","4","retrieval","new_objects","82","Sashimi.jpg","37","1","852"
"4","4","retrieval","old_objects","83","Mirror_Carside.jpg","36","1","936"
"4","4","retrieval","old_objects","84","OnionRed.jpg","36","1","834"
"4","4","retrieval","old_objects","85","Notepad_WithPen.jpg","36","1","885"
"4","4","retrieval","new_objects","86","Boombox.jpg","37","1","720"
"4","4","retrieval","old_objects","87","ContactLens.jpg","36","1","1057"
"4","4","retrieval","new_objects","88","Crib_Standard.jpg","37","1","741"
"4","4","retrieval","new_objects","89","WalkieTalkie_Red.jpg","37","1","806"
"4","4","retrieval","new_objects","90","Gazebo.jpg","37","1","820"
"4","4","retrieval","old_objects","91","Purse.jpg","36","1","769"
"4","4","retrieval","new_objects","92","Playdoh.jpg","37","1","808"
"4","4","retrieval","new_objects","93","Crown.jpg","37","1","679"
"4","4","retrieval","old_objects","94","Toy_Top.jpg","36","1","722"
"4","4","retrieval","new_objects","95","Photocopier.jpg","36","0","1043"
"4","4","retrieval","old_objects","96","HairClip.jpg","37","0","769"
"4","4","retrieval","new_objects","97","CompassCardinal.jpg","37","1","927"
"4","4","retrieval","old_objects","98","Booties_Blue.jpg","36","1","937"
"4","4","retrieval","new_objects","99","NintendoWii.jpg","37","1","954"
"4","4","retrieval","old_objects","100","Box_Staples.jpg","36","1","961"
"4","4","retrieval","old_objects","101","CarJack.jpg","36","1","850"
"4","4","retrieval","new_objects","102","WalkieTalkie_Yellow.jpg","37","1","773"
"4","4","retrieval","old_objects","103","Bellows.jpg","36","1","1029"
"4","4","retrieval","new_objects","104","NetButterfly.jpg","37","1","1113"
"4","4","retrieval","new_objects","105","Staples.jpg","37","1","883"
"4","4","retrieval","old_objects","106","Jacket_Suit.jpg","36","1","797"
"4","4","retrieval","old_objects","107","Lantern_Tea.jpg","37","0","804"
"4","4","retrieval","old_objects","108","Box_Present.jpg","36","1","826"
"4","4","retrieval","old_objects","109","Sculpture_MetalMan.jpg","36","1","839"
"4","4","retrieval","old_objects","110","RickShaw.jpg","36","1","652"
"4","4","retrieval","new_objects","111","Qtip_Multiple.jpg","37","1","736"
"4","4","retrieval","old_objects","112","SelfieStick.jpg","36","1","824"
"4","4","retrieval","new_objects","113","Cane_Metal.jpg","37","1","1030"
"4","4","retrieval","old_objects","114","IceCream_Popsicle.jpg","36","1","1019"
"4","4","retrieval","new_objects","115","Clamp.jpg","37","1","833"
"4","4","retrieval","old_objects","116","Keys_Bunch.jpg","36","1","1038"
"4","4","retrieval","old_objects","117","Machine_EKG.jpg","36","1","875"
"4","4","retrieval","old_objects","118","Bottle_Beer.jpg","36","1","726"
"4","4","retrieval","old_objects","119","Shoes_WomenBoots.jpg","36","1","679"
"4","4","retrieval","old_objects","120","Printer.jpg","36","1","939"
"4","4","retrieval","old_objects","121","Candy_Toffee.jpg","36","1","683"
"4","4","retrieval","old_objects","123","Heelpad.jpg","36","1","885"
"4","4","retrieval","old_objects","124","Thermos_MetalSleek.jpg","36","1","768"
"4","4","retrieval","old_objects","125","Mat_Door.jpg","36","1","727"
"4","4","retrieval","old_objects","126","Cannister_Gas.jpg","36","1","584"
"4","4","retrieval","new_objects","127","Gloves_Bicycle.jpg","37","1","911"
"4","4","retrieval","old_objects","128","Fryingpan.jpg","36","1","665"
"4","4","retrieval","new_objects","129","BowlingPin.jpg","37","1","845"
"4","4","retrieval","old_objects","130","PeasSplit.jpg","36","1","761"
"4","4","retrieval","new_objects","131","SpinningWheel.jpg","37","1","867"
"4","4","retrieval","old_objects","132","Drill.jpg","36","1","773"
"4","4","retrieval","old_objects","133","DoubleBass.jpg","36","1","912"
"4","4","retrieval","new_objects","134","TelescopeSpacecraft.jpg","37","1","813"
"4","4","retrieval","new_objects","135","FloppyDisk.jpg","37","1","603"
"4","4","retrieval","new_objects","136","PassionFruit.jpg","37","1","657"
"4","4","retrieval","old_objects","137","Outhouse.jpg","36","1","749"
"4","4","retrieval","old_objects","138","Cauliflower.jpg","36","1","861"
"4","4","retrieval","new_objects","139","Toy_MerryGoRound.jpg","37","1","832"
"4","4","retrieval","old_objects","140","Hottub.jpg","36","1","798"
"4","4","retrieval","new_objects","141","Cranberry.jpg","37","1","811"
"4","4","retrieval","new_objects","142","Keg.jpg","36","0","867"
"4","4","retrieval","new_objects","143","ConnectorPlug.jpg","37","1","804"
"4","4","retrieval","old_objects","144","EyeExamDevice.jpg","36","1","826"
"4","4","retrieval","new_objects","145","DentalFloss.jpg","37","1","1143"
"4","4","retrieval","old_objects","146","CDstack.jpg","36","1","890"
"4","4","retrieval","new_objects","147","Carbiner_Ascender.jpg","37","1","835"
"4","4","retrieval","old_objects","148","Cinnamonroll.jpg","36","1","743"
"4","4","retrieval","old_objects","149","CodeDoorLock.jpg","36","1","992"
"4","4","retrieval","old_objects","150","Loofa.jpg","36","1","640"
"4","4","retrieval","old_objects","151","Panda.jpg","36","1","571"
"4","4","retrieval","new_objects","152","BicycleSeat.jpg","37","1","770"
"4","4","retrieval","old_objects","153","Toy_PoliceCar.jpg","36","1","818"
"4","4","retrieval","old_objects","154","Peach.jpg","36","1","728"
"4","4","retrieval","new_objects","155","Flamingo_Real.jpg","37","1","816"
"4","4","retrieval","new_objects","156","Diode.jpg","37","1","870"
"4","4","retrieval","new_objects","157","Shovel_Sandbox.jpg","37","1","673"
"4","4","retrieval","new_objects","158","Thimble.jpg","37","1","653"
"4","4","retrieval","old_objects","159","Domino.jpg","36","1","817"
"4","4","retrieval","new_objects","160","CanOpener.jpg","37","1","942"
"4","4","retrieval","new_objects","161","RollingPin.jpg","36","0","783"
"4","4","retrieval","old_objects","162","Stick_Stirring.jpg","36","1","1325"
"4","4","retrieval","new_objects","163","PaperShredder.jpg","37","1","975"
"4","4","retrieval","new_objects","164","Golf_Club.jpg","37","1","894"
"4","4","retrieval","new_objects","165","Teapot.jpg","37","1","896"
"4","4","retrieval","new_objects","166","Mask_African.jpg","37","1","651"
"4","4","retrieval","new_objects","167","RamAnimal.jpg","37","1","790"
"4","4","retrieval","new_objects","168","Egg_Chocolate.jpg","37","1","717"
"4","4","retrieval","new_objects","169","Mug_Ceramic.jpg","37","1","670"
"4","4","retrieval","new_objects","170","Card_TwoSpade.jpg","37","1","665"
"4","4","retrieval","new_objects","171","Lettuce_Romaine.jpg","37","1","701"
"4","4","retrieval","new_objects","172","Hulahoop.jpg","37","1","767"
"4","4","retrieval","old_objects","173","PencilSharpener.jpg","36","1","862"
"4","4","retrieval","old_objects","174","Cord_Ethernet.jpg","36","1","642"
"4","4","retrieval","new_objects","175","Noisemaker.jpg","37","1","671"
"4","4","retrieval","old_objects","176","Fence_Wooden.jpg","36","1","634"
"4","4","retrieval","old_objects","177","Phone_Flip.jpg","36","1","774"
"4","4","retrieval","new_objects","178","BicycleHandleGrip.jpg","37","1","702"
"4","4","retrieval","old_objects","179","Bowl_Cereal.jpg","36","1","992"
"4","4","retrieval","new_objects","180","GuineaPig.jpg","37","1","831"
"4","4","retrieval","old_objects","181","Origami_Boat.jpg","36","1","1020"
"4","4","retrieval","old_objects","182","Barbecue_Charcoal.jpg","36","1","745"
"4","4","retrieval","new_objects","184","Statue_Man.jpg","37","1","894"
"4","4","retrieval","new_objects","185","Bird_Duck.jpg","37","1","794"
"4","4","retrieval","new_objects","186","OrigamiPaper.jpg","37","1","576"
"4","4","retrieval","old_objects","187","Tube.jpg","36","1","951"
"4","4","retrieval","old_objects","188","Mask_CPR.jpg","36","1","719"
"4","4","retrieval","new_objects","189","Exercise_Bike.jpg","37","1","809"
"4","4","retrieval","old_objects","190","Car_Buggy.jpg","36","1","711"
"4","4","retrieval","old_objects","191","CoffeeGrinder.jpg","36","1","665"
"4","4","retrieval","new_objects","192","RibbonSpool.jpg","36","0","1060"
"4","4","retrieval","old_objects","193","Generator.jpg","36","1","777"
"4","4","retrieval","old_objects","194","Grape.jpg","36","1","1047"
"4","4","retrieval","old_objects","195","Candy_Caramel.jpg","36","1","564"
"4","4","retrieval","old_objects","196","Toy_SandRake.jpg","36","1","756"
"4","4","retrieval","old_objects","197","ShowerCap.jpg","36","1","1033"
"4","4","retrieval","new_objects","198","Basket_Straw.jpg","37","1","777"
"4","4","retrieval","new_objects","199","Instrument_Nyckelharpa.jpg","37","1","776"
"4","4","retrieval","new_objects","200","Brush_Toilet.jpg","37","1","967"
"4","4","retrieval","old_objects","201","AirPump.jpg","36","1","767"
"4","4","retrieval","old_objects","202","Cork.jpg","36","1","854"
"4","4","retrieval","old_objects","203","Jars_PetFood.jpg","36","1","754"
"4","4","retrieval","old_objects","204","Balcony.jpg","36","1","730"
"4","4","retrieval","new_objects","205","Pliers_NeedleNose.jpg","37","1","803"
"4","4","retrieval","old_objects","206","Mitt_Blue.jpg","36","1","1161"
"4","4","retrieval","old_objects","207","Comb_1.jpg","36","1","721"
"4","4","retrieval","new_objects","208","Hourglass.jpg","37","1","867"
"4","4","retrieval","old_objects","209","Thermostat_Digital.jpg","36","1","856"
"4","4","retrieval","new_objects","210","Syringe_Needle.jpg","37","1","970"
"4","4","retrieval","new_objects","211","Goose_Canadian.jpg","37","1","609"
"4","4","retrieval","old_objects","212","Monitor.jpg","36","1","824"
"4","4","retrieval","new_objects","213","Pasta_Fettuccine.jpg","36","0","1108"
"4","4","retrieval","new_objects","214","Bat_Cricket.jpg","37","1","1119"
"4","4","retrieval","new_objects","215","OnionRings.jpg","37","1","895"
"4","4","retrieval","old_objects","216","Spoon_WoodenLight.jpg","36","1","690"
"4","4","retrieval","old_objects","217","Drink_Green.jpg","36","1","1085"
"4","4","retrieval","old_objects","218","Chair_Deck.jpg","37","0","1057"
"4","4","retrieval","old_objects","219","Lantern_TeaBox.jpg","37","0","947"
"4","4","retrieval","new_objects","220","Toy_Drill.jpg","36","0","963"
"4","4","retrieval","old_objects","221","Mallet.jpg","37","0","827"
"4","4","retrieval","new_objects","222","ComputerMouse.jpg","37","1","1056"
"4","4","retrieval","new_objects","223","Pliers_SlipJoint.jpg","37","1","1557"
"4","4","retrieval","new_objects","224","Pipe_Pitch.jpg","37","1","829"
"4","4","retrieval","new_objects","225","GingerbreadMan.jpg","37","1","777"
"4","4","retrieval","old_objects","226","Ball_8.jpg","36","1","657"
"4","4","retrieval","new_objects","227","Doll_Rag.jpg","37","1","804"
"4","4","retrieval","new_objects","228","Stepper.jpg","37","1","996"
"4","4","retrieval","new_objects","229","ServiceBell.jpg","37","1","801"
"4","4","retrieval","old_objects","230","Beaker.jpg","36","1","758"
"4","4","retrieval","old_objects","231","Exercise_HandTrainer.jpg","37","0","1063"
"4","4","retrieval","old_objects","232","Leg.jpg","36","1","887"
"4","4","retrieval","old_objects","233","Fridge.jpg","36","1","660"
"4","4","retrieval","new_objects","234","DrinkShaker.jpg","37","1","897"
"4","4","retrieval","old_objects","235","Nail.jpg","36","1","981"
"4","4","retrieval","old_objects","236","Hand.jpg","37","0","930"
"4","4","retrieval","new_objects","237","Strainer_Tea.jpg","37","1","1211"
"4","4","retrieval","old_objects","238","Deodorant.jpg","36","1","1112"
"4","4","retrieval","new_objects","239","Crossbow.jpg","37","1","1258"
"4","4","retrieval","old_objects","240","Bird_Eagle.jpg","36","1","901"
"4","4","retrieval","new_objects","241","Clock_Radioalarm.jpg","37","1","1375"
"4","4","retrieval","old_objects","242","Apple_RedAndGreen.jpg","36","1","1199"
"4","4","retrieval","new_objects","243","NeedlesAcupuncture.jpg","36","0","885"
"4","4","retrieval","new_objects","245","Frame_Oval.jpg","37","1","801"
"4","4","retrieval","old_objects","246","Escalator.jpg","36","1","888"
"4","4","retrieval","new_objects","247","Snorkle.jpg","37","1","1017"
"4","4","retrieval","old_objects","248","RAMchip.jpg","36","1","1079"
"4","4","retrieval","old_objects","249","Toy_Alien.jpg","36","1","682"
"4","4","retrieval","old_objects","250","Bus_DoubleDecker.jpg","36","1","821"
"4","4","retrieval","new_objects","251","Wire_Soldering.jpg","36","0","970"
"4","4","retrieval","new_objects","252","Thumbtack.jpg","37","1","905"
"4","4","retrieval","new_objects","253","Pepperoni.jpg","37","1","643"
"4","4","retrieval","new_objects","254","Horn_Hunting.jpg","37","1","632"
"4","4","retrieval","new_objects","255","Carousel copy.jpg","37","1","1117"
"4","4","retrieval","old_objects","256","Walker_Blue.jpg","36","1","854"
"4","4","retrieval","new_objects","257","Nuts_Peanuts.jpg","37","1","987"
"4","4","retrieval","old_objects","258","FileDivider.jpg","36","1","977"
"4","4","retrieval","new_objects","259","Abacus.jpg","37","1","991"
"4","4","retrieval","old_objects","260","Seahorse.jpg","36","1","846"
"4","4","retrieval","old_objects","261","Helmet_Soldier.jpg","36","1","675"
"4","4","retrieval","old_objects","262","Shark_GreatWhite.jpg","36","1","662"
"4","4","retrieval","old_objects","263","Can_Olives.jpg","36","1","874"
"4","4","retrieval","new_objects","264","Centrifuge.jpg","37","1","1165"
"4","4","retrieval","new_objects","265","BearPolar.jpg","37","1","932"
"4","4","retrieval","new_objects","266","Pillar.jpg","37","1","957"
"4","4","retrieval","old_objects","267","Ladybug.jpg","37","0","565"
"4","4","retrieval","old_objects","268","Pretzel_Knot.jpg","36","1","1061"
"4","4","retrieval","old_objects","269","Acorn.jpg","37","0","1409"
"4","4","retrieval","new_objects","270","Cannon.jpg","37","1","999"
"4","4","retrieval","old_objects","271","Chair_Office.jpg","36","1","884"
"4","4","retrieval","new_objects","272","Fuse.jpg","37","1","1489"
"4","4","retrieval","old_objects","273","Pasta_Spaghetti.jpg","37","0","1418"
"4","4","retrieval","new_objects","274","TreeHouse.jpg","37","1","1200"
"4","4","retrieval","new_objects","275","Squid_Pink.jpg","37","1","958"
"4","4","retrieval","new_objects","276","Bat_Baseball.jpg","37","1","669"
"4","4","retrieval","new_objects","277","Ashtray_Empty.jpg","37","1","634"
"4","4","retrieval","old_objects","278","Shoes_Sneakers.jpg","36","1","789"
"4","4","retrieval","old_objects","279","Sushi.jpg","36","1","691"
"4","4","retrieval","new_objects","280","Bottle_Oil.jpg","37","1","758"
"4","4","retrieval","new_objects","281","Toy_Shark.jpg","37","1","1398"
"4","4","retrieval","old_objects","282","Dynamite.jpg","37","0","796"
"4","4","retrieval","new_objects","283","Truck_Box.jpg","37","1","907"
"4","4","retrieval","new_objects","284","Tap.jpg","37","1","853"
"4","4","retrieval","old_objects","285","Lunchbox.jpg","36","1","729"
"4","4","retrieval","new_objects","286","Statue_Horse.jpg","37","1","722"
"4","4","retrieval","new_objects","287","Backpack_Suitcase.jpg","37","1","843"
"4","4","retrieval","new_objects","288","Pasta_Penne.jpg","37","1","1576"
"4","4","retrieval","new_objects","289","Bag_Saline.jpg","37","1","1063"
"4","4","retrieval","new_objects","290","Castle_Model.jpg","37","1","683"
"4","4","retrieval","new_objects","291","Grenade.jpg","37","1","637"
"4","4","retrieval","new_objects","292","Cannister_GasVintage.jpg","37","1","626"
"4","4","retrieval","old_objects","293","Sand.jpg","36","1","911"
"4","4","retrieval","new_objects","294","Honeydew_Green.jpg","37","1","761"
"4","4","retrieval","old_objects","295","ColumnMarble.jpg","36","1","857"
"4","4","retrieval","old_objects","296","Shoe_WomenHeals.jpg","36","1","701"
"4","4","retrieval","new_objects","297","Mug_Beer.jpg","37","1","878"
"4","4","retrieval","old_objects","298","Sign_Washroom.jpg","36","1","786"
"4","4","retrieval","new_objects","299","Chainsaw.jpg","37","1","905"
"4","4","retrieval","old_objects","300","Pot_FlowerClay.jpg","36","1","1011"
"4","4","retrieval","new_objects","301","FuseBox.jpg","37","1","1232"
"4","4","retrieval","old_objects","302","Stone_Mill.jpg","36","1","868"
"4","4","retrieval","new_objects","303","Can_Milk.jpg","37","1","832"
"4","4","retrieval","old_objects","304","SofaAntique.jpg","36","1","997"
"4","4","retrieval","new_objects","306","Chair_Barber.jpg","37","1","1247"
"4","4","retrieval","old_objects","307","BumperCar.jpg","36","1","861"
"4","4","retrieval","new_objects","308","PatioHeater.jpg","37","1","887"
"4","4","retrieval","old_objects","309","CasketOpen.jpg","36","1","843"
"4","4","retrieval","old_objects","310","Brace_Back.jpg","36","1","991"
"4","4","retrieval","old_objects","311","Bird_Cardinal.jpg","36","1","781"
"4","4","retrieval","new_objects","312","PlayerFootball.jpg","37","1","692"
"4","4","retrieval","old_objects","313","Truck_VintageBlue.jpg","36","1","687"
"4","4","retrieval","old_objects","314","RecordPlayer.jpg","36","1","809"
"4","4","retrieval","old_objects","315","Slippers.jpg","36","1","1031"
"4","4","retrieval","old_objects","316","Exercise_Stretch.jpg","36","1","1293"
"4","4","retrieval","new_objects","317","Candy_GummyBear.jpg","37","1","943"
"4","4","retrieval","new_objects","318","Tray_Metal.jpg","37","1","864"
"4","4","retrieval","new_objects","319","Megaphone.jpg","37","1","715"
"4","4","retrieval","new_objects","320","Barometer.jpg","37","1","614"
"4","4","retrieval","new_objects","321","Scorpion.jpg","37","1","658"
"4","4","retrieval","old_objects","322","Plate_Ceramic.jpg","37","0","766"
"4","4","retrieval","old_objects","323","Boar.jpg","36","1","861"
"4","4","retrieval","old_objects","324","Light_Fixtures.jpg","36","1","771"
"4","4","retrieval","old_objects","325","ProcessorFood_Old.jpg","36","1","641"
"4","4","retrieval","new_objects","326","Hoverboard.jpg","36","0","1063"
"4","4","retrieval","old_objects","327","Stamper.jpg","36","1","1049"
"4","4","retrieval","new_objects","328","SolderingIron.jpg","37","1","846"
"4","4","retrieval","new_objects","329","BoxTrailer.jpg","37","1","673"
"4","4","retrieval","new_objects","330","MeterElectric.jpg","37","1","772"
"4","4","retrieval","new_objects","331","Shorts_Plaid.jpg","37","1","875"
"4","4","retrieval","old_objects","332","BrainSagittal.jpg","36","1","775"
"4","4","retrieval","old_objects","333","Sign_Parking.jpg","36","1","622"
"4","4","retrieval","old_objects","334","SoundMixer_White.jpg","36","1","787"
"4","4","retrieval","old_objects","335","Kebab_Meat.jpg","36","1","690"
"4","4","retrieval","new_objects","336","Playard.jpg","37","1","781"
"4","4","retrieval","old_objects","337","Cucumber.jpg","36","1","933"
"4","4","retrieval","old_objects","338","Chopsticks.jpg","36","1","805"
"4","4","retrieval","old_objects","339","Truck_Pickup.jpg","36","1","692"
"4","4","retrieval","old_objects","340","Bird_Peacock.jpg","36","1","733"
"4","4","retrieval","new_objects","341","Boot_Rain.jpg","37","1","790"
"4","4","retrieval","old_objects","342","Towel.jpg","36","1","1045"
"4","4","retrieval","new_objects","343","Camera_ProfessionalFilm.jpg","37","1","1306"
"4","4","retrieval","new_objects","344","Tiara.jpg","37","1","1034"
"4","4","retrieval","new_objects","345","Toy_RaceTrack.jpg","37","1","928"
"4","4","retrieval","old_objects","346","Cart_Wooden.jpg","36","1","777"
"4","4","retrieval","new_objects","347","Potato.jpg","37","1","954"
"4","4","retrieval","new_objects","348","StreetSweeper.jpg","37","1","1000"
"4","4","retrieval","old_objects","349","Mask_Masquerade.jpg","36","1","934"
"4","4","retrieval","new_objects","350","DiaperChangingStation.jpg","36","0","1048"
"4","4","retrieval","new_objects","351","Tortilla.jpg","37","1","1139"
"4","4","retrieval","new_objects","352","Microscope.jpg","37","1","811"
"4","4","retrieval","new_objects","353","PowderProtein.jpg","37","1","745"
"4","4","retrieval","old_objects","354","TeethMould.jpg","36","1","1329"
"4","4","retrieval","old_objects","355","Bible.jpg","36","1","715"
"4","4","demographics_block","gender","1","Bible.jpg","Male","1","14635"
"4","4","demographics_block","age","1","Bible.jpg","53","1","14635"
"4","4","demographics_block","education","1","Bible.jpg","14","1","14635"
"4","4","demographics_block","left_right_handed","2","Bible.jpg","Right","1","6200"
"4","4","demographics_block","raceoption1","2","Bible.jpg","0","1","6200"
"4","4","demographics_block","raceoption2","2","Bible.jpg","","1","6200"
"4","4","demographics_block","raceoption3","2","Bible.jpg","","1","6200"
"4","4","demographics_block","raceoption4","2","Bible.jpg","","1","6200"
"4","4","demographics_block","raceoption5","2","Bible.jpg","","1","6200"
"4","4","demographics_block","raceoption6","2","Bible.jpg","","1","6200"
"4","4","demographics_block","raceoption7","2","Bible.jpg","","1","6200"
"4","4","demographics_block","raceoption8","2","Bible.jpg","","1","6200"
"4","4","demographics_block","raceoption9","2","Bible.jpg","","1","6200"
"4","4","demographics_block","raceother","2","Bible.jpg","","1","6200"
"4","4","demographics_block","raceother","2","Bible.jpg","","1","6200"
"4","4","demographics_block","english_language","2","Bible.jpg","Yes","1","6200"
"4","4","demographics_block","english_languageother","2","Bible.jpg","","1","6200"
"4","4","demographics_block","eyesight","3","Bible.jpg","Yes","1","5771"
"4","4","demographics_block","colorblind","3","Bible.jpg","No","1","5771"
"4","4","worker_id_block","worker_id_textbox","1","Bible.jpg","A1ZE87WEYCA44A","1","113467"
"9","9","encoding","encoding","1","Bellows.jpg","36","0","1911"
"9","9","encoding","encoding","2","Bread_Loaf.jpg","37","0","955"
"9","9","encoding","encoding","3","Candy_Caramel.jpg","36","0","920"
"9","9","encoding","encoding","4","Pot_CastIron.jpg","36","0","1046"
"9","9","encoding","encoding","5","EyeExamDevice.jpg","36","0","1267"
"9","9","encoding","encoding","6","Ball_Disco.jpg","36","0","1073"
"9","9","encoding","encoding","7","Toy_DonkeyFur.jpg","36","0","846"
"9","9","encoding","encoding","8","PencilSharpener.jpg","37","0","1267"
"9","9","encoding","encoding","9","Cart_Wooden.jpg","36","0","865"
"9","9","encoding","encoding","10","BrainSagittal.jpg","37","0","1446"
"9","9","encoding","encoding","11","Bowl_Cereal.jpg","37","0","1251"
"9","9","encoding","encoding","12","Bread_Roll.jpg","37","0","961"
"9","9","encoding","encoding","13","Acorn.jpg","37","0","1086"
"9","9","encoding","encoding","14","Jars_PetFood.jpg","36","0","1243"
"9","9","encoding","encoding","15","Stamper.jpg","36","0","1576"
"9","9","encoding","encoding","16","Kebab_Meat.jpg","37","0","1277"
"9","9","encoding","encoding","17","Truck_Pickup.jpg","36","0","866"
"9","9","encoding","encoding","18","Dynamite.jpg","36","0","1072"
"9","9","encoding","encoding","19","Pretzel_Knot.jpg","37","0","1069"
"9","9","encoding","encoding","20","Box_Present.jpg","36","0","1091"
"9","9","encoding","encoding","21","Chair_Airplane.jpg","37","0","1512"
"9","9","encoding","encoding","22","DoorBell.jpg","37","0","1406"
"9","9","encoding","encoding","23","Shoe_WomenHeals.jpg","37","0","1147"
"9","9","encoding","encoding","24","Pasta_Macaroni.jpg","37","0","936"
"9","9","encoding","encoding","25","Thermos_MetalSleek.jpg","36","0","1541"
"9","9","encoding","encoding","26","DogTreat.jpg","37","0","1138"
"9","9","encoding","encoding","27","ProcessorFood_Old.jpg","36","0","927"
"9","9","encoding","encoding","28","Brush_Shoe.jpg","37","0","1205"
"9","9","encoding","encoding","29","Cannister_Gas.jpg","36","0","930"
"9","9","encoding","encoding","30","SofaAntique.jpg","36","0","864"
"9","9","encoding","encoding","31","HairClip.jpg","37","0","1110"
"9","9","encoding","encoding","32","Plate_Decorative.jpg","37","0","1099"
"9","9","encoding","encoding","33","CDstack.jpg","36","0","1057"
"9","9","encoding","encoding","34","Sign_Washroom.jpg","36","0","1496"
"9","9","encoding","encoding","35","CasketOpen.jpg","36","0","915"
"9","9","encoding","encoding","36","Mirror_Carside.jpg","37","0","1361"
"9","9","encoding","encoding","37","Booties_Blue.jpg","37","0","1143"
"9","9","encoding","encoding","38","SelfieStick.jpg","0","0","2000"
"9","9","encoding","encoding","39","RickShaw.jpg","36","0","785"
"9","9","encoding","encoding","40","Peach.jpg","37","0","943"
"9","9","encoding","encoding","41","BakingDish.jpg","37","0","725"
"9","9","encoding","encoding","42","Cinnamonroll.jpg","37","0","650"
"9","9","encoding","encoding","43","Igloo.jpg","36","0","927"
"9","9","encoding","encoding","44","Balcony.jpg","36","0","668"
"9","9","encoding","encoding","45","Mallet.jpg","37","0","1153"
"9","9","encoding","encoding","46","TeethMould.jpg","37","0","807"
"9","9","encoding","encoding","47","Toy_Alien.jpg","37","0","924"
"9","9","encoding","encoding","48","Bus_DoubleDecker.jpg","36","0","641"
"9","9","encoding","encoding","49","Purse.jpg","36","0","1238"
"9","9","encoding","encoding","50","Truck_VintageBlue.jpg","36","0","627"
"9","9","encoding","encoding","51","Phone_Flip.jpg","37","0","880"
"9","9","encoding","encoding","52","Sign_Parking.jpg","36","0","1230"
"9","9","encoding","encoding","53","Seahorse.jpg","37","0","940"
"9","9","encoding","encoding","54","Ladybug.jpg","37","0","801"
"9","9","encoding","encoding","55","Lantern_TeaBox.jpg","36","0","1277"
"9","9","encoding","encoding","56","Boar.jpg","36","0","826"
"9","9","encoding","encoding","57","Pepper_Chili.jpg","37","0","824"
"9","9","encoding","encoding","58","Sushi.jpg","37","0","821"
"9","9","encoding","encoding","59","Exercise_HandTrainer.jpg","37","0","1042"
"9","9","encoding","encoding","60","Escalator.jpg","36","0","735"
"9","9","encoding","encoding","62","Candy_Toffee.jpg","37","0","912"
"9","9","encoding","encoding","63","RecordPlayer.jpg","37","0","1149"
"9","9","encoding","encoding","64","Bird_Cardinal.jpg","37","0","818"
"9","9","encoding","encoding","65","AirPump.jpg","37","0","1079"
"9","9","encoding","encoding","66","ContactLens.jpg","37","0","844"
"9","9","encoding","encoding","67","Thermostat_Digital.jpg","37","0","1152"
"9","9","encoding","encoding","68","Drill.jpg","37","0","1037"
"9","9","encoding","encoding","69","FileDivider.jpg","37","0","930"
"9","9","encoding","encoding","70","Ball_8.jpg","37","0","1025"
"9","9","encoding","encoding","71","Beaker.jpg","37","0","1006"
"9","9","encoding","encoding","72","Shark_GreatWhite.jpg","36","0","1027"
"9","9","encoding","encoding","73","Nail.jpg","37","0","1025"
"9","9","encoding","encoding","74","Stone_Mill.jpg","37","0","1213"
"9","9","encoding","encoding","75","Tube.jpg","36","0","955"
"9","9","encoding","encoding","76","Towel.jpg","36","0","999"
"9","9","encoding","encoding","77","Cauliflower.jpg","37","0","989"
"9","9","encoding","encoding","78","Loofa.jpg","37","0","883"
"9","9","encoding","encoding","79","ColumnMarble.jpg","36","0","1112"
"9","9","encoding","encoding","80","Box_Staples.jpg","37","0","1014"
"9","9","encoding","encoding","81","Sand.jpg","37","0","956"
"9","9","encoding","encoding","82","SoundMixer_White.jpg","36","0","914"
"9","9","encoding","encoding","83","Bird_Peacock.jpg","36","0","903"
"9","9","encoding","encoding","84","Jacket_Suit.jpg","36","0","1061"
"9","9","encoding","encoding","85","Mask_Masquerade.jpg","37","0","986"
"9","9","encoding","encoding","86","Lunchbox.jpg","36","0","1448"
"9","9","encoding","encoding","87","Boardgame_Chess.jpg","36","0","1525"
"9","9","encoding","encoding","88","Pasta_Fusilli.jpg","37","0","858"
"9","9","encoding","encoding","89","OnionRed.jpg","37","0","911"
"9","9","encoding","encoding","90","Toy_Top.jpg","37","0","1204"
"9","9","encoding","encoding","91","Bible.jpg","37","0","890"
"9","9","encoding","encoding","92","Clave.jpg","37","0","736"
"9","9","encoding","encoding","93","Apple_RedAndGreen.jpg","37","0","757"
"9","9","encoding","encoding","94","Fence_Wooden.jpg","36","0","978"
"9","9","encoding","encoding","95","Chair_Office.jpg","36","0","695"
"9","9","encoding","encoding","96","Car_Buggy.jpg","36","0","692"
"9","9","encoding","encoding","97","Helmet_Soldier.jpg","37","0","1033"
"9","9","encoding","encoding","98","ChewingGum.jpg","37","0","926"
"9","9","encoding","encoding","99","Pasta_Spaghetti.jpg","37","0","675"
"9","9","encoding","encoding","100","Cabinet_Display.jpg","36","0","617"
"9","9","encoding","encoding","101","Comb_1.jpg","37","0","782"
"9","9","encoding","encoding","102","Monitor.jpg","36","0","810"
"9","9","encoding","encoding","103","Hottub.jpg","36","0","760"
"9","9","encoding","encoding","104","Tomato.jpg","37","0","789"
"9","9","encoding","encoding","105","DartBoard.jpg","37","0","1218"
"9","9","encoding","encoding","106","DoubleBass.jpg","36","0","1031"
"9","9","encoding","encoding","107","Machine_EKG.jpg","36","0","949"
"9","9","encoding","encoding","108","Lantern_Tea.jpg","36","0","1115"
"9","9","encoding","encoding","109","Canteen.jpg","36","0","1040"
"9","9","encoding","encoding","110","ComputerKeyboard_Backspace.jpg","37","0","1046"
"9","9","encoding","encoding","111","Slippers.jpg","37","0","907"
"9","9","encoding","encoding","112","RAMchip.jpg","37","0","1033"
"9","9","encoding","encoding","113","CodeDoorLock.jpg","36","0","854"
"9","9","encoding","encoding","114","Toy_SandRake.jpg","37","0","827"
"9","9","encoding","encoding","115","Shoes_Sneakers.jpg","37","0","864"
"9","9","encoding","encoding","116","Mitt_Blue.jpg","37","0","806"
"9","9","encoding","encoding","117","Keys_Bunch.jpg","37","0","739"
"9","9","encoding","encoding","118","Toy_PoliceCar.jpg","36","0","641"
"9","9","encoding","encoding","119","Chopsticks.jpg","37","0","710"
"9","9","encoding","encoding","120","Cucumber.jpg","37","0","556"
"9","9","encoding","encoding","121","Drink_Green.jpg","37","0","769"
"9","9","encoding","encoding","123","Grape.jpg","37","0","642"
"9","9","encoding","encoding","124","Bird_Eagle.jpg","36","0","663"
"9","9","encoding","encoding","125","Flask_Metal.jpg","36","0","613"
"9","9","encoding","encoding","126","ShowerCap.jpg","37","0","754"
"9","9","encoding","encoding","127","Pot_FlowerClay.jpg","36","0","695"
"9","9","encoding","encoding","128","Light_Fixtures.jpg","36","0","709"
"9","9","encoding","encoding","129","Shoes_WomenBoots.jpg","37","0","706"
"9","9","encoding","encoding","130","Pants_Jeans.jpg","37","0","1119"
"9","9","encoding","encoding","131","IceCream_Popsicle.jpg","37","0","805"
"9","9","encoding","encoding","132","Cord_Ethernet.jpg","37","0","754"
"9","9","encoding","encoding","133","Generator.jpg","36","0","687"
"9","9","encoding","encoding","134","BumperCar.jpg","36","0","868"
"9","9","encoding","encoding","135","Milkshake_StrawberryStraw.jpg","37","0","761"
"9","9","encoding","encoding","136","Chair_Deck.jpg","36","0","758"
"9","9","encoding","encoding","137","Brush_BathBack.jpg","37","0","780"
"9","9","encoding","encoding","138","Brace_Back.jpg","37","0","769"
"9","9","encoding","encoding","139","Origami_Boat.jpg","37","0","742"
"9","9","encoding","encoding","140","Toy_JackInTheBox.jpg","36","0","715"
"9","9","encoding","encoding","141","Bottle_Beer.jpg","36","0","921"
"9","9","encoding","encoding","142","Defribrillator.jpg","37","0","1294"
"9","9","encoding","encoding","143","Stick_Drum.jpg","37","0","812"
"9","9","encoding","encoding","144","CarJack.jpg","36","0","849"
"9","9","encoding","encoding","145","Panda.jpg","36","0","654"
"9","9","encoding","encoding","146","CapGraduation.jpg","36","0","1098"
"9","9","encoding","encoding","147","Cork.jpg","36","0","1047"
"9","9","encoding","encoding","148","Domino.jpg","37","0","1244"
"9","9","encoding","encoding","149","Glass_Martini.jpg","37","0","1057"
"9","9","encoding","encoding","150","sign_traffic.jpg","36","0","1198"
"9","9","encoding","encoding","151","Walker_Blue.jpg","36","0","771"
"9","9","encoding","encoding","152","Printer.jpg","36","0","768"
"9","9","encoding","encoding","153","Cane_Wooden.jpg","37","0","949"
"9","9","encoding","encoding","154","Mask_CPR.jpg","37","0","986"
"9","9","encoding","encoding","155","Barbecue_Charcoal.jpg","36","0","687"
"9","9","encoding","encoding","156","PeasSplit.jpg","37","0","797"
"9","9","encoding","encoding","157","Ambulance.jpg","36","0","586"
"9","9","encoding","encoding","158","Deodorant.jpg","36","0","751"
"9","9","encoding","encoding","159","Spoon_WoodenLight.jpg","36","0","964"
"9","9","encoding","encoding","160","Hand.jpg","37","0","938"
"9","9","encoding","encoding","161","Sculpture_MetalMan.jpg","36","0","775"
"9","9","encoding","encoding","162","Mask_HockeyGoalie.jpg","36","0","700"
"9","9","encoding","encoding","163","Plate_Ceramic.jpg","37","0","778"
"9","9","encoding","encoding","164","AngleGrinder.jpg","37","0","894"
"9","9","encoding","encoding","165","Fridge.jpg","36","0","619"
"9","9","encoding","encoding","166","Leg.jpg","36","0","1041"
"9","9","encoding","encoding","167","Exercise_Stretch.jpg","36","0","967"
"9","9","encoding","encoding","168","Can_Olives.jpg","36","0","996"
"9","9","encoding","encoding","169","Cup_Styrofoam.jpg","36","0","832"
"9","9","encoding","encoding","170","LintRemover.jpg","37","0","765"
"9","9","encoding","encoding","171","Heelpad.jpg","37","0","730"
"9","9","encoding","encoding","172","Mat_Door.jpg","37","0","823"
"9","9","encoding","encoding","173","Notepad_WithPen.jpg","37","0","876"
"9","9","encoding","encoding","174","Stick_Stirring.jpg","36","0","817"
"9","9","encoding","encoding","175","Fryingpan.jpg","36","0","1150"
"9","9","encoding","encoding","176","CoffeeGrinder.jpg","36","0","819"
"9","9","encoding","encoding","177","Outhouse.jpg","36","0","681"
"9","9","retrieval","new_objects","1","Fuse.jpg","37","1","821"
"9","9","retrieval","old_objects","2","Apple_RedAndGreen.jpg","36","1","661"
"9","9","retrieval","new_objects","3","TestTube_MultipleAndRack.jpg","37","1","755"
"9","9","retrieval","old_objects","4","LintRemover.jpg","36","1","654"
"9","9","retrieval","new_objects","5","Statue_Man.jpg","37","1","717"
"9","9","retrieval","new_objects","6","Carbiner_Ascender.jpg","37","1","840"
"9","9","retrieval","old_objects","7","Pasta_Macaroni.jpg","36","1","640"
"9","9","retrieval","old_objects","8","BrainSagittal.jpg","36","1","655"
"9","9","retrieval","old_objects","9","Mask_HockeyGoalie.jpg","36","1","550"
"9","9","retrieval","old_objects","10","Brush_BathBack.jpg","37","0","746"
"9","9","retrieval","old_objects","11","Barbecue_Charcoal.jpg","36","1","686"
"9","9","retrieval","old_objects","12","Candy_Toffee.jpg","36","1","555"
"9","9","retrieval","old_objects","13","Toy_Top.jpg","37","0","718"
"9","9","retrieval","old_objects","14","Truck_Pickup.jpg","37","0","699"
"9","9","retrieval","new_objects","15","NeedlesAcupuncture.jpg","37","1","815"
"9","9","retrieval","old_objects","16","Booties_Blue.jpg","37","0","919"
"9","9","retrieval","old_objects","17","Towel.jpg","36","1","603"
"9","9","retrieval","new_objects","18","Tray_Metal.jpg","37","1","684"
"9","9","retrieval","old_objects","19","ProcessorFood_Old.jpg","36","1","537"
"9","9","retrieval","new_objects","20","Archery_ArrowsBows.jpg","36","0","648"
"9","9","retrieval","old_objects","21","Escalator.jpg","36","1","612"
"9","9","retrieval","new_objects","22","Nametag.jpg","37","1","741"
"9","9","retrieval","old_objects","23","Leg.jpg","36","1","592"
"9","9","retrieval","old_objects","24","Light_Fixtures.jpg","36","1","594"
"9","9","retrieval","old_objects","25","Mask_CPR.jpg","36","1","652"
"9","9","retrieval","new_objects","26","Camera_ProfessionalFilm.jpg","37","1","730"
"9","9","retrieval","new_objects","27","Stapler_Regular.jpg","37","1","790"
"9","9","retrieval","old_objects","28","DartBoard.jpg","36","1","663"
"9","9","retrieval","old_objects","29","Mask_Masquerade.jpg","36","1","534"
"9","9","retrieval","old_objects","30","Bread_Roll.jpg","36","1","553"
"9","9","retrieval","old_objects","31","Brush_Shoe.jpg","36","1","517"
"9","9","retrieval","old_objects","32","Plate_Decorative.jpg","36","1","513"
"9","9","retrieval","new_objects","33","MusicSheet.jpg","37","1","574"
"9","9","retrieval","old_objects","34","FileDivider.jpg","36","1","649"
"9","9","retrieval","old_objects","35","Stick_Stirring.jpg","36","1","592"
"9","9","retrieval","old_objects","36","Toy_Alien.jpg","37","0","594"
"9","9","retrieval","new_objects","37","BicycleHandleGrip.jpg","37","1","691"
"9","9","retrieval","old_objects","38","Ball_Disco.jpg","37","0","665"
"9","9","retrieval","old_objects","39","Acorn.jpg","37","0","760"
"9","9","retrieval","old_objects","40","Stick_Drum.jpg","36","1","667"
"9","9","retrieval","old_objects","41","HairClip.jpg","36","1","729"
"9","9","retrieval","old_objects","42","Origami_Boat.jpg","36","1","661"
"9","9","retrieval","old_objects","43","BumperCar.jpg","36","1","740"
"9","9","retrieval","new_objects","44","Flamingo_Real.jpg","36","0","759"
"9","9","retrieval","new_objects","45","DentalFloss.jpg","37","1","737"
"9","9","retrieval","old_objects","46","Shoes_Sneakers.jpg","36","1","653"
"9","9","retrieval","old_objects","47","Clave.jpg","37","0","916"
"9","9","retrieval","new_objects","48","Snake_Cobra.jpg","37","1","687"
"9","9","retrieval","new_objects","49","Ashtray_Empty.jpg","36","0","629"
"9","9","retrieval","new_objects","50","Can_Milk.jpg","37","1","604"
"9","9","retrieval","new_objects","51","Makeup_Compact.jpg","37","1","637"
"9","9","retrieval","new_objects","52","Crib_Standard.jpg","37","1","645"
"9","9","retrieval","new_objects","53","Hangar.jpg","37","1","732"
"9","9","retrieval","old_objects","54","Fence_Wooden.jpg","36","1","599"
"9","9","retrieval","old_objects","55","Brace_Back.jpg","36","1","561"
"9","9","retrieval","old_objects","56","Ball_8.jpg","36","1","572"
"9","9","retrieval","new_objects","57","ScaleWeighing.jpg","37","1","718"
"9","9","retrieval","new_objects","58","ServiceBell.jpg","36","0","610"
"9","9","retrieval","new_objects","59","ChariotGold.jpg","37","1","794"
"9","9","retrieval","new_objects","60","Ruler_Triangle.jpg","37","1","579"
"9","9","retrieval","new_objects","62","GrillRack.jpg","37","1","628"
"9","9","retrieval","old_objects","63","Peach.jpg","36","1","572"
"9","9","retrieval","new_objects","64","DryingMachine.jpg","37","1","790"
"9","9","retrieval","new_objects","65","Noisemaker.jpg","37","1","687"
"9","9","retrieval","new_objects","66","Doll_Rag.jpg","37","1","589"
"9","9","retrieval","old_objects","67","Pretzel_Knot.jpg","36","1","534"
"9","9","retrieval","new_objects","68","Archery_Arrows.jpg","36","0","602"
"9","9","retrieval","new_objects","69","ProcessorFood_Modern.jpg","36","0","691"
"9","9","retrieval","new_objects","70","Crossbow.jpg","37","1","616"
"9","9","retrieval","new_objects","71","TelescopeSpacecraft.jpg","37","1","657"
"9","9","retrieval","new_objects","72","Centrifuge.jpg","37","1","608"
"9","9","retrieval","old_objects","73","Bellows.jpg","37","0","657"
"9","9","retrieval","new_objects","74","Snorkle.jpg","36","0","544"
"9","9","retrieval","new_objects","75","Bird_Hen.jpg","37","1","587"
"9","9","retrieval","new_objects","76","Thumbtack.jpg","37","1","653"
"9","9","retrieval","new_objects","77","RollingPin.jpg","37","1","748"
"9","9","retrieval","new_objects","78","Squid_Pink.jpg","37","1","622"
"9","9","retrieval","old_objects","79","SoundMixer_White.jpg","37","0","630"
"9","9","retrieval","new_objects","80","Bottle_Oil.jpg","37","1","574"
"9","9","retrieval","new_objects","81","Pipe_Pitch.jpg","37","1","656"
"9","9","retrieval","old_objects","82","Tomato.jpg","36","1","495"
"9","9","retrieval","old_objects","83","Seahorse.jpg","36","1","486"
"9","9","retrieval","new_objects","84","PaintBrushAndPallette.jpg","36","0","628"
"9","9","retrieval","old_objects","85","Purse.jpg","36","1","644"
"9","9","retrieval","new_objects","86","ComputerMouse.jpg","37","1","587"
"9","9","retrieval","old_objects","87","IceCream_Popsicle.jpg","36","1","694"
"9","9","retrieval","new_objects","88","Broom_Short.jpg","37","1","682"
"9","9","retrieval","new_objects","89","Hulahoop.jpg","37","1","584"
"9","9","retrieval","old_objects","90","ColumnMarble.jpg","36","1","649"
"9","9","retrieval","old_objects","91","Exercise_Stretch.jpg","36","1","576"
"9","9","retrieval","old_objects","92","Hand.jpg","36","1","499"
"9","9","retrieval","old_objects","93","CapGraduation.jpg","36","1","640"
"9","9","retrieval","new_objects","94","PowderProtein.jpg","36","0","712"
"9","9","retrieval","old_objects","95","Flask_Metal.jpg","37","0","733"
"9","9","retrieval","new_objects","96","BowlingPin.jpg","37","1","601"
"9","9","retrieval","old_objects","97","Drill.jpg","36","1","611"
"9","9","retrieval","old_objects","98","Boar.jpg","36","1","619"
"9","9","retrieval","new_objects","99","Wire_Soldering.jpg","37","1","771"
"9","9","retrieval","old_objects","100","Jacket_Suit.jpg","37","0","661"
"9","9","retrieval","old_objects","101","Toy_DonkeyFur.jpg","37","0","627"
"9","9","retrieval","new_objects","102","MannequinHead.jpg","37","1","684"
"9","9","retrieval","old_objects","103","OnionRed.jpg","36","1","665"
"9","9","retrieval","new_objects","104","Cranberry.jpg","37","1","688"
"9","9","retrieval","new_objects","105","Syringe_Needle.jpg","37","1","589"
"9","9","retrieval","new_objects","106","Mug_Beer.jpg","37","1","679"
"9","9","retrieval","old_objects","107","Cauliflower.jpg","37","0","605"
"9","9","retrieval","new_objects","108","Grenade.jpg","36","0","526"
"9","9","retrieval","old_objects","109","Chair_Airplane.jpg","36","1","746"
