"group","subject","blockcode","trialcode","trialnum","values.stimulus","response","correct","latency"
"1","1","encoding","encoding","1","Stovetop.jpg","0","0","2001"
"1","1","encoding","encoding","2","Crate_Wine.jpg","Ctrl+'B'","1","1724"
"1","1","retrieval","old_objects","1","Stone_AncientWriting.jpg","0","0","2001"
"1","1","retrieval","new_objects","2","HairBand.jpg","0","0","2001"
"1","1","retrieval","new_objects","3","Nuts_Walnut.jpg","Ctrl+'B'","1","355"
"1","1","demographics_block","gender","1","Nuts_Walnut.jpg","","1","1868"
"1","1","demographics_block","age","1","Nuts_Walnut.jpg","","1","1868"
"1","1","demographics_block","education","1","Nuts_Walnut.jpg","","1","1868"
"2","2","encoding","encoding","1","Amp.jpg","36","0","1044"
"2","2","encoding","encoding","2","Glove_Rubber.jpg","37","0","810"
"2","2","encoding","encoding","3","DoorBolt.jpg","37","0","1103"
"2","2","encoding","encoding","4","Tambourine.jpg","37","0","1136"
"2","2","encoding","encoding","5","Scroll.jpg","37","0","1079"
"2","2","encoding","encoding","6","Bowl_Lemons.jpg","37","0","862"
"2","2","encoding","encoding","7","Pacifier.jpg","37","0","561"
"2","2","encoding","encoding","8","Container_RedPlastic.jpg","37","0","1163"
"2","2","encoding","encoding","9","Case_WoodenOrnate.jpg","37","0","1671"
"2","2","encoding","encoding","10","ElasticBand.jpg","37","0","1002"
"2","2","encoding","encoding","11","Platter_Vegetables.jpg","36","0","1481"
"2","2","encoding","encoding","12","Cup_sippy.jpg","37","0","1180"
"2","2","encoding","encoding","13","Ball_Baseball.jpg","37","0","960"
"2","2","encoding","encoding","14","CashRegister_Antique.jpg","36","0","766"
"2","2","encoding","encoding","15","Tape_Washi.jpg","37","0","832"
"2","2","encoding","encoding","16","Compact_Mirror.jpg","37","0","841"
"2","2","encoding","encoding","17","Machine_Bread.jpg","36","0","938"
"2","2","encoding","encoding","18","Clothespin_Red.jpg","37","0","643"
"2","2","encoding","encoding","19","Horseshoe.jpg","37","0","969"
"2","2","encoding","encoding","20","Clip_Binder.jpg","37","0","759"
"2","2","encoding","encoding","21","TimerKitchen.jpg","37","0","730"
"2","2","encoding","encoding","22","PenStand.jpg","37","0","1573"
"2","2","encoding","encoding","23","RecorderInstrument.jpg","36","0","1389"
"2","2","encoding","encoding","24","SeatBuckle.jpg","37","0","714"
"2","2","encoding","encoding","25","Battery_AA.jpg","37","0","609"
"2","2","encoding","encoding","26","Kiwi.jpg","37","0","769"
"2","2","encoding","encoding","27","AirCompressor.jpg","36","0","869"
"2","2","encoding","encoding","28","Mirror_Handheld.jpg","37","0","660"
"2","2","encoding","encoding","29","Fencing_HelmetSwords.jpg","37","0","908"
"2","2","encoding","encoding","30","CigarCase.jpg","37","0","1518"
"2","2","encoding","encoding","31","Gun_Glue.jpg","37","0","857"
"2","2","encoding","encoding","32","Owl.jpg","36","0","914"
"2","2","encoding","encoding","33","Iguana.jpg","36","0","1208"
"2","2","encoding","encoding","34","Speakers_Theatre.jpg","36","0","772"
"2","2","encoding","encoding","35","Toy_Octopus.jpg","37","0","949"
"2","2","encoding","encoding","36","KeyHook_Occupied.jpg","37","0","1463"
"2","2","encoding","encoding","37","Kangaroo.jpg","36","0","898"
"2","2","encoding","encoding","38","Mask_Happy.jpg","37","0","910"
"2","2","encoding","encoding","39","Cooler.jpg","36","0","884"
"2","2","encoding","encoding","40","Crate_Wine.jpg","36","0","1307"
"2","2","encoding","encoding","41","Staircase_Straight.jpg","36","0","1099"
"2","2","encoding","encoding","42","Sieve_SideView.jpg","36","0","1277"
"2","2","encoding","encoding","43","IceCrusher.jpg","36","0","1258"
"2","2","encoding","encoding","44","MechanicalSpring.jpg","36","0","1537"
"2","2","encoding","encoding","45","CoffeePot.jpg","37","0","1277"
"2","2","encoding","encoding","46","Tray_Cafeteria.jpg","37","0","943"
"2","2","encoding","encoding","47","Briefcase_Silver.jpg","37","0","1191"
"2","2","encoding","encoding","48","Phone_Wireless.jpg","37","0","861"
"2","2","encoding","encoding","49","OrangeBlood.jpg","37","0","926"
"2","2","encoding","encoding","50","Toilet.jpg","36","0","1334"
"2","2","encoding","encoding","51","Statue_SouthAmerican.jpg","36","0","1973"
"2","2","encoding","encoding","52","BabyMonitor.jpg","37","0","1681"
"2","2","encoding","encoding","53","Windmill_Building.jpg","0","0","2000"
"2","2","encoding","encoding","54","Colander.jpg","36","0","1179"
"2","2","encoding","encoding","55","Branch.jpg","36","0","1489"
"2","2","encoding","encoding","56","Mailbox_Antique.jpg","36","0","996"
"2","2","encoding","encoding","57","Tweezers.jpg","36","0","1047"
"2","2","encoding","encoding","58","Stove_Portable.jpg","36","0","1462"
"2","2","encoding","encoding","59","Toy_Slide.jpg","36","0","912"
"2","2","encoding","encoding","60","Mirror_Makeup.jpg","37","0","695"
"2","2","encoding","encoding","62","ShoulderPads.jpg","36","0","1179"
"2","2","encoding","encoding","63","Statue_ManHorse.jpg","36","0","808"
"2","2","encoding","encoding","64","Tape_Dispenser.jpg","37","0","913"
"2","2","encoding","encoding","65","Stone_AncientWriting.jpg","36","0","1335"
"2","2","encoding","encoding","66","Heater_ElectricPortable.jpg","36","0","951"
"2","2","encoding","encoding","67","Honeydew_yellow.jpg","37","0","860"
"2","2","encoding","encoding","68","Faucet.jpg","37","0","817"
"2","2","encoding","encoding","69","Pretzel_Sticks.jpg","37","0","1317"
"2","2","encoding","encoding","70","Watch.jpg","37","0","870"
"2","2","encoding","encoding","71","Speaker_Computer.jpg","37","0","1328"
"2","2","encoding","encoding","72","WagonPilgrim.jpg","36","0","1076"
"2","2","encoding","encoding","73","Blanket.jpg","37","0","1201"
"2","2","encoding","encoding","74","WaterWell.jpg","36","0","1093"
"2","2","encoding","encoding","75","PocketKnife.jpg","37","0","903"
"2","2","encoding","encoding","76","Pumpkin.jpg","37","0","822"
"2","2","encoding","encoding","77","WaterColorPaintset.jpg","37","0","777"
"2","2","encoding","encoding","78","Keychain_Leather.jpg","37","0","804"
"2","2","encoding","encoding","79","Jug_Milk.jpg","37","0","894"
"2","2","encoding","encoding","80","Brush_Winter.jpg","37","0","844"
"2","2","encoding","encoding","81","MagazineRoll.jpg","37","0","1758"
"2","2","encoding","encoding","82","Aquarium.jpg","36","0","925"
"2","2","encoding","encoding","83","SpaceRover.jpg","36","0","796"
"2","2","encoding","encoding","84","Tube_Glue.jpg","37","0","811"
"2","2","encoding","encoding","85","Mat_Bamboo.jpg","36","0","1151"
"2","2","encoding","encoding","86","SatelliteDish.jpg","36","0","1010"
"2","2","encoding","encoding","87","Toy_Taxi.jpg","37","0","933"
"2","2","encoding","encoding","88","VacuumHandheld.jpg","36","0","1003"
"2","2","encoding","encoding","89","PeriodicTable.jpg","37","0","1386"
"2","2","encoding","encoding","90","Autocreeper.jpg","36","0","1330"
"2","2","encoding","encoding","91","Statue_Cat.jpg","36","0","1142"
"2","2","encoding","encoding","92","Squash_Pumpkin.jpg","37","0","1086"
"2","2","encoding","encoding","93","Milkshake_Strawberry.jpg","37","0","1111"
"2","2","encoding","encoding","94","Teabag.jpg","37","0","1436"
"2","2","encoding","encoding","95","Currants.jpg","37","0","946"
"2","2","encoding","encoding","96","Cable_AudioSplitter.jpg","0","0","2000"
"2","2","encoding","encoding","97","Shed.jpg","0","0","2000"
"2","2","encoding","encoding","98","Paddle_Ball.jpg","37","0","867"
"2","2","encoding","encoding","99","Fruit_Carambola.jpg","37","0","863"
"2","2","encoding","encoding","100","StampAndSeal.jpg","37","0","905"
"2","2","encoding","encoding","101","Jar_Strawberry.jpg","37","0","965"
"2","2","encoding","encoding","102","Card_Deck.jpg","37","0","895"
"2","2","encoding","encoding","103","Table_PingPong.jpg","36","0","767"
"2","2","encoding","encoding","104","LightHouse.jpg","36","0","1001"
"2","2","encoding","encoding","105","House_CeramicGingerbread.jpg","37","0","900"
"2","2","encoding","encoding","106","Piano_Keyboard.jpg","36","0","1441"
"2","2","encoding","encoding","107","Cross.jpg","36","0","928"
"2","2","encoding","encoding","108","SpongeScrubbing.jpg","37","0","1556"
"2","2","encoding","encoding","109","MeasuringTape.jpg","37","0","1300"
"2","2","encoding","encoding","110","Dolphine.jpg","36","0","1245"
"2","2","encoding","encoding","111","Pipe.jpg","37","0","1483"
"2","2","encoding","encoding","112","Carabiner_Orange.jpg","37","0","874"
"2","2","encoding","encoding","113","Garbage_GreenBin.jpg","36","0","787"
"2","2","encoding","encoding","114","Hat_Police.jpg","37","0","1077"
"2","2","encoding","encoding","115","Asparagus.jpg","37","0","884"
"2","2","encoding","encoding","116","Tripod.jpg","36","0","801"
"2","2","encoding","encoding","117","CookieCutter_Tree.jpg","37","0","1052"
"2","2","encoding","encoding","118","Brush_Shaving.jpg","37","0","864"
"2","2","encoding","encoding","119","Dresser_1.jpg","36","0","617"
"2","2","encoding","encoding","120","Desk_Office.jpg","36","0","816"
"2","2","encoding","encoding","121","Carousel.jpg","37","0","916"
"2","2","encoding","encoding","123","Sled.jpg","36","0","888"
"2","2","encoding","encoding","124","MannequinBust.jpg","36","0","983"
"2","2","encoding","encoding","125","Apple_Candy.jpg","37","0","801"
"2","2","encoding","encoding","126","HumanSkull.jpg","36","0","1238"
"2","2","encoding","encoding","127","Leaf_Clover.jpg","37","0","711"
"2","2","encoding","encoding","128","Shoe_Pink.jpg","36","0","893"
"2","2","encoding","encoding","129","WireStripper.jpg","37","0","1064"
"2","2","encoding","encoding","130","DoorKnob.jpg","37","0","805"
"2","2","encoding","encoding","131","DentalProbe.jpg","37","0","833"
"2","2","encoding","encoding","132","Tuxedo.jpg","36","0","899"
"2","2","encoding","encoding","133","Stovetop.jpg","37","0","1407"
"2","2","encoding","encoding","134","HedgeShears.jpg","37","0","832"
"2","2","encoding","encoding","135","DoorHandle.jpg","37","0","1169"
"2","2","encoding","encoding","136","Pouch_Red.jpg","37","0","913"
"2","2","encoding","encoding","137","BasketballHoop.jpg","36","0","1019"
"2","2","encoding","encoding","138","Boardgame_ChineseCheckers.jpg","36","0","1100"
"2","2","encoding","encoding","139","Dog_CockerSpaniel.jpg","36","0","993"
"2","2","encoding","encoding","140","Flower_Orchid.jpg","37","0","1281"
"2","2","encoding","encoding","141","KitchenCloth.jpg","37","0","1211"
"2","2","encoding","encoding","142","WashingMachine.jpg","36","0","699"
"2","2","encoding","encoding","143","Crab.jpg","37","0","1053"
"2","2","encoding","encoding","144","Bowtie.jpg","37","0","786"
"2","2","encoding","encoding","145","Makeup_Foundation.jpg","37","0","578"
"2","2","encoding","encoding","146","Noose.jpg","36","0","1727"
"2","2","encoding","encoding","147","Match.jpg","37","0","1940"
"2","2","encoding","encoding","148","Tractor_Orange.jpg","36","0","702"
"2","2","encoding","encoding","149","Jar_Money.jpg","37","0","623"
"2","2","encoding","encoding","150","Stroller.jpg","36","0","674"
"2","2","encoding","encoding","151","StickyTack.jpg","37","0","694"
"2","2","encoding","encoding","152","Trunk.jpg","36","0","616"
"2","2","encoding","encoding","153","Oven.jpg","36","0","1060"
"2","2","encoding","encoding","154","Necklace_Black.jpg","37","0","821"
"2","2","encoding","encoding","155","Bottle_Bleach.jpg","37","0","1024"
"2","2","encoding","encoding","156","AmpMeter.jpg","37","0","1360"
"2","2","encoding","encoding","157","Walkman.jpg","37","0","1377"
"2","2","encoding","encoding","158","SnowmanDecor.jpg","36","0","1141"
"2","2","encoding","encoding","159","Sign_SpeedLimit30.jpg","36","0","881"
"2","2","encoding","encoding","160","SaladCaesar.jpg","37","0","960"
"2","2","encoding","encoding","161","DarthVader.jpg","36","0","796"
"2","2","encoding","encoding","162","Boat_Trailer.jpg","36","0","877"
"2","2","encoding","encoding","163","Box_Jewellery.jpg","36","0","893"
"2","2","encoding","encoding","164","Compact_Powder.jpg","37","0","709"
"2","2","encoding","encoding","165","Origami_Ox.jpg","37","0","836"
"2","2","encoding","encoding","166","TartStrawberry.jpg","37","0","1493"
"2","2","encoding","encoding","167","CandyDispenser.jpg","0","0","2000"
"2","2","encoding","encoding","168","ChessPiece_Bishop.jpg","37","0","1264"
"2","2","encoding","encoding","169","Icepick.jpg","36","0","1187"
"2","2","encoding","encoding","170","Crackers_Ritz.jpg","37","0","1449"
"2","2","encoding","encoding","171","Crowbar.jpg","36","0","1522"
"2","2","encoding","encoding","172","Chipmunk.jpg","37","0","826"
"2","2","encoding","encoding","173","Celery.jpg","36","0","1381"
"2","2","encoding","encoding","174","Stamp.jpg","37","0","1654"
"2","2","encoding","encoding","175","PenHolder.jpg","37","0","1618"
"2","2","encoding","encoding","176","MonkeyPuppet.jpg","37","0","1195"
"2","2","encoding","encoding","177","Thermos_Decorated.jpg","37","0","761"
"2","2","retrieval","old_objects","1","Mailbox_Antique.jpg","37","0","1458"
"2","2","retrieval","old_objects","2","Case_WoodenOrnate.jpg","36","1","1025"
"2","2","retrieval","new_objects","3","Stethoscope.jpg","37","1","774"
"2","2","retrieval","new_objects","4","Drum_Bongos.jpg","37","1","679"
"2","2","retrieval","old_objects","5","Desk_Office.jpg","36","1","585"
"2","2","retrieval","new_objects","6","JumpingJack.jpg","37","1","644"
"2","2","retrieval","old_objects","7","Milkshake_Strawberry.jpg","36","1","978"
"2","2","retrieval","old_objects","8","House_CeramicGingerbread.jpg","36","1","522"
"2","2","retrieval","new_objects","9","Guitar_Electric.jpg","37","1","618"
"2","2","retrieval","old_objects","10","Makeup_Foundation.jpg","36","1","688"
"2","2","retrieval","new_objects","11","Puffin.jpg","37","1","556"
"2","2","retrieval","old_objects","12","Tambourine.jpg","36","1","715"
"2","2","retrieval","new_objects","13","Ship_Cruise.jpg","37","1","724"
"2","2","retrieval","old_objects","14","Statue_Cat.jpg","36","1","811"
"2","2","retrieval","new_objects","15","Chicken_FriedWing.jpg","37","1","1026"
"2","2","retrieval","new_objects","16","HairCurler.jpg","37","1","671"
"2","2","retrieval","new_objects","17","Avocado.jpg","36","0","556"
"2","2","retrieval","old_objects","18","Mask_Happy.jpg","36","1","670"
"2","2","retrieval","old_objects","19","LightHouse.jpg","36","1","702"
"2","2","retrieval","old_objects","20","CigarCase.jpg","36","1","687"
"2","2","retrieval","old_objects","21","ElasticBand.jpg","36","1","1099"
"2","2","retrieval","new_objects","22","PuppetTheatre_WhiteGold.jpg","37","1","828"
"2","2","retrieval","new_objects","23","Drum_Cymbal.jpg","37","1","886"
"2","2","retrieval","new_objects","24","CookieCutter_Bell.jpg","37","1","1146"
"2","2","retrieval","new_objects","25","Hat_Visor.jpg","37","1","566"
"2","2","retrieval","new_objects","26","BridgeWooden.jpg","37","1","764"
"2","2","retrieval","old_objects","27","Toy_Slide.jpg","36","1","536"
"2","2","retrieval","new_objects","28","Bathtub.jpg","37","1","723"
"2","2","retrieval","old_objects","29","Faucet.jpg","36","1","965"
"2","2","retrieval","new_objects","30","Milkshake_Chocolate.jpg","37","1","764"
"2","2","retrieval","new_objects","31","Flower_Rose.jpg","37","1","1016"
"2","2","retrieval","new_objects","32","DayPlanner.jpg","37","1","614"
"2","2","retrieval","new_objects","33","Pants.jpg","37","1","494"
"2","2","retrieval","old_objects","34","Pipe.jpg","36","1","778"
"2","2","retrieval","old_objects","35","Sign_SpeedLimit30.jpg","36","1","537"
"2","2","retrieval","old_objects","36","CoffeePot.jpg","36","1","710"
"2","2","retrieval","old_objects","37","Owl.jpg","36","1","617"
"2","2","retrieval","old_objects","38","MechanicalSpring.jpg","36","1","576"
"2","2","retrieval","new_objects","39","WateringCan_PlasticDarkGreen.jpg","37","1","681"
"2","2","retrieval","old_objects","40","StampAndSeal.jpg","37","0","718"
"2","2","retrieval","old_objects","41","Sieve_SideView.jpg","36","1","693"
"2","2","retrieval","new_objects","42","Headset.jpg","37","1","753"
"2","2","retrieval","old_objects","43","Pouch_Red.jpg","36","1","582"
"2","2","retrieval","new_objects","44","Cheque.jpg","37","1","660"
"2","2","retrieval","new_objects","45","PaintRollTray.jpg","37","1","769"
"2","2","retrieval","new_objects","46","Can_Oblong.jpg","37","1","629"
"2","2","retrieval","old_objects","47","DoorHandle.jpg","36","1","643"
"2","2","retrieval","old_objects","48","Leaf_Clover.jpg","36","1","701"
"2","2","retrieval","new_objects","49","AnsweringMachine.jpg","37","1","702"
"2","2","retrieval","new_objects","50","MeatRaw.jpg","37","1","666"
"2","2","retrieval","new_objects","51","Sign_OneWay.jpg","37","1","873"
"2","2","retrieval","old_objects","52","Jar_Money.jpg","36","1","714"
"2","2","retrieval","old_objects","53","WaterColorPaintset.jpg","0","0","2000"
"2","2","retrieval","new_objects","54","Cannoli.jpg","37","1","1590"
"2","2","retrieval","old_objects","55","Mirror_Handheld.jpg","0","0","2000"
"2","2","retrieval","old_objects","56","Carabiner_Orange.jpg","36","1","675"
"2","2","retrieval","new_objects","57","Puzzle_Piece.jpg","37","1","810"
"2","2","retrieval","new_objects","58","CashRegister_Modern.jpg","37","1","1314"
"2","2","retrieval","old_objects","59","BabyMonitor.jpg","36","1","1168"
"2","2","retrieval","old_objects","60","Statue_SouthAmerican.jpg","36","1","697"
"2","2","retrieval","new_objects","62","Jar_Cotton.jpg","37","1","1277"
"2","2","retrieval","new_objects","63","Nuts_Walnut.jpg","37","1","1435"
"2","2","retrieval","old_objects","64","Statue_ManHorse.jpg","36","1","686"
"2","2","retrieval","new_objects","65","Box_Cutlery.jpg","37","1","584"
"2","2","retrieval","new_objects","66","Stick_IceHockey.jpg","37","1","1534"
"2","2","retrieval","old_objects","67","Jug_Milk.jpg","36","1","737"
"2","2","retrieval","new_objects","68","IceCubes.jpg","37","1","1122"
"2","2","retrieval","new_objects","69","Backpack_Travel.jpg","37","1","532"
"2","2","retrieval","old_objects","70","SpaceRover.jpg","36","1","980"
"2","2","retrieval","old_objects","71","VacuumHandheld.jpg","0","0","2000"
"2","2","retrieval","old_objects","72","Trunk.jpg","36","1","777"
"2","2","retrieval","new_objects","73","Piano_Upright.jpg","36","0","1098"
"2","2","retrieval","old_objects","74","Necklace_Black.jpg","36","1","787"
"2","2","retrieval","old_objects","75","Boat_Trailer.jpg","36","1","780"
"2","2","retrieval","new_objects","76","Flower_Sun.jpg","36","0","703"
"2","2","retrieval","new_objects","77","ChalkLineTool.jpg","37","1","1146"
"2","2","retrieval","new_objects","78","Desk_White.jpg","36","0","768"
"2","2","retrieval","old_objects","79","SeatBuckle.jpg","36","1","984"
"2","2","retrieval","old_objects","80","SpongeScrubbing.jpg","36","1","678"
"2","2","retrieval","new_objects","81","Hook_Double.jpg","37","1","1264"
"2","2","retrieval","new_objects","82","Dog_Bulldog.jpg","0","0","2000"
"2","2","retrieval","old_objects","83","WashingMachine.jpg","36","1","586"
"2","2","retrieval","new_objects","84","PumpBreast.jpg","37","1","958"
"2","2","retrieval","old_objects","85","Tractor_Orange.jpg","36","1","578"
"2","2","retrieval","old_objects","86","Branch.jpg","36","1","1025"
"2","2","retrieval","new_objects","87","Candleholder_Tall.jpg","36","0","834"
"2","2","retrieval","old_objects","88","PenHolder.jpg","36","1","852"
"2","2","retrieval","old_objects","89","Carousel.jpg","36","1","715"
"2","2","retrieval","new_objects","90","PaintCan.jpg","37","1","1161"
"2","2","retrieval","new_objects","91","Boat_Ferry.jpg","37","1","845"
"2","2","retrieval","new_objects","92","Broom_Long.jpg","37","1","673"
"2","2","retrieval","old_objects","93","HedgeShears.jpg","36","1","821"
"2","2","retrieval","new_objects","94","CementFinisher.jpg","37","1","1118"
"2","2","retrieval","new_objects","95","LeafBlower.jpg","37","1","905"
"2","2","retrieval","old_objects","96","Compact_Mirror.jpg","36","1","1152"
"2","2","retrieval","old_objects","97","Cup_sippy.jpg","37","0","1012"
"2","2","retrieval","new_objects","98","Airplane_Commercial.jpg","36","0","771"
"2","2","retrieval","old_objects","99","Stroller.jpg","36","1","649"
"2","2","retrieval","old_objects","100","MonkeyPuppet.jpg","36","1","636"
"2","2","retrieval","new_objects","101","Lettuce_Iceberg.jpg","36","0","651"
"2","2","retrieval","new_objects","102","Can_GasSpout.jpg","37","1","680"
"2","2","retrieval","old_objects","103","Squash_Pumpkin.jpg","36","1","765"
"2","2","retrieval","new_objects","104","ControlPanel.jpg","37","1","704"
"2","2","retrieval","old_objects","105","Clip_Binder.jpg","36","1","852"
"2","2","retrieval","new_objects","106","WatermelonSlice.jpg","37","1","982"
"2","2","retrieval","new_objects","107","Bag_Hand.jpg","37","1","750"
"2","2","retrieval","old_objects","108","Match.jpg","36","1","1758"
"2","2","retrieval","old_objects","109","Glove_Rubber.jpg","36","1","762"
"2","2","retrieval","new_objects","110","Decoration_Chinese.jpg","36","0","1444"
"2","2","retrieval","new_objects","111","Jacket_Jean.jpg","37","1","1347"
"2","2","retrieval","old_objects","112","BasketballHoop.jpg","36","1","663"
"2","2","retrieval","new_objects","113","Bulldozer.jpg","36","0","795"
"2","2","retrieval","old_objects","114","Bottle_Bleach.jpg","36","1","653"
"2","2","retrieval","new_objects","115","Gloves_Winter.jpg","37","1","657"
"2","2","retrieval","old_objects","116","Tape_Dispenser.jpg","36","1","1156"
"2","2","retrieval","old_objects","117","MagazineRoll.jpg","36","1","998"
"2","2","retrieval","old_objects","118","Battery_AA.jpg","36","1","1002"
"2","2","retrieval","old_objects","119","Toilet.jpg","36","1","1419"
"2","2","retrieval","old_objects","120","Crate_Wine.jpg","36","1","834"
"2","2","retrieval","new_objects","121","SoundMixer_Blue.jpg","37","1","873"
"2","2","retrieval","old_objects","123","Toy_Taxi.jpg","37","0","1016"
"2","2","retrieval","new_objects","124","Oneholepunch.jpg","37","1","824"
"2","2","retrieval","new_objects","125","HairBand.jpg","37","1","839"
"2","2","retrieval","old_objects","126","Card_Deck.jpg","37","0","791"
"2","2","retrieval","new_objects","127","Stick_Bridge.jpg","37","1","921"
"2","2","retrieval","old_objects","128","Boardgame_ChineseCheckers.jpg","36","1","794"
"2","2","retrieval","new_objects","129","Umbrella_Classic.jpg","37","1","1116"
"2","2","retrieval","old_objects","130","Compact_Powder.jpg","36","1","930"
"2","2","retrieval","new_objects","131","EspressoMachine.jpg","37","1","1854"
"2","2","retrieval","new_objects","132","Horn_French.jpg","37","1","986"
"2","2","retrieval","new_objects","133","Candle_ChristmasDecor.jpg","37","1","925"
"2","2","retrieval","old_objects","134","KitchenCloth.jpg","36","1","730"
"2","2","retrieval","old_objects","135","Mirror_Makeup.jpg","36","1","514"
"2","2","retrieval","new_objects","136","WaterFountain.jpg","37","1","1426"
"2","2","retrieval","new_objects","137","Chairs_Stacked.jpg","37","1","760"
"2","2","retrieval","new_objects","138","Motorcycle.jpg","0","0","2000"
"2","2","retrieval","old_objects","139","Table_PingPong.jpg","36","1","913"
"2","2","retrieval","old_objects","140","Colander.jpg","37","0","1306"
"2","2","retrieval","old_objects","141","Kangaroo.jpg","36","1","1482"
"2","2","retrieval","old_objects","142","Watch.jpg","36","1","1733"
"2","2","retrieval","new_objects","143","BicycleGear.jpg","37","1","891"
"2","2","retrieval","old_objects","144","Cooler.jpg","36","1","1279"
"2","2","retrieval","old_objects","145","TimerKitchen.jpg","37","0","854"
"2","2","retrieval","new_objects","146","Toy_BlocksPlastic Colourful.jpg","37","1","616"
"2","2","retrieval","old_objects","147","Aquarium.jpg","36","1","762"
"2","2","retrieval","old_objects","148","Celery.jpg","36","1","794"
"2","2","retrieval","new_objects","149","Hanger.jpg","37","1","809"
"2","2","retrieval","new_objects","150","Pricegun.jpg","37","1","770"
"2","2","retrieval","new_objects","151","FoodMill.jpg","0","0","2000"
"2","2","retrieval","new_objects","152","Pasta_Shell.jpg","37","1","747"
"2","2","retrieval","old_objects","153","CandyDispenser.jpg","36","1","962"
"2","2","retrieval","new_objects","154","CoolingFan_Engine.jpg","37","1","835"
"2","2","retrieval","new_objects","155","Hoodie.jpg","37","1","758"
"2","2","retrieval","new_objects","156","FuzzyDice.jpg","37","1","693"
"2","2","retrieval","old_objects","157","Speakers_Theatre.jpg","36","1","889"
"2","2","retrieval","new_objects","158","KiddiePool.jpg","36","0","815"
"2","2","retrieval","new_objects","159","RadioactiveContainer.jpg","37","1","590"
"2","2","retrieval","new_objects","160","RollerBlade.jpg","37","1","1062"
"2","2","retrieval","old_objects","161","Chipmunk.jpg","36","1","893"
"2","2","retrieval","old_objects","162","CashRegister_Antique.jpg","36","1","629"
"2","2","retrieval","old_objects","163","Bowtie.jpg","37","0","684"
"2","2","retrieval","old_objects","164","Briefcase_Silver.jpg","36","1","650"
"2","2","retrieval","new_objects","165","PortaPotty.jpg","37","1","1164"
"2","2","retrieval","new_objects","166","Bicycle_Adult.jpg","37","1","716"
"2","2","retrieval","new_objects","167","Camera_Antique.jpg","36","0","1405"
"2","2","retrieval","old_objects","168","Sled.jpg","37","0","822"
"2","2","retrieval","new_objects","169","Makeup_Eyeshadow.jpg","37","1","718"
"2","2","retrieval","old_objects","170","Mat_Bamboo.jpg","36","1","1023"
"2","2","retrieval","old_objects","171","Origami_Ox.jpg","36","1","881"
"2","2","retrieval","old_objects","172","Tape_Washi.jpg","36","1","931"
"2","2","retrieval","new_objects","173","Stationary.jpg","37","1","685"
"2","2","retrieval","new_objects","174","Hat_Tuque.jpg","37","1","1437"
"2","2","retrieval","old_objects","175","Box_Jewellery.jpg","36","1","776"
"2","2","retrieval","old_objects","176","Toy_Octopus.jpg","36","1","773"
"2","2","retrieval","old_objects","177","Garbage_GreenBin.jpg","36","1","780"
"2","2","retrieval","new_objects","178","Tree_ChristmasMini.jpg","37","1","1303"
"2","2","retrieval","old_objects","179","Crackers_Ritz.jpg","36","1","698"
"2","2","retrieval","new_objects","180","Hat_Party.jpg","37","1","621"
"2","2","retrieval","new_objects","181","Cheese_Platter.jpg","37","1","998"
"2","2","retrieval","old_objects","182","Pacifier.jpg","36","1","949"
"2","2","retrieval","new_objects","184","Wheel_Steering.jpg","37","1","833"
"2","2","retrieval","old_objects","185","Machine_Bread.jpg","36","1","702"
"2","2","retrieval","new_objects","186","Drink_Cocktail.jpg","37","1","1023"
"2","2","retrieval","old_objects","187","Flower_Orchid.jpg","37","0","608"
"2","2","retrieval","new_objects","188","Slide.jpg","37","1","697"
"2","2","retrieval","new_objects","189","Cassette_Audio.jpg","36","0","628"
"2","2","retrieval","old_objects","190","Shed.jpg","37","0","770"
"2","2","retrieval","old_objects","191","Blanket.jpg","37","0","690"
"2","2","retrieval","old_objects","192","DentalProbe.jpg","36","1","620"
"2","2","retrieval","new_objects","193","Guitar_Acoustic.jpg","36","0","557"
"2","2","retrieval","old_objects","194","Clothespin_Red.jpg","36","1","919"
"2","2","retrieval","old_objects","195","Bowl_Lemons.jpg","36","1","603"
"2","2","retrieval","old_objects","196","Tray_Cafeteria.jpg","36","1","962"
"2","2","retrieval","old_objects","197","Noose.jpg","36","1","617"
"2","2","retrieval","old_objects","198","Container_RedPlastic.jpg","36","1","802"
"2","2","retrieval","new_objects","199","Lynx.jpg","37","1","573"
"2","2","retrieval","old_objects","200","Currants.jpg","37","0","646"
"2","2","retrieval","new_objects","201","Caribou.jpg","37","1","536"
"2","2","retrieval","old_objects","202","Platter_Vegetables.jpg","36","1","812"
"2","2","retrieval","new_objects","203","Brush_Cleaning.jpg","37","1","527"
"2","2","retrieval","old_objects","204","AirCompressor.jpg","36","1","785"
"2","2","retrieval","new_objects","205","fries.jpg","37","1","644"
"2","2","retrieval","old_objects","206","Pretzel_Sticks.jpg","36","1","914"
"2","2","retrieval","new_objects","207","Toy_TrailerAirport.jpg","37","1","674"
"2","2","retrieval","new_objects","208","Trash_Medical.jpg","37","1","1629"
"2","2","retrieval","new_objects","209","LampPost_WhiteOrnate.jpg","37","1","1040"
"2","2","retrieval","new_objects","210","Guacamole.jpg","37","1","828"
"2","2","retrieval","new_objects","211","Makeup_Bag.jpg","37","1","782"
"2","2","retrieval","new_objects","212","Pineapple.jpg","37","1","954"
"2","2","retrieval","old_objects","213","KeyHook_Occupied.jpg","36","1","748"
"2","2","retrieval","old_objects","214","WaterWell.jpg","36","1","665"
"2","2","retrieval","old_objects","215","Tripod.jpg","36","1","535"
"2","2","retrieval","old_objects","216","IceCrusher.jpg","36","1","784"
"2","2","retrieval","new_objects","217","GiftBow.jpg","37","1","634"
"2","2","retrieval","old_objects","218","Teabag.jpg","36","1","933"
"2","2","retrieval","new_objects","219","MousepadAndMouse.jpg","37","1","802"
"2","2","retrieval","new_objects","220","SkullDeer.jpg","37","1","746"
"2","2","retrieval","new_objects","221","Flute_Tin.jpg","37","1","580"
"2","2","retrieval","old_objects","222","Staircase_Straight.jpg","36","1","904"
"2","2","retrieval","old_objects","223","Apple_Candy.jpg","36","1","885"
"2","2","retrieval","new_objects","224","Ball_Basketball.jpg","37","1","883"
"2","2","retrieval","old_objects","225","Jar_Strawberry.jpg","36","1","1873"
"2","2","retrieval","old_objects","226","Phone_Wireless.jpg","36","1","837"
"2","2","retrieval","old_objects","227","Asparagus.jpg","37","0","1228"
"2","2","retrieval","old_objects","228","Amp.jpg","36","1","1745"
"2","2","retrieval","new_objects","229","KnifeHolder.jpg","37","1","1326"
"2","2","retrieval","new_objects","230","Computer_CPU.jpg","37","1","1096"
"2","2","retrieval","old_objects","231","PocketKnife.jpg","37","0","947"
"2","2","retrieval","new_objects","232","Cymbals.jpg","37","1","1003"
"2","2","retrieval","old_objects","233","SatelliteDish.jpg","36","1","776"
"2","2","retrieval","old_objects","234","Brush_Shaving.jpg","36","1","891"
"2","2","retrieval","new_objects","235","Cup_Fruits.jpg","37","1","891"
"2","2","retrieval","old_objects","236","Stovetop.jpg","36","1","733"
"2","2","retrieval","new_objects","237","Telescope.jpg","37","1","1118"
"2","2","retrieval","old_objects","238","AmpMeter.jpg","36","1","770"
"2","2","retrieval","new_objects","239","Clock_Grandfather.jpg","37","1","992"
"2","2","retrieval","new_objects","240","Wallet_ClosedBlack.jpg","37","1","1147"
"2","2","retrieval","old_objects","241","Horseshoe.jpg","0","0","2000"
"2","2","retrieval","new_objects","242","Toy_Boat.jpg","36","0","865"
"2","2","retrieval","new_objects","243","SkiPoles.jpg","37","1","1505"
"2","2","retrieval","new_objects","245","Playground.jpg","37","1","727"
"2","2","retrieval","new_objects","246","Mattress.jpg","37","1","584"
"2","2","retrieval","old_objects","247","Thermos_Decorated.jpg","37","0","630"
"2","2","retrieval","old_objects","248","WagonPilgrim.jpg","37","0","835"
"2","2","retrieval","old_objects","249","Dresser_1.jpg","36","1","715"
"2","2","retrieval","new_objects","250","HotWaterBottle.jpg","37","1","1004"
"2","2","retrieval","new_objects","251","Freezer.jpg","36","0","1460"
"2","2","retrieval","old_objects","252","Tube_Glue.jpg","37","0","818"
"2","2","retrieval","old_objects","253","Tweezers.jpg","36","1","796"
"2","2","retrieval","old_objects","254","Kiwi.jpg","37","0","1238"
"2","2","retrieval","old_objects","255","Dog_CockerSpaniel.jpg","37","0","620"
"2","2","retrieval","old_objects","256","DarthVader.jpg","37","0","668"
"2","2","retrieval","old_objects","257","Tuxedo.jpg","36","1","800"
"2","2","retrieval","new_objects","258","InflatableSleepingBag.jpg","37","1","820"
"2","2","retrieval","new_objects","259","Bells_Christmas.jpg","37","1","748"
"2","2","retrieval","old_objects","260","Crab.jpg","36","1","1141"
"2","2","retrieval","old_objects","261","CookieCutter_Tree.jpg","36","1","1098"
"2","2","retrieval","old_objects","262","Crowbar.jpg","36","1","651"
"2","2","retrieval","new_objects","263","Ring_Diamond.jpg","37","1","806"
"2","2","retrieval","new_objects","264","Spraybottle.jpg","37","1","1830"
"2","2","retrieval","new_objects","265","Ball_Golf.jpg","37","1","809"
"2","2","retrieval","old_objects","266","ChessPiece_Bishop.jpg","36","1","1748"
"2","2","retrieval","old_objects","267","Heater_ElectricPortable.jpg","36","1","821"
"2","2","retrieval","new_objects","268","Jug_ClayAncient.jpg","37","1","1189"
"2","2","retrieval","new_objects","269","Film_Roll.jpg","37","1","843"
"2","2","retrieval","new_objects","270","Cup_Bathroom.jpg","37","1","1041"
"2","2","retrieval","old_objects","271","Speaker_Computer.jpg","37","0","876"
"2","2","retrieval","old_objects","272","Gun_Glue.jpg","36","1","657"
"2","2","retrieval","new_objects","273","Scoop_Flour.jpg","37","1","894"
"2","2","retrieval","new_objects","274","Paddle_Bread.jpg","37","1","1422"
"2","2","retrieval","old_objects","275","WireStripper.jpg","36","1","1174"
"2","2","retrieval","old_objects","276","MeasuringTape.jpg","36","1","1048"
"2","2","retrieval","new_objects","277","Bottle_Champagne.jpg","37","1","1068"
"2","2","retrieval","new_objects","278","Clothespin_Beige.jpg","36","0","934"
"2","2","retrieval","new_objects","279","Bag_Diaper.jpg","37","1","695"
"2","2","retrieval","new_objects","280","Bone.jpg","37","1","1235"
"2","2","retrieval","new_objects","281","Box_JeweleryWooden.jpg","37","1","1158"
"2","2","retrieval","old_objects","282","RecorderInstrument.jpg","36","1","1106"
"2","2","retrieval","old_objects","283","Piano_Keyboard.jpg","36","1","656"
"2","2","retrieval","new_objects","284","Flower_Tulip.jpg","37","1","704"
"2","2","retrieval","old_objects","285","Honeydew_yellow.jpg","37","0","1084"
"2","2","retrieval","old_objects","286","Fencing_HelmetSwords.jpg","37","0","972"
"2","2","retrieval","new_objects","287","RemoteControl.jpg","37","1","818"
"2","2","retrieval","new_objects","288","Light_PostIsolated.jpg","37","1","887"
"2","2","retrieval","new_objects","289","Lychee.jpg","37","1","859"
"2","2","retrieval","new_objects","290","TelephoneJack.jpg","37","1","990"
"2","2","retrieval","new_objects","291","Sandwich_Ham.jpg","37","1","894"
"2","2","retrieval","old_objects","292","HumanSkull.jpg","36","1","928"
"2","2","retrieval","new_objects","293","CoffeeLid.jpg","37","1","932"
"2","2","retrieval","new_objects","294","Tractor_Yellow.jpg","36","0","1226"
"2","2","retrieval","old_objects","295","Paddle_Ball.jpg","36","1","1015"
"2","2","retrieval","new_objects","296","PropellerFan.jpg","37","1","732"
"2","2","retrieval","old_objects","297","SnowmanDecor.jpg","36","1","1133"
"2","2","retrieval","new_objects","298","Boat_Sail.jpg","37","1","1412"
"2","2","retrieval","new_objects","299","PuppetTheatre_BlueRed.jpg","37","1","730"
"2","2","retrieval","new_objects","300","Nyala.jpg","37","1","702"
"2","2","retrieval","old_objects","301","PeriodicTable.jpg","36","1","989"
"2","2","retrieval","old_objects","302","PenStand.jpg","36","1","1434"
"2","2","retrieval","old_objects","303","Autocreeper.jpg","36","1","1025"
"2","2","retrieval","new_objects","304","Crayon_Green.jpg","37","1","844"
"2","2","retrieval","new_objects","306","Ostrich.jpg","37","1","774"
"2","2","retrieval","old_objects","307","Cable_AudioSplitter.jpg","36","1","849"
"2","2","retrieval","new_objects","308","Box_Apples.jpg","37","1","819"
"2","2","retrieval","old_objects","309","TartStrawberry.jpg","36","1","1005"
"2","2","retrieval","old_objects","310","Stove_Portable.jpg","36","1","730"
"2","2","retrieval","old_objects","311","Hat_Police.jpg","37","0","657"
"2","2","retrieval","new_objects","312","DryRack_Dishes.jpg","36","0","714"
"2","2","retrieval","old_objects","313","Cross.jpg","36","1","581"
"2","2","retrieval","old_objects","314","Oven.jpg","36","1","830"
"2","2","retrieval","new_objects","315","SoapDish.jpg","37","1","1216"
"2","2","retrieval","old_objects","316","Icepick.jpg","37","0","660"
"2","2","retrieval","old_objects","317","Fruit_Carambola.jpg","37","0","736"
"2","2","retrieval","new_objects","318","Trumpet.jpg","37","1","1142"
"2","2","retrieval","new_objects","319","Bottle_Liquor.jpg","37","1","782"
"2","2","retrieval","old_objects","320","Iguana.jpg","36","1","960"
"2","2","retrieval","new_objects","321","Bottle_Spray.jpg","37","1","891"
"2","2","retrieval","new_objects","322","Car_Ferrari.jpg","37","1","677"
"2","2","retrieval","new_objects","323","ElectricOutlet.jpg","37","1","726"
"2","2","retrieval","new_objects","324","Cage_Bird.jpg","37","1","1183"
"2","2","retrieval","old_objects","325","SaladCaesar.jpg","36","1","972"
"2","2","retrieval","new_objects","326","WorldMap.jpg","37","1","780"
"2","2","retrieval","new_objects","327","MortarPestle_WhiteMarble.jpg","37","1","1181"
"2","2","retrieval","old_objects","328","Dolphine.jpg","36","1","789"
"2","2","retrieval","old_objects","329","OrangeBlood.jpg","36","1","641"
"2","2","retrieval","new_objects","330","PumiceStone.jpg","37","1","558"
"2","2","retrieval","new_objects","331","AmberWithMosquito.jpg","37","1","596"
"2","2","retrieval","old_objects","332","StickyTack.jpg","36","1","696"
"2","2","retrieval","old_objects","333","Keychain_Leather.jpg","37","0","1103"
"2","2","retrieval","old_objects","334","Windmill_Building.jpg","37","0","1032"
"2","2","retrieval","new_objects","335","Kite_Rainbow.jpg","37","1","597"
"2","2","retrieval","old_objects","336","DoorBolt.jpg","36","1","1418"
"2","2","retrieval","new_objects","337","Ball_Football.jpg","37","1","692"
"2","2","retrieval","old_objects","338","Ball_Baseball.jpg","37","0","1007"
"2","2","retrieval","old_objects","339","MannequinBust.jpg","37","0","825"
"2","2","retrieval","new_objects","340","Notepad.jpg","37","1","985"
"2","2","retrieval","new_objects","341","Lei.jpg","0","0","2000"
"2","2","retrieval","old_objects","342","Pumpkin.jpg","37","0","800"
"2","2","retrieval","old_objects","343","Stamp.jpg","36","1","1632"
"2","2","retrieval","new_objects","344","Toy_MrPotatoHeadjpg.jpg","37","1","1157"
"2","2","retrieval","new_objects","345","Statue_Buddha.jpg","37","1","1452"
"2","2","retrieval","new_objects","346","Lamp_TableWhite.jpg","37","1","757"
"2","2","retrieval","old_objects","347","Scroll.jpg","0","0","2000"
"2","2","retrieval","old_objects","348","ShoulderPads.jpg","36","1","948"
"2","2","retrieval","new_objects","349","Jacks.jpg","37","1","1394"
"2","2","retrieval","old_objects","350","Stone_AncientWriting.jpg","36","1","786"
"2","2","retrieval","new_objects","351","BusStop.jpg","37","1","1188"
"2","2","retrieval","old_objects","352","Brush_Winter.jpg","36","1","1389"
"2","2","retrieval","old_objects","353","DoorKnob.jpg","36","1","648"
"2","2","retrieval","old_objects","354","Walkman.jpg","36","1","760"
"2","2","retrieval","old_objects","355","Shoe_Pink.jpg","36","1","1032"
"2","2","demographics_block","gender","1","Shoe_Pink.jpg","male","1","8613"
"2","2","demographics_block","age","1","Shoe_Pink.jpg","35","1","8613"
"2","2","demographics_block","education","1","Shoe_Pink.jpg","14","1","8613"
"2","2","demographics_block","left_right_handed","2","Shoe_Pink.jpg","Right","1","7908"
"2","2","demographics_block","raceoption1","2","Shoe_Pink.jpg","0","1","7908"
"2","2","demographics_block","raceoption2","2","Shoe_Pink.jpg","","1","7908"
"2","2","demographics_block","raceoption3","2","Shoe_Pink.jpg","","1","7908"
"2","2","demographics_block","raceoption4","2","Shoe_Pink.jpg","","1","7908"
"2","2","demographics_block","raceoption5","2","Shoe_Pink.jpg","","1","7908"
"2","2","demographics_block","raceoption6","2","Shoe_Pink.jpg","","1","7908"
"2","2","demographics_block","raceoption7","2","Shoe_Pink.jpg","","1","7908"
"2","2","demographics_block","raceoption8","2","Shoe_Pink.jpg","","1","7908"
"2","2","demographics_block","raceoption9","2","Shoe_Pink.jpg","","1","7908"
"2","2","demographics_block","raceother","2","Shoe_Pink.jpg","","1","7908"
"2","2","demographics_block","raceother","2","Shoe_Pink.jpg","","1","7908"
"2","2","demographics_block","english_language","2","Shoe_Pink.jpg","Yes","1","7908"
"2","2","demographics_block","english_languageother","2","Shoe_Pink.jpg","","1","7908"
"2","2","demographics_block","eyesight","3","Shoe_Pink.jpg","Yes","1","15012"
"2","2","demographics_block","colorblind","3","Shoe_Pink.jpg","No","1","15012"
"2","2","worker_id_block","worker_id_textbox","1","Shoe_Pink.jpg","A2BVVFXMQU8AC7","1","3660"
"3","3","encoding","encoding","1","Carabiner_Orange.jpg","0","0","2000"
"3","3","encoding","encoding","2","Phone_Wireless.jpg","36","0","1966"
"3","3","encoding","encoding","3","MonkeyPuppet.jpg","37","0","1674"
"3","3","encoding","encoding","4","Tractor_Orange.jpg","37","0","93"
"3","3","encoding","encoding","5","WashingMachine.jpg","37","0","1776"
"3","3","encoding","encoding","6","HumanSkull.jpg","36","0","132"
"3","3","encoding","encoding","7","Blanket.jpg","36","0","109"
"3","3","encoding","encoding","8","Bottle_Bleach.jpg","0","0","2000"
"3","3","encoding","encoding","9","SnowmanDecor.jpg","36","0","1397"
"3","3","encoding","encoding","10","Currants.jpg","36","0","281"
"3","3","encoding","encoding","11","Colander.jpg","37","0","315"
"3","3","encoding","encoding","12","CoffeePot.jpg","37","0","252"
"3","3","encoding","encoding","13","Platter_Vegetables.jpg","36","0","194"
"3","3","encoding","encoding","14","Kangaroo.jpg","36","0","306"
"3","3","encoding","encoding","15","Sign_SpeedLimit30.jpg","37","0","236"
"3","3","encoding","encoding","16","Pumpkin.jpg","37","0","481"
"3","3","encoding","encoding","17","AirCompressor.jpg","37","0","1645"
"3","3","encoding","encoding","18","CigarCase.jpg","36","0","263"
"3","3","encoding","encoding","19","Cross.jpg","36","0","218"
"3","3","encoding","encoding","20","Watch.jpg","37","0","962"
"3","3","encoding","encoding","21","Mirror_Handheld.jpg","37","0","217"
"3","3","encoding","encoding","22","Fruit_Carambola.jpg","36","0","263"
"3","3","encoding","encoding","23","OrangeBlood.jpg","37","0","53"
"3","3","encoding","encoding","24","AmpMeter.jpg","36","0","351"
"3","3","encoding","encoding","25","ChessPiece_Bishop.jpg","36","0","260"
"3","3","encoding","encoding","26","Kiwi.jpg","36","0","303"
"3","3","encoding","encoding","27","Heater_ElectricPortable.jpg","37","0","2"
"3","3","encoding","encoding","28","Tripod.jpg","36","0","515"
"3","3","encoding","encoding","29","Speaker_Computer.jpg","36","0","284"
"3","3","encoding","encoding","30","Statue_ManHorse.jpg","37","0","263"
"3","3","encoding","encoding","31","Brush_Shaving.jpg","36","0","368"
"3","3","encoding","encoding","32","House_CeramicGingerbread.jpg","37","0","25"
"3","3","encoding","encoding","33","Sled.jpg","37","0","205"
"3","3","encoding","encoding","34","Pacifier.jpg","36","0","281"
"3","3","encoding","encoding","35","Tray_Cafeteria.jpg","36","0","608"
"3","3","encoding","encoding","36","PeriodicTable.jpg","0","0","2000"
"3","3","encoding","encoding","37","Mirror_Makeup.jpg","36","0","486"
"3","3","encoding","encoding","38","Oven.jpg","36","0","479"
"3","3","encoding","encoding","39","Thermos_Decorated.jpg","36","0","256"
"3","3","encoding","encoding","40","Amp.jpg","37","0","52"
"3","3","encoding","encoding","41","Hat_Police.jpg","36","0","188"
"3","3","encoding","encoding","42","ElasticBand.jpg","37","0","296"
"3","3","encoding","encoding","43","WaterColorPaintset.jpg","36","0","241"
"3","3","encoding","encoding","44","CookieCutter_Tree.jpg","36","0","252"
"3","3","encoding","encoding","45","Iguana.jpg","36","0","446"
"3","3","encoding","encoding","46","Walkman.jpg","36","0","759"
"3","3","encoding","encoding","47","Clip_Binder.jpg","37","0","240"
"3","3","encoding","encoding","48","Aquarium.jpg","36","0","279"
"3","3","encoding","encoding","49","Crab.jpg","36","0","241"
"3","3","encoding","encoding","50","SeatBuckle.jpg","36","0","209"
"3","3","encoding","encoding","51","HedgeShears.jpg","36","0","256"
"3","3","encoding","encoding","52","PocketKnife.jpg","37","0","626"
"3","3","encoding","encoding","53","Crowbar.jpg","36","0","1442"
"3","3","encoding","encoding","54","Piano_Keyboard.jpg","0","0","2000"
"3","3","encoding","encoding","55","DoorKnob.jpg","36","0","763"
"3","3","encoding","encoding","56","Pipe.jpg","37","0","118"
"3","3","encoding","encoding","57","IceCrusher.jpg","36","0","260"
"3","3","encoding","encoding","58","Celery.jpg","36","0","330"
"3","3","encoding","encoding","59","Machine_Bread.jpg","37","0","1937"
"3","3","encoding","encoding","60","Chipmunk.jpg","36","0","468"
"3","3","encoding","encoding","62","Desk_Office.jpg","0","0","2000"
"3","3","encoding","encoding","63","MeasuringTape.jpg","37","0","31"
"3","3","encoding","encoding","64","RecorderInstrument.jpg","37","0","352"
"3","3","encoding","encoding","65","Toy_Octopus.jpg","37","0","306"
"3","3","encoding","encoding","66","Dog_CockerSpaniel.jpg","0","0","2000"
"3","3","encoding","encoding","67","ShoulderPads.jpg","36","0","258"
"3","3","encoding","encoding","68","Necklace_Black.jpg","36","0","326"
"3","3","encoding","encoding","69","Keychain_Leather.jpg","37","0","236"
"3","3","encoding","encoding","70","Shoe_Pink.jpg","37","0","452"
"3","3","encoding","encoding","71","Box_Jewellery.jpg","36","0","165"
"3","3","encoding","encoding","72","Pouch_Red.jpg","36","0","300"
"3","3","encoding","encoding","73","SatelliteDish.jpg","36","0","1030"
"3","3","encoding","encoding","74","TartStrawberry.jpg","37","0","317"
"3","3","encoding","encoding","75","BabyMonitor.jpg","36","0","342"
"3","3","encoding","encoding","76","Case_WoodenOrnate.jpg","37","0","289"
"3","3","encoding","encoding","77","Noose.jpg","36","0","390"
"3","3","encoding","encoding","78","Trunk.jpg","0","0","2000"
"3","3","encoding","encoding","79","Crackers_Ritz.jpg","36","0","378"
"3","3","encoding","encoding","80","Bowtie.jpg","37","0","600"
"3","3","encoding","encoding","81","MechanicalSpring.jpg","0","0","2000"
"3","3","encoding","encoding","82","WireStripper.jpg","37","0","259"
"3","3","encoding","encoding","83","Milkshake_Strawberry.jpg","36","0","12"
"3","3","encoding","encoding","84","Briefcase_Silver.jpg","36","0","504"
"3","3","encoding","encoding","85","Card_Deck.jpg","36","0","317"
"3","3","encoding","encoding","86","Cable_AudioSplitter.jpg","36","0","280"
"3","3","encoding","encoding","87","Garbage_GreenBin.jpg","37","0","540"
"3","3","encoding","encoding","88","Statue_SouthAmerican.jpg","36","0","248"
"3","3","encoding","encoding","89","Autocreeper.jpg","36","0","498"
"3","3","encoding","encoding","90","Cup_sippy.jpg","0","0","2000"
"3","3","encoding","encoding","91","SpongeScrubbing.jpg","36","0","1"
"3","3","encoding","encoding","92","Stove_Portable.jpg","36","0","287"
"3","3","encoding","encoding","93","Tube_Glue.jpg","36","0","262"
"3","3","encoding","encoding","94","MannequinBust.jpg","36","0","180"
"3","3","encoding","encoding","95","SaladCaesar.jpg","36","0","267"
"3","3","encoding","encoding","96","Table_PingPong.jpg","36","0","283"
"3","3","encoding","encoding","97","WagonPilgrim.jpg","37","0","520"
"3","3","encoding","encoding","98","Dresser_1.jpg","36","0","326"
"3","3","encoding","encoding","99","Bowl_Lemons.jpg","37","0","300"
"3","3","encoding","encoding","100","Stovetop.jpg","36","0","292"
"3","3","encoding","encoding","101","Gun_Glue.jpg","36","0","460"
"3","3","encoding","encoding","102","LightHouse.jpg","37","0","259"
"3","3","encoding","encoding","103","Dolphine.jpg","36","0","506"
"3","3","encoding","encoding","104","Match.jpg","37","0","312"
"3","3","encoding","encoding","105","Paddle_Ball.jpg","36","0","248"
"3","3","encoding","encoding","106","Stamp.jpg","37","0","1988"
"3","3","encoding","encoding","107","DoorBolt.jpg","36","0","258"
"3","3","encoding","encoding","108","Jar_Strawberry.jpg","36","0","269"
"3","3","encoding","encoding","109","Windmill_Building.jpg","36","0","321"
"3","3","encoding","encoding","110","Jar_Money.jpg","36","0","441"
"3","3","encoding","encoding","111","CandyDispenser.jpg","37","0","281"
"3","3","encoding","encoding","112","Container_RedPlastic.jpg","37","0","311"
"3","3","encoding","encoding","113","Origami_Ox.jpg","36","0","257"
"3","3","encoding","encoding","114","Battery_AA.jpg","0","0","2000"
"3","3","encoding","encoding","115","MagazineRoll.jpg","0","0","2000"
"3","3","encoding","encoding","116","BasketballHoop.jpg","0","0","2000"
"3","3","encoding","encoding","117","Mailbox_Antique.jpg","0","0","2000"
"3","3","encoding","encoding","118","Cooler.jpg","0","0","2000"
"3","3","encoding","encoding","119","Asparagus.jpg","0","0","2000"
"3","3","encoding","encoding","120","DoorHandle.jpg","0","0","2000"
"3","3","encoding","encoding","121","Tambourine.jpg","0","0","2000"
"3","3","encoding","encoding","123","Toy_Slide.jpg","36","0","1052"
"3","3","encoding","encoding","124","Glove_Rubber.jpg","37","0","1165"
"3","3","encoding","encoding","125","PenStand.jpg","37","0","1349"
"3","3","encoding","encoding","126","Makeup_Foundation.jpg","36","0","259"
"3","3","encoding","encoding","127","Tape_Dispenser.jpg","36","0","295"
"3","3","encoding","encoding","128","Branch.jpg","36","0","1760"
"3","3","encoding","encoding","129","StickyTack.jpg","37","0","7"
"3","3","encoding","encoding","130","Brush_Winter.jpg","36","0","508"
"3","3","encoding","encoding","131","Faucet.jpg","0","0","2000"
"3","3","encoding","encoding","132","Statue_Cat.jpg","36","0","259"
"3","3","encoding","encoding","133","Toy_Taxi.jpg","36","0","353"
"3","3","encoding","encoding","134","Squash_Pumpkin.jpg","37","0","304"
"3","3","encoding","encoding","135","Honeydew_yellow.jpg","37","0","3"
"3","3","encoding","encoding","136","Tweezers.jpg","37","0","304"
"3","3","encoding","encoding","137","Flower_Orchid.jpg","0","0","2000"
"3","3","encoding","encoding","138","StampAndSeal.jpg","36","0","294"
"3","3","encoding","encoding","139","Carousel.jpg","36","0","344"
"3","3","encoding","encoding","140","Tuxedo.jpg","36","0","312"
"3","3","encoding","encoding","141","Mask_Happy.jpg","36","0","276"
"3","3","encoding","encoding","142","WaterWell.jpg","36","0","268"
"3","3","encoding","encoding","143","DarthVader.jpg","37","0","279"
"3","3","encoding","encoding","144","Horseshoe.jpg","36","0","287"
"3","3","encoding","encoding","145","Sieve_SideView.jpg","37","0","1280"
"3","3","encoding","encoding","146","Apple_Candy.jpg","37","0","278"
"3","3","encoding","encoding","147","TimerKitchen.jpg","37","0","250"
"3","3","encoding","encoding","148","PenHolder.jpg","36","0","255"
"3","3","encoding","encoding","149","Stroller.jpg","37","0","250"
"3","3","encoding","encoding","150","VacuumHandheld.jpg","37","0","247"
"3","3","encoding","encoding","151","Clothespin_Red.jpg","36","0","463"
"3","3","encoding","encoding","152","Tape_Washi.jpg","37","0","253"
"3","3","encoding","encoding","153","DentalProbe.jpg","36","0","467"
"3","3","encoding","encoding","154","Leaf_Clover.jpg","36","0","250"
"3","3","encoding","encoding","155","Speakers_Theatre.jpg","37","0","403"
"3","3","encoding","encoding","156","SpaceRover.jpg","36","0","271"
"3","3","encoding","encoding","157","CashRegister_Antique.jpg","36","0","264"
"3","3","encoding","encoding","158","KitchenCloth.jpg","36","0","272"
"3","3","encoding","encoding","159","Compact_Powder.jpg","37","0","332"
"3","3","encoding","encoding","160","Scroll.jpg","37","0","105"
"3","3","encoding","encoding","161","Owl.jpg","37","0","274"
"3","3","encoding","encoding","162","Boardgame_ChineseCheckers.jpg","36","0","445"
"3","3","encoding","encoding","163","Fencing_HelmetSwords.jpg","36","0","314"
"3","3","encoding","encoding","164","Compact_Mirror.jpg","36","0","270"
"3","3","encoding","encoding","165","KeyHook_Occupied.jpg","36","0","6"
"3","3","encoding","encoding","166","Staircase_Straight.jpg","36","0","253"
"3","3","encoding","encoding","167","Toilet.jpg","36","0","39"
"3","3","encoding","encoding","168","Teabag.jpg","36","0","152"
"3","3","encoding","encoding","169","Mat_Bamboo.jpg","37","0","236"
"3","3","encoding","encoding","170","Crate_Wine.jpg","36","0","252"
"3","3","encoding","encoding","171","Stone_AncientWriting.jpg","0","0","2000"
"3","3","encoding","encoding","172","Jug_Milk.jpg","36","0","1240"
"3","3","encoding","encoding","173","Boat_Trailer.jpg","37","0","766"
"3","3","encoding","encoding","174","Ball_Baseball.jpg","36","0","169"
"3","3","encoding","encoding","175","Shed.jpg","36","0","302"
"3","3","encoding","encoding","176","Pretzel_Sticks.jpg","37","0","373"
"3","3","encoding","encoding","177","Icepick.jpg","37","0","137"
"3","3","retrieval","new_objects","1","MortarPestle_WhiteMarble.jpg","37","1","1284"
"3","3","retrieval","new_objects","2","TelephoneJack.jpg","37","1","36"
"3","3","retrieval","new_objects","3","Spraybottle.jpg","36","0","1014"
"3","3","retrieval","old_objects","4","DentalProbe.jpg","37","0","275"
"3","3","retrieval","new_objects","5","Freezer.jpg","36","0","310"
"3","3","retrieval","new_objects","6","Lettuce_Iceberg.jpg","36","0","370"
"3","3","retrieval","old_objects","7","Heater_ElectricPortable.jpg","37","0","252"
"3","3","retrieval","new_objects","8","Cymbals.jpg","36","0","492"
"3","3","retrieval","new_objects","9","Desk_White.jpg","36","0","489"
"3","3","retrieval","old_objects","10","Boat_Trailer.jpg","0","0","2000"
"3","3","retrieval","old_objects","11","Briefcase_Silver.jpg","0","0","2000"
"3","3","retrieval","old_objects","12","Autocreeper.jpg","36","1","60"
"3","3","retrieval","old_objects","13","Icepick.jpg","36","1","220"
"3","3","retrieval","old_objects","14","Mirror_Makeup.jpg","36","1","1503"
"3","3","retrieval","old_objects","15","Pacifier.jpg","0","0","2000"
"3","3","retrieval","old_objects","16","Pouch_Red.jpg","36","1","323"
"3","3","retrieval","old_objects","17","TimerKitchen.jpg","36","1","428"
"3","3","retrieval","old_objects","18","Desk_Office.jpg","36","1","774"
"3","3","retrieval","old_objects","19","Phone_Wireless.jpg","36","1","308"
"3","3","retrieval","old_objects","20","Carousel.jpg","36","1","260"
"3","3","retrieval","new_objects","21","HotWaterBottle.jpg","36","0","526"
"3","3","retrieval","old_objects","22","StickyTack.jpg","36","1","267"
"3","3","retrieval","old_objects","23","Ball_Baseball.jpg","36","1","281"
"3","3","retrieval","new_objects","24","Computer_CPU.jpg","0","0","2000"
"3","3","retrieval","new_objects","25","Jar_Cotton.jpg","37","1","282"
"3","3","retrieval","old_objects","26","Machine_Bread.jpg","36","1","522"
"3","3","retrieval","new_objects","27","CoffeeLid.jpg","36","0","292"
"3","3","retrieval","new_objects","28","Box_JeweleryWooden.jpg","36","0","268"
"3","3","retrieval","new_objects","29","Box_Cutlery.jpg","36","0","310"
"3","3","retrieval","old_objects","30","Cup_sippy.jpg","36","1","440"
"3","3","retrieval","old_objects","31","Match.jpg","37","0","290"
"3","3","retrieval","new_objects","32","SkiPoles.jpg","36","0","536"
"3","3","retrieval","old_objects","33","Currants.jpg","36","1","262"
"3","3","retrieval","old_objects","34","Stove_Portable.jpg","37","0","430"
"3","3","retrieval","new_objects","35","Cannoli.jpg","0","0","2000"
"3","3","retrieval","new_objects","36","Cup_Bathroom.jpg","36","0","306"
"3","3","retrieval","old_objects","37","Box_Jewellery.jpg","36","1","267"
"3","3","retrieval","old_objects","38","WaterWell.jpg","37","0","361"
"3","3","retrieval","old_objects","39","IceCrusher.jpg","37","0","538"
"3","3","retrieval","old_objects","40","Bowtie.jpg","0","0","2000"
"3","3","retrieval","old_objects","41","Speaker_Computer.jpg","37","0","268"
"3","3","retrieval","old_objects","42","Honeydew_yellow.jpg","36","1","509"
"3","3","retrieval","new_objects","43","Boat_Sail.jpg","36","0","460"
"3","3","retrieval","new_objects","44","AmberWithMosquito.jpg","36","0","492"
"3","3","retrieval","new_objects","45","Bottle_Spray.jpg","0","0","2000"
"3","3","retrieval","new_objects","46","Cheese_Platter.jpg","36","0","453"
"3","3","retrieval","new_objects","47","Stationary.jpg","36","0","512"
"3","3","retrieval","new_objects","48","Guitar_Electric.jpg","36","0","471"
"3","3","retrieval","old_objects","49","Mat_Bamboo.jpg","36","1","254"
"3","3","retrieval","old_objects","50","TartStrawberry.jpg","36","1","304"
"3","3","retrieval","new_objects","51","Crayon_Green.jpg","36","0","255"
"3","3","retrieval","old_objects","52","Statue_SouthAmerican.jpg","37","0","210"
"3","3","retrieval","old_objects","53","Origami_Ox.jpg","36","1","305"
"3","3","retrieval","new_objects","54","Notepad.jpg","0","0","2000"
"3","3","retrieval","new_objects","55","Ship_Cruise.jpg","37","1","16"
"3","3","retrieval","new_objects","56","Boat_Ferry.jpg","37","1","310"
"3","3","retrieval","old_objects","57","Watch.jpg","36","1","507"
"3","3","retrieval","new_objects","58","Flower_Tulip.jpg","36","0","251"
"3","3","retrieval","old_objects","59","Tambourine.jpg","37","0","291"
"3","3","retrieval","old_objects","60","Keychain_Leather.jpg","36","1","712"
"3","3","retrieval","old_objects","62","Boardgame_ChineseCheckers.jpg","0","0","2000"
"3","3","retrieval","new_objects","63","SoundMixer_Blue.jpg","37","1","273"
"3","3","retrieval","new_objects","64","PuppetTheatre_BlueRed.jpg","37","1","265"
"3","3","retrieval","new_objects","65","Jacks.jpg","36","0","975"
"3","3","retrieval","old_objects","66","CookieCutter_Tree.jpg","36","1","177"
"3","3","retrieval","old_objects","67","Bowl_Lemons.jpg","37","0","513"
"3","3","retrieval","new_objects","68","FoodMill.jpg","36","0","543"
"3","3","retrieval","old_objects","69","Dog_CockerSpaniel.jpg","37","0","390"
"3","3","retrieval","old_objects","70","Tuxedo.jpg","37","0","280"
"3","3","retrieval","new_objects","71","Gloves_Winter.jpg","37","1","602"
"3","3","retrieval","new_objects","72","Bulldozer.jpg","37","1","306"
"3","3","retrieval","new_objects","73","Pricegun.jpg","36","0","452"
"3","3","retrieval","old_objects","74","Glove_Rubber.jpg","37","0","508"
"3","3","retrieval","old_objects","75","Stovetop.jpg","36","1","259"
"3","3","retrieval","new_objects","76","GiftBow.jpg","37","1","339"
"3","3","retrieval","new_objects","77","DryRack_Dishes.jpg","37","1","220"
"3","3","retrieval","new_objects","78","KnifeHolder.jpg","0","0","2000"
"3","3","retrieval","old_objects","79","Container_RedPlastic.jpg","37","0","313"
"3","3","retrieval","old_objects","80","Dolphine.jpg","36","1","260"
"3","3","retrieval","old_objects","81","Toilet.jpg","37","0","345"
"3","3","retrieval","new_objects","82","Bicycle_Adult.jpg","37","1","300"
"3","3","retrieval","new_objects","83","Clock_Grandfather.jpg","37","1","280"
"3","3","retrieval","new_objects","84","Puffin.jpg","37","1","1040"
"3","3","retrieval","new_objects","85","Puzzle_Piece.jpg","37","1","553"
"3","3","retrieval","new_objects","86","CementFinisher.jpg","0","0","2000"
"3","3","retrieval","old_objects","87","Stroller.jpg","36","1","294"
"3","3","retrieval","new_objects","88","ControlPanel.jpg","37","1","421"
"3","3","retrieval","new_objects","89","AnsweringMachine.jpg","0","0","2000"
"3","3","retrieval","old_objects","90","Stamp.jpg","37","0","1309"
"3","3","retrieval","old_objects","91","Milkshake_Strawberry.jpg","37","0","260"
"3","3","retrieval","new_objects","92","BridgeWooden.jpg","37","1","289"
"3","3","retrieval","old_objects","93","Tractor_Orange.jpg","37","0","472"
"3","3","retrieval","old_objects","94","Tape_Washi.jpg","37","0","259"
"3","3","retrieval","old_objects","95","MechanicalSpring.jpg","37","0","280"
"3","3","retrieval","old_objects","96","Fruit_Carambola.jpg","0","0","2000"
"3","3","retrieval","old_objects","97","Crate_Wine.jpg","0","0","2000"
"3","3","retrieval","old_objects","98","Brush_Shaving.jpg","37","0","293"
"3","3","retrieval","new_objects","99","Broom_Long.jpg","36","0","982"
"3","3","retrieval","new_objects","100","LeafBlower.jpg","37","1","1247"
"3","3","retrieval","new_objects","101","Telescope.jpg","37","1","1728"
"3","3","retrieval","new_objects","102","Ring_Diamond.jpg","37","1","280"
"3","3","retrieval","new_objects","103","Lei.jpg","0","0","2000"
"3","3","retrieval","new_objects","104","Cage_Bird.jpg","37","1","302"
"3","3","retrieval","new_objects","105","Trash_Medical.jpg","36","0","446"
"3","3","retrieval","old_objects","106","Stone_AncientWriting.jpg","0","0","2000"
"3","3","retrieval","old_objects","107","Mirror_Handheld.jpg","37","0","1603"
"3","3","retrieval","old_objects","108","Toy_Taxi.jpg","37","0","357"
"3","3","retrieval","new_objects","109","Drum_Bongos.jpg","37","1","263"
"3","3","retrieval","new_objects","110","KiddiePool.jpg","37","1","270"
"3","3","retrieval","new_objects","111","Nyala.jpg","0","0","2000"
"3","3","retrieval","old_objects","112","ShoulderPads.jpg","36","1","270"
"3","3","retrieval","old_objects","113","Kiwi.jpg","37","0","982"
"3","3","retrieval","old_objects","114","DoorHandle.jpg","0","0","2000"
"3","3","retrieval","old_objects","115","Sled.jpg","37","0","447"
"3","3","retrieval","new_objects","116","Horn_French.jpg","37","1","1022"
"3","3","retrieval","old_objects","117","Aquarium.jpg","0","0","2000"
"3","3","retrieval","new_objects","118","Drum_Cymbal.jpg","37","1","343"
"3","3","retrieval","new_objects","119","InflatableSleepingBag.jpg","37","1","281"
"3","3","retrieval","new_objects","120","Cassette_Audio.jpg","0","0","2000"
"3","3","retrieval","old_objects","121","Flower_Orchid.jpg","37","0","268"
"3","3","retrieval","old_objects","123","Dresser_1.jpg","37","0","1605"
"3","3","retrieval","new_objects","124","PumpBreast.jpg","37","1","275"
"3","3","retrieval","old_objects","125","Iguana.jpg","0","0","2000"
"3","3","retrieval","old_objects","126","Cooler.jpg","37","0","292"
"3","3","retrieval","new_objects","127","Oneholepunch.jpg","37","1","337"
"3","3","retrieval","new_objects","128","Cheque.jpg","0","0","2000"
"3","3","retrieval","new_objects","129","Camera_Antique.jpg","37","1","1021"
"3","3","retrieval","new_objects","130","Ostrich.jpg","37","1","848"
"3","3","retrieval","new_objects","131","Bone.jpg","37","1","1859"
"3","3","retrieval","new_objects","132","JumpingJack.jpg","36","0","453"
"3","3","retrieval","old_objects","133","RecorderInstrument.jpg","37","0","303"
"3","3","retrieval","new_objects","134","ChalkLineTool.jpg","0","0","2000"
"3","3","retrieval","new_objects","135","Playground.jpg","36","0","547"
"3","3","retrieval","new_objects","136","fries.jpg","0","0","2000"
"3","3","retrieval","old_objects","137","OrangeBlood.jpg","0","0","2000"
"3","3","retrieval","old_objects","138","Jug_Milk.jpg","0","0","2000"
"3","3","retrieval","new_objects","139","Lychee.jpg","37","1","293"
"3","3","retrieval","new_objects","140","Decoration_Chinese.jpg","37","1","312"
"3","3","retrieval","new_objects","141","Toy_BlocksPlastic Colourful.jpg","36","0","513"
"3","3","retrieval","old_objects","142","SatelliteDish.jpg","37","0","273"
"3","3","retrieval","old_objects","143","Chipmunk.jpg","36","1","253"
"3","3","retrieval","old_objects","144","Walkman.jpg","37","0","182"
"3","3","retrieval","new_objects","145","Headset.jpg","37","1","217"
"3","3","retrieval","old_objects","146","Horseshoe.jpg","37","0","314"
"3","3","retrieval","new_objects","147","Stick_IceHockey.jpg","36","0","279"
"3","3","retrieval","old_objects","148","DoorKnob.jpg","36","1","276"
"3","3","retrieval","new_objects","149","Cup_Fruits.jpg","37","1","227"
"3","3","retrieval","old_objects","150","Pipe.jpg","36","1","571"
"3","3","retrieval","new_objects","151","PaintCan.jpg","0","0","2000"
"3","3","retrieval","new_objects","152","Paddle_Bread.jpg","37","1","472"
"3","3","retrieval","new_objects","153","Nuts_Walnut.jpg","0","0","2000"
"3","3","retrieval","new_objects","154","Chairs_Stacked.jpg","0","0","2000"
"3","3","retrieval","new_objects","155","Tree_ChristmasMini.jpg","36","0","76"
"3","3","retrieval","new_objects","156","Candle_ChristmasDecor.jpg","0","0","2000"
"3","3","retrieval","new_objects","157","LampPost_WhiteOrnate.jpg","37","1","288"
"3","3","retrieval","old_objects","158","Colander.jpg","37","0","362"
"3","3","retrieval","old_objects","159","Tape_Dispenser.jpg","37","0","290"
"3","3","retrieval","old_objects","160","Card_Deck.jpg","37","0","304"
"3","3","retrieval","old_objects","161","Mailbox_Antique.jpg","37","0","282"
"3","3","retrieval","old_objects","162","Clip_Binder.jpg","0","0","2000"
"3","3","retrieval","old_objects","163","Shoe_Pink.jpg","36","1","246"
"3","3","retrieval","new_objects","164","WorldMap.jpg","37","1","317"
"3","3","retrieval","old_objects","165","VacuumHandheld.jpg","37","0","259"
"3","3","retrieval","new_objects","166","Light_PostIsolated.jpg","36","0","264"
"3","3","retrieval","old_objects","167","PocketKnife.jpg","0","0","2000"
"3","3","retrieval","old_objects","168","Pretzel_Sticks.jpg","37","0","280"
"3","3","retrieval","old_objects","169","Statue_Cat.jpg","37","0","264"
"3","3","retrieval","old_objects","170","LightHouse.jpg","36","1","240"
"3","3","retrieval","new_objects","171","Flute_Tin.jpg","36","0","251"
"3","3","retrieval","new_objects","172","Brush_Cleaning.jpg","37","1","462"
"3","3","retrieval","new_objects","173","PaintRollTray.jpg","37","1","232"
"3","3","retrieval","old_objects","174","Case_WoodenOrnate.jpg","37","0","274"
"3","3","retrieval","old_objects","175","KitchenCloth.jpg","0","0","2000"
"3","3","retrieval","old_objects","176","Paddle_Ball.jpg","37","0","44"
"3","3","retrieval","old_objects","177","HedgeShears.jpg","36","1","290"
"3","3","retrieval","new_objects","178","Film_Roll.jpg","37","1","236"
"3","3","retrieval","new_objects","179","RollerBlade.jpg","0","0","2000"
"3","3","retrieval","new_objects","180","Jacket_Jean.jpg","37","1","305"
"3","3","retrieval","new_objects","181","MousepadAndMouse.jpg","37","1","342"
"3","3","retrieval","new_objects","182","SoapDish.jpg","37","1","461"
"3","3","retrieval","old_objects","184","Oven.jpg","37","0","536"
"3","3","retrieval","new_objects","185","Wallet_ClosedBlack.jpg","37","1","254"
"3","3","retrieval","old_objects","186","Branch.jpg","37","0","539"
"3","3","retrieval","new_objects","187","Chicken_FriedWing.jpg","37","1","288"
"3","3","retrieval","new_objects","188","Flower_Sun.jpg","37","1","268"
"3","3","retrieval","new_objects","189","Car_Ferrari.jpg","36","0","259"
"3","3","retrieval","new_objects","190","Clothespin_Beige.jpg","37","1","492"
"3","3","retrieval","new_objects","191","Piano_Upright.jpg","37","1","99"
"3","3","retrieval","old_objects","192","Compact_Powder.jpg","37","0","243"
"3","3","retrieval","old_objects","193","ChessPiece_Bishop.jpg","36","1","360"
"3","3","retrieval","old_objects","194","House_CeramicGingerbread.jpg","36","1","285"
"3","3","retrieval","old_objects","195","Table_PingPong.jpg","36","1","337"
"3","3","retrieval","old_objects","196","Tube_Glue.jpg","36","1","12"
"3","3","retrieval","new_objects","197","Hat_Visor.jpg","37","1","304"
"3","3","retrieval","old_objects","198","Platter_Vegetables.jpg","37","0","204"
"3","3","retrieval","old_objects","199","Gun_Glue.jpg","37","0","294"
"3","3","retrieval","old_objects","200","Thermos_Decorated.jpg","37","0","249"
"3","3","retrieval","old_objects","201","Asparagus.jpg","36","1","710"
"3","3","retrieval","new_objects","202","Avocado.jpg","37","1","262"
"3","3","retrieval","old_objects","203","HumanSkull.jpg","37","0","748"
"3","3","retrieval","new_objects","204","Lynx.jpg","37","1","307"
"3","3","retrieval","old_objects","205","Jar_Strawberry.jpg","37","0","341"
"3","3","retrieval","old_objects","206","Tray_Cafeteria.jpg","37","0","466"
"3","3","retrieval","new_objects","207","IceCubes.jpg","37","1","168"
"3","3","retrieval","new_objects","208","Toy_TrailerAirport.jpg","36","0","1788"
"3","3","retrieval","new_objects","209","EspressoMachine.jpg","37","1","277"
"3","3","retrieval","new_objects","210","Scoop_Flour.jpg","37","1","1257"
"3","3","retrieval","new_objects","211","Makeup_Bag.jpg","37","1","432"
"3","3","retrieval","new_objects","212","Candleholder_Tall.jpg","37","1","1255"
"3","3","retrieval","new_objects","213","Box_Apples.jpg","37","1","182"
"3","3","retrieval","new_objects","214","Can_GasSpout.jpg","0","0","2000"
"3","3","retrieval","old_objects","215","Cross.jpg","36","1","255"
"3","3","retrieval","new_objects","216","Mattress.jpg","37","1","555"
"3","3","retrieval","new_objects","217","Toy_MrPotatoHeadjpg.jpg","36","0","544"
"3","3","retrieval","new_objects","218","ElectricOutlet.jpg","36","0","426"
"3","3","retrieval","old_objects","219","Mask_Happy.jpg","0","0","2000"
"3","3","retrieval","old_objects","220","Celery.jpg","37","0","304"
"3","3","retrieval","old_objects","221","Windmill_Building.jpg","36","1","287"
"3","3","retrieval","new_objects","222","Hook_Double.jpg","37","1","329"
"3","3","retrieval","new_objects","223","WaterFountain.jpg","37","1","161"
"3","3","retrieval","old_objects","224","MonkeyPuppet.jpg","37","0","291"
"3","3","retrieval","new_objects","225","Sign_OneWay.jpg","37","1","349"
"3","3","retrieval","old_objects","226","Necklace_Black.jpg","0","0","2000"
"3","3","retrieval","new_objects","227","Guacamole.jpg","0","0","2000"
"3","3","retrieval","new_objects","228","Slide.jpg","0","0","2000"
"3","3","retrieval","old_objects","229","Crowbar.jpg","0","0","2000"
"3","3","retrieval","new_objects","230","Umbrella_Classic.jpg","37","1","305"
"3","3","retrieval","old_objects","231","Hat_Police.jpg","36","1","272"
"3","3","retrieval","new_objects","232","Pants.jpg","37","1","243"
"3","3","retrieval","old_objects","233","SeatBuckle.jpg","37","0","535"
"3","3","retrieval","old_objects","234","ElasticBand.jpg","37","0","609"
"3","3","retrieval","old_objects","235","Shed.jpg","37","0","228"
"3","3","retrieval","old_objects","236","CandyDispenser.jpg","37","0","303"
"3","3","retrieval","new_objects","237","Bag_Diaper.jpg","37","1","326"
"3","3","retrieval","old_objects","238","DoorBolt.jpg","0","0","2000"
"3","3","retrieval","new_objects","239","Backpack_Travel.jpg","37","1","302"
"3","3","retrieval","old_objects","240","CoffeePot.jpg","37","0","1013"
"3","3","retrieval","new_objects","241","Jug_ClayAncient.jpg","36","0","1245"
"3","3","retrieval","new_objects","242","Hanger.jpg","36","0","251"
"3","3","retrieval","new_objects","243","Tractor_Yellow.jpg","37","1","181"
"3","3","retrieval","old_objects","245","SaladCaesar.jpg","0","0","2000"
"3","3","retrieval","old_objects","246","Scroll.jpg","37","0","711"
"3","3","retrieval","old_objects","247","Faucet.jpg","0","0","2000"
"3","3","retrieval","old_objects","248","Apple_Candy.jpg","37","0","248"
"3","3","retrieval","new_objects","249","Caribou.jpg","37","1","507"
"3","3","retrieval","old_objects","250","CigarCase.jpg","37","0","280"
"3","3","retrieval","old_objects","251","Leaf_Clover.jpg","0","0","2000"
"3","3","retrieval","old_objects","252","Tripod.jpg","36","1","275"
"3","3","retrieval","old_objects","253","DarthVader.jpg","37","0","579"
"3","3","retrieval","new_objects","254","Dog_Bulldog.jpg","36","0","210"
"3","3","retrieval","old_objects","255","WaterColorPaintset.jpg","37","0","307"
"3","3","retrieval","new_objects","256","HairBand.jpg","36","0","245"
"3","3","retrieval","old_objects","257","MeasuringTape.jpg","0","0","2000"
"3","3","retrieval","old_objects","258","PenStand.jpg","37","0","313"
"3","3","retrieval","old_objects","259","Jar_Money.jpg","0","0","2000"
"3","3","retrieval","old_objects","260","Crackers_Ritz.jpg","0","0","2000"
"3","3","retrieval","old_objects","261","Staircase_Straight.jpg","36","1","319"
"3","3","retrieval","new_objects","262","HairCurler.jpg","0","0","2000"
"3","3","retrieval","old_objects","263","BasketballHoop.jpg","0","0","2000"
"3","3","retrieval","old_objects","264","Brush_Winter.jpg","36","1","355"
"3","3","retrieval","old_objects","265","Squash_Pumpkin.jpg","37","0","342"
"3","3","retrieval","new_objects","266","Bottle_Liquor.jpg","36","0","1"
"3","3","retrieval","new_objects","267","RemoteControl.jpg","37","1","250"
"3","3","retrieval","old_objects","268","WireStripper.jpg","37","0","272"
"3","3","retrieval","old_objects","269","Makeup_Foundation.jpg","36","1","184"
"3","3","retrieval","new_objects","270","FuzzyDice.jpg","36","0","362"
"3","3","retrieval","new_objects","271","Bells_Christmas.jpg","36","0","514"
"3","3","retrieval","new_objects","272","Stethoscope.jpg","37","1","244"
"3","3","retrieval","old_objects","273","BabyMonitor.jpg","37","0","263"
"3","3","retrieval","old_objects","274","Bottle_Bleach.jpg","36","1","279"
"3","3","retrieval","old_objects","275","CashRegister_Antique.jpg","36","1","289"
"3","3","retrieval","old_objects","276","Pumpkin.jpg","0","0","2000"
"3","3","retrieval","old_objects","277","PeriodicTable.jpg","0","0","2000"
"3","3","retrieval","new_objects","278","PuppetTheatre_WhiteGold.jpg","36","0","418"
"3","3","retrieval","new_objects","279","Statue_Buddha.jpg","37","1","540"
"3","3","retrieval","old_objects","280","Tweezers.jpg","37","0","286"
"3","3","retrieval","new_objects","281","DayPlanner.jpg","36","0","349"
"3","3","retrieval","new_objects","282","Sandwich_Ham.jpg","36","0","302"
"3","3","retrieval","new_objects","283","Pasta_Shell.jpg","0","0","2000"
"3","3","retrieval","old_objects","284","Toy_Octopus.jpg","37","0","764"
"3","3","retrieval","new_objects","285","RadioactiveContainer.jpg","36","0","1500"
"3","3","retrieval","old_objects","286","MagazineRoll.jpg","37","0","16"
"3","3","retrieval","old_objects","287","Kangaroo.jpg","36","1","769"
"3","3","retrieval","new_objects","288","Hoodie.jpg","0","0","2000"
"3","3","retrieval","old_objects","289","WagonPilgrim.jpg","36","1","2"
"3","3","retrieval","old_objects","290","Crab.jpg","0","0","2000"
"3","3","retrieval","new_objects","291","Airplane_Commercial.jpg","36","0","200"
"3","3","retrieval","old_objects","292","Blanket.jpg","36","1","268"
"3","3","retrieval","old_objects","293","Piano_Keyboard.jpg","37","0","256"
"3","3","retrieval","old_objects","294","MannequinBust.jpg","0","0","2000"
"3","3","retrieval","new_objects","295","Ball_Football.jpg","37","1","272"
"3","3","retrieval","new_objects","296","Lamp_TableWhite.jpg","36","0","291"
"3","3","retrieval","old_objects","297","Cable_AudioSplitter.jpg","0","0","2000"
"3","3","retrieval","new_objects","298","WatermelonSlice.jpg","0","0","2000"
"3","3","retrieval","new_objects","299","PropellerFan.jpg","0","0","2000"
"3","3","retrieval","old_objects","300","Amp.jpg","36","1","806"
"3","3","retrieval","old_objects","301","Sieve_SideView.jpg","0","0","2000"
"3","3","retrieval","new_objects","302","BusStop.jpg","36","0","743"
"3","3","retrieval","old_objects","303","Noose.jpg","37","0","256"
"3","3","retrieval","new_objects","304","Milkshake_Chocolate.jpg","36","0","958"
"3","3","retrieval","new_objects","306","Flower_Rose.jpg","36","0","1434"
"3","3","retrieval","old_objects","307","AirCompressor.jpg","36","1","258"
"3","3","retrieval","old_objects","308","Teabag.jpg","36","1","221"
"3","3","retrieval","old_objects","309","Sign_SpeedLimit30.jpg","36","1","419"
"3","3","retrieval","new_objects","310","Stick_Bridge.jpg","0","0","2000"
"3","3","retrieval","new_objects","311","Pineapple.jpg","36","0","265"
"3","3","retrieval","old_objects","312","SnowmanDecor.jpg","36","1","252"
"3","3","retrieval","new_objects","313","Can_Oblong.jpg","37","1","293"
"3","3","retrieval","old_objects","314","Toy_Slide.jpg","36","1","489"
"3","3","retrieval","old_objects","315","Speakers_Theatre.jpg","36","1","19"
"3","3","retrieval","old_objects","316","Compact_Mirror.jpg","36","1","259"
"3","3","retrieval","new_objects","317","Bag_Hand.jpg","37","1","286"
"3","3","retrieval","new_objects","318","SkullDeer.jpg","36","0","214"
"3","3","retrieval","new_objects","319","Trumpet.jpg","36","0","279"
"3","3","retrieval","old_objects","320","Fencing_HelmetSwords.jpg","37","0","37"
"3","3","retrieval","new_objects","321","Wheel_Steering.jpg","36","0","68"
"3","3","retrieval","old_objects","322","Trunk.jpg","37","0","2"
"3","3","retrieval","new_objects","323","BicycleGear.jpg","37","1","309"
"3","3","retrieval","new_objects","324","CashRegister_Modern.jpg","37","1","257"
"3","3","retrieval","old_objects","325","WashingMachine.jpg","36","1","0"
"3","3","retrieval","new_objects","326","Hat_Party.jpg","36","0","328"
"3","3","retrieval","new_objects","327","Toy_Boat.jpg","36","0","472"
"3","3","retrieval","new_objects","328","MeatRaw.jpg","37","1","142"
"3","3","retrieval","new_objects","329","Ball_Basketball.jpg","0","0","2000"
"3","3","retrieval","new_objects","330","CoolingFan_Engine.jpg","36","0","1539"
"3","3","retrieval","new_objects","331","Makeup_Eyeshadow.jpg","37","1","307"
"3","3","retrieval","new_objects","332","CookieCutter_Bell.jpg","36","0","348"
"3","3","retrieval","old_objects","333","Garbage_GreenBin.jpg","0","0","2000"
"3","3","retrieval","old_objects","334","SpaceRover.jpg","36","1","305"
"3","3","retrieval","new_objects","335","Motorcycle.jpg","37","1","246"
"3","3","retrieval","old_objects","336","Clothespin_Red.jpg","36","1","310"
"3","3","retrieval","new_objects","337","Hat_Tuque.jpg","36","0","312"
"3","3","retrieval","new_objects","338","PumiceStone.jpg","36","0","291"
"3","3","retrieval","new_objects","339","WateringCan_PlasticDarkGreen.jpg","37","1","286"
"3","3","retrieval","old_objects","340","KeyHook_Occupied.jpg","36","1","745"
"3","3","retrieval","new_objects","341","Drink_Cocktail.jpg","36","0","243"
"3","3","retrieval","old_objects","342","Owl.jpg","36","1","285"
"3","3","retrieval","new_objects","343","Ball_Golf.jpg","37","1","38"
"3","3","retrieval","old_objects","344","StampAndSeal.jpg","0","0","2000"
"3","3","retrieval","old_objects","345","AmpMeter.jpg","37","0","653"
"3","3","retrieval","new_objects","346","PortaPotty.jpg","37","1","239"
"3","3","retrieval","old_objects","347","Battery_AA.jpg","37","0","272"
"3","3","retrieval","old_objects","348","Carabiner_Orange.jpg","36","1","305"
"3","3","retrieval","new_objects","349","Guitar_Acoustic.jpg","36","0","257"
"3","3","retrieval","new_objects","350","Kite_Rainbow.jpg","37","1","228"
"3","3","retrieval","old_objects","351","PenHolder.jpg","36","1","271"
"3","3","retrieval","new_objects","352","Bottle_Champagne.jpg","36","0","217"
"3","3","retrieval","new_objects","353","Bathtub.jpg","36","0","401"
"3","3","retrieval","old_objects","354","SpongeScrubbing.jpg","36","1","745"
"3","3","retrieval","old_objects","355","Statue_ManHorse.jpg","36","1","269"
"3","3","demographics_block","gender","1","Statue_ManHorse.jpg","Female","1","20157"
"3","3","demographics_block","age","1","Statue_ManHorse.jpg","28","1","20157"
"3","3","demographics_block","education","1","Statue_ManHorse.jpg","16","1","20157"
"3","3","demographics_block","left_right_handed","2","Statue_ManHorse.jpg","Right","1","8105"
"3","3","demographics_block","raceoption1","2","Statue_ManHorse.jpg","0","1","8105"
"3","3","demographics_block","raceoption2","2","Statue_ManHorse.jpg","","1","8105"
"3","3","demographics_block","raceoption3","2","Statue_ManHorse.jpg","","1","8105"
"3","3","demographics_block","raceoption4","2","Statue_ManHorse.jpg","","1","8105"
"3","3","demographics_block","raceoption5","2","Statue_ManHorse.jpg","","1","8105"
"3","3","demographics_block","raceoption6","2","Statue_ManHorse.jpg","","1","8105"
"3","3","demographics_block","raceoption7","2","Statue_ManHorse.jpg","","1","8105"
"3","3","demographics_block","raceoption8","2","Statue_ManHorse.jpg","","1","8105"
"3","3","demographics_block","raceoption9","2","Statue_ManHorse.jpg","","1","8105"
"3","3","demographics_block","raceother","2","Statue_ManHorse.jpg","","1","8105"
"3","3","demographics_block","raceother","2","Statue_ManHorse.jpg","","1","8105"
"3","3","demographics_block","english_language","2","Statue_ManHorse.jpg","Yes","1","8105"
"3","3","demographics_block","english_languageother","2","Statue_ManHorse.jpg","","1","8105"
"3","3","demographics_block","eyesight","3","Statue_ManHorse.jpg","Yes","1","5924"
"3","3","demographics_block","colorblind","3","Statue_ManHorse.jpg","No","1","5924"
"3","3","worker_id_block","worker_id_textbox","1","Statue_ManHorse.jpg","A2UM5VTQ1Q4TGU","1","34602"
"6","6","encoding","encoding","1","Garbage_GreenBin.jpg","36","0","1312"
"6","6","encoding","encoding","2","ChessPiece_Bishop.jpg","37","0","776"
"6","6","encoding","encoding","3","Sled.jpg","36","0","959"
"6","6","encoding","encoding","4","Dolphine.jpg","36","0","865"
"6","6","encoding","encoding","5","Tambourine.jpg","37","0","1214"
"6","6","encoding","encoding","6","Kangaroo.jpg","36","0","661"
"6","6","encoding","encoding","7","Mat_Bamboo.jpg","36","0","1645"
"6","6","encoding","encoding","8","Celery.jpg","37","0","1109"
"6","6","encoding","encoding","9","DoorHandle.jpg","37","0","1060"
"6","6","encoding","encoding","10","Phone_Wireless.jpg","37","0","923"
"6","6","encoding","encoding","11","Mailbox_Antique.jpg","36","0","1714"
"6","6","encoding","encoding","12","Mirror_Makeup.jpg","37","0","1475"
"6","6","encoding","encoding","13","Battery_AA.jpg","37","0","873"
"6","6","encoding","encoding","14","Machine_Bread.jpg","36","0","1145"
"6","6","encoding","encoding","15","Leaf_Clover.jpg","37","0","952"
"6","6","encoding","encoding","16","LightHouse.jpg","36","0","985"
"6","6","encoding","encoding","17","Match.jpg","37","0","936"
"6","6","encoding","encoding","18","Milkshake_Strawberry.jpg","37","0","1007"
"6","6","encoding","encoding","19","Compact_Powder.jpg","37","0","910"
"6","6","encoding","encoding","20","Statue_ManHorse.jpg","36","0","1181"
"6","6","encoding","encoding","21","Shed.jpg","36","0","900"
"6","6","encoding","encoding","22","Brush_Shaving.jpg","37","0","781"
"6","6","encoding","encoding","23","Desk_Office.jpg","36","0","1011"
"6","6","encoding","encoding","24","ShoulderPads.jpg","36","0","821"
"6","6","encoding","encoding","25","Blanket.jpg","37","0","954"
"6","6","encoding","encoding","26","SpongeScrubbing.jpg","37","0","665"
"6","6","encoding","encoding","27","Sign_SpeedLimit30.jpg","36","0","1169"
"6","6","encoding","encoding","28","Carousel.jpg","37","0","1696"
"6","6","encoding","encoding","29","AmpMeter.jpg","37","0","904"
"6","6","encoding","encoding","30","Boardgame_ChineseCheckers.jpg","36","0","1087"
"6","6","encoding","encoding","31","Carabiner_Orange.jpg","37","0","1518"
"6","6","encoding","encoding","32","Tape_Dispenser.jpg","37","0","1286"
"6","6","encoding","encoding","33","Glove_Rubber.jpg","37","0","965"
"6","6","encoding","encoding","34","Amp.jpg","36","0","1189"
"6","6","encoding","encoding","35","Heater_ElectricPortable.jpg","36","0","963"
"6","6","encoding","encoding","36","Briefcase_Silver.jpg","36","0","1380"
"6","6","encoding","encoding","37","Dog_CockerSpaniel.jpg","36","0","779"
"6","6","encoding","encoding","38","PenStand.jpg","37","0","978"
"6","6","encoding","encoding","39","Platter_Vegetables.jpg","36","0","1098"
"6","6","encoding","encoding","40","SnowmanDecor.jpg","36","0","1346"
"6","6","encoding","encoding","41","DoorKnob.jpg","37","0","824"
"6","6","encoding","encoding","42","Colander.jpg","36","0","1128"
"6","6","encoding","encoding","43","Stovetop.jpg","37","0","1231"
"6","6","encoding","encoding","44","Hat_Police.jpg","37","0","1057"
"6","6","encoding","encoding","45","Compact_Mirror.jpg","37","0","790"
"6","6","encoding","encoding","46","Gun_Glue.jpg","37","0","949"
"6","6","encoding","encoding","47","MechanicalSpring.jpg","37","0","757"
"6","6","encoding","encoding","48","Owl.jpg","36","0","1061"
"6","6","encoding","encoding","49","Walkman.jpg","37","0","764"
"6","6","encoding","encoding","50","Trunk.jpg","36","0","963"
"6","6","encoding","encoding","51","Cross.jpg","36","0","874"
"6","6","encoding","encoding","52","Flower_Orchid.jpg","37","0","803"
"6","6","encoding","encoding","53","Sieve_SideView.jpg","37","0","1153"
"6","6","encoding","encoding","54","SeatBuckle.jpg","37","0","802"
"6","6","encoding","encoding","55","Tweezers.jpg","37","0","888"
"6","6","encoding","encoding","56","Stone_AncientWriting.jpg","37","0","1704"
"6","6","encoding","encoding","57","Tractor_Orange.jpg","36","0","936"
"6","6","encoding","encoding","58","Clothespin_Red.jpg","37","0","623"
"6","6","encoding","encoding","59","Toy_Taxi.jpg","37","0","1534"
"6","6","encoding","encoding","60","Cup_sippy.jpg","37","0","886"
"6","6","encoding","encoding","62","Cable_AudioSplitter.jpg","37","0","1231"
"6","6","encoding","encoding","63","Container_RedPlastic.jpg","37","0","1262"
"6","6","encoding","encoding","64","Paddle_Ball.jpg","37","0","991"
"6","6","encoding","encoding","65","Table_PingPong.jpg","36","0","869"
"6","6","encoding","encoding","66","DarthVader.jpg","36","0","780"
"6","6","encoding","encoding","67","CookieCutter_Tree.jpg","37","0","964"
"6","6","encoding","encoding","68","VacuumHandheld.jpg","37","0","1548"
"6","6","encoding","encoding","69","Teabag.jpg","37","0","684"
"6","6","encoding","encoding","70","Tripod.jpg","36","0","930"
"6","6","encoding","encoding","71","Toilet.jpg","36","0","1281"
"6","6","encoding","encoding","72","Honeydew_yellow.jpg","37","0","1018"
"6","6","encoding","encoding","73","Stamp.jpg","37","0","1201"
"6","6","encoding","encoding","74","KitchenCloth.jpg","37","0","872"
"6","6","encoding","encoding","75","Statue_Cat.jpg","37","0","1119"
"6","6","encoding","encoding","76","Box_Jewellery.jpg","37","0","1192"
"6","6","encoding","encoding","77","Case_WoodenOrnate.jpg","37","0","1030"
"6","6","encoding","encoding","78","Autocreeper.jpg","37","0","1334"
"6","6","encoding","encoding","79","CoffeePot.jpg","37","0","837"
"6","6","encoding","encoding","80","Currants.jpg","37","0","1469"
"6","6","encoding","encoding","81","SpaceRover.jpg","36","0","980"
"6","6","encoding","encoding","82","Cooler.jpg","36","0","707"
"6","6","encoding","encoding","83","Jar_Money.jpg","37","0","1227"
"6","6","encoding","encoding","84","Horseshoe.jpg","37","0","892"
"6","6","encoding","encoding","85","Aquarium.jpg","36","0","1050"
"6","6","encoding","encoding","86","Icepick.jpg","37","0","785"
"6","6","encoding","encoding","87","Statue_SouthAmerican.jpg","37","0","976"
"6","6","encoding","encoding","88","Tuxedo.jpg","36","0","1441"
"6","6","encoding","encoding","89","Crate_Wine.jpg","36","0","1384"
"6","6","encoding","encoding","90","House_CeramicGingerbread.jpg","37","0","999"
"6","6","encoding","encoding","91","WireStripper.jpg","37","0","958"
"6","6","encoding","encoding","92","Pumpkin.jpg","36","0","1398"
"6","6","encoding","encoding","93","SatelliteDish.jpg","36","0","773"
"6","6","encoding","encoding","94","ElasticBand.jpg","37","0","1045"
"6","6","encoding","encoding","95","Crackers_Ritz.jpg","37","0","716"
"6","6","encoding","encoding","96","Clip_Binder.jpg","37","0","724"
"6","6","encoding","encoding","97","CashRegister_Antique.jpg","36","0","803"
"6","6","encoding","encoding","98","TimerKitchen.jpg","37","0","1114"
"6","6","encoding","encoding","99","Branch.jpg","37","0","1258"
"6","6","encoding","encoding","100","Speakers_Theatre.jpg","36","0","1546"
"6","6","encoding","encoding","101","Boat_Trailer.jpg","36","0","672"
"6","6","encoding","encoding","102","MonkeyPuppet.jpg","37","0","758"
"6","6","encoding","encoding","103","Tube_Glue.jpg","37","0","783"
"6","6","encoding","encoding","104","Oven.jpg","36","0","768"
"6","6","encoding","encoding","105","Mirror_Handheld.jpg","37","0","814"
"6","6","encoding","encoding","106","Fencing_HelmetSwords.jpg","36","0","926"
"6","6","encoding","encoding","107","Jug_Milk.jpg","36","0","1406"
"6","6","encoding","encoding","108","Origami_Ox.jpg","37","0","981"
"6","6","encoding","encoding","109","RecorderInstrument.jpg","37","0","956"
"6","6","encoding","encoding","110","Tape_Washi.jpg","37","0","723"
"6","6","encoding","encoding","111","CandyDispenser.jpg","36","0","930"
"6","6","encoding","encoding","112","SaladCaesar.jpg","37","0","931"
"6","6","encoding","encoding","113","Bowtie.jpg","37","0","1002"
"6","6","encoding","encoding","114","Pretzel_Sticks.jpg","37","0","841"
"6","6","encoding","encoding","115","StickyTack.jpg","37","0","1232"
"6","6","encoding","encoding","116","Stove_Portable.jpg","37","0","1537"
"6","6","encoding","encoding","117","MeasuringTape.jpg","37","0","911"
"6","6","encoding","encoding","118","KeyHook_Occupied.jpg","37","0","791"
"6","6","encoding","encoding","119","WagonPilgrim.jpg","36","0","990"
"6","6","encoding","encoding","120","Mask_Happy.jpg","37","0","1158"
"6","6","encoding","encoding","121","Jar_Strawberry.jpg","37","0","909"
"6","6","encoding","encoding","123","WashingMachine.jpg","36","0","963"
"6","6","encoding","encoding","124","PocketKnife.jpg","37","0","667"
"6","6","encoding","encoding","125","DentalProbe.jpg","37","0","834"
"6","6","encoding","encoding","126","HumanSkull.jpg","36","0","1017"
"6","6","encoding","encoding","127","Staircase_Straight.jpg","36","0","673"
"6","6","encoding","encoding","128","Ball_Baseball.jpg","37","0","1504"
"6","6","encoding","encoding","129","AirCompressor.jpg","37","0","745"
"6","6","encoding","encoding","130","Brush_Winter.jpg","37","0","983"
"6","6","encoding","encoding","131","Noose.jpg","37","0","1190"
"6","6","encoding","encoding","132","PeriodicTable.jpg","37","0","1832"
"6","6","encoding","encoding","133","StampAndSeal.jpg","37","0","1093"
"6","6","encoding","encoding","134","Faucet.jpg","37","0","1117"
"6","6","encoding","encoding","135","Piano_Keyboard.jpg","36","0","924"
"6","6","encoding","encoding","136","Apple_Candy.jpg","37","0","597"
"6","6","encoding","encoding","137","Stroller.jpg","36","0","1139"
"6","6","encoding","encoding","138","Card_Deck.jpg","37","0","729"
"6","6","encoding","encoding","139","MagazineRoll.jpg","37","0","1377"
"6","6","encoding","encoding","140","Fruit_Carambola.jpg","37","0","1041"
"6","6","encoding","encoding","141","Asparagus.jpg","37","0","1231"
"6","6","encoding","encoding","142","Necklace_Black.jpg","37","0","831"
"6","6","encoding","encoding","143","WaterWell.jpg","36","0","1078"
"6","6","encoding","encoding","144","Thermos_Decorated.jpg","37","0","864"
"6","6","encoding","encoding","145","Tray_Cafeteria.jpg","37","0","846"
"6","6","encoding","encoding","146","Shoe_Pink.jpg","37","0","547"
"6","6","encoding","encoding","147","BabyMonitor.jpg","37","0","779"
"6","6","encoding","encoding","148","Windmill_Building.jpg","36","0","731"
"6","6","encoding","encoding","149","Kiwi.jpg","37","0","1042"
"6","6","encoding","encoding","150","Toy_Octopus.jpg","37","0","889"
"6","6","encoding","encoding","151","Crowbar.jpg","37","0","1113"
"6","6","encoding","encoding","152","HedgeShears.jpg","37","0","1033"
"6","6","encoding","encoding","153","Speaker_Computer.jpg","37","0","1184"
"6","6","encoding","encoding","154","DoorBolt.jpg","37","0","720"
"6","6","encoding","encoding","155","OrangeBlood.jpg","37","0","870"
"6","6","encoding","encoding","156","IceCrusher.jpg","37","0","991"
"6","6","encoding","encoding","157","Pouch_Red.jpg","37","0","734"
"6","6","encoding","encoding","158","Scroll.jpg","36","0","1205"
"6","6","encoding","encoding","159","WaterColorPaintset.jpg","37","0","1125"
"6","6","encoding","encoding","160","Iguana.jpg","36","0","989"
"6","6","encoding","encoding","161","CigarCase.jpg","37","0","1403"
"6","6","encoding","encoding","162","TartStrawberry.jpg","37","0","1003"
"6","6","encoding","encoding","163","Dresser_1.jpg","36","0","978"
"6","6","encoding","encoding","164","MannequinBust.jpg","36","0","788"
"6","6","encoding","encoding","165","Watch.jpg","37","0","705"
"6","6","encoding","encoding","166","Bottle_Bleach.jpg","36","0","1328"
"6","6","encoding","encoding","167","Squash_Pumpkin.jpg","36","0","1688"
"6","6","encoding","encoding","168","Makeup_Foundation.jpg","37","0","911"
"6","6","encoding","encoding","169","Keychain_Leather.jpg","37","0","839"
"6","6","encoding","encoding","170","Bowl_Lemons.jpg","37","0","1318"
"6","6","encoding","encoding","171","BasketballHoop.jpg","36","0","1278"
"6","6","encoding","encoding","172","Pacifier.jpg","37","0","653"
"6","6","encoding","encoding","173","Crab.jpg","37","0","644"
"6","6","encoding","encoding","174","PenHolder.jpg","37","0","1124"
"6","6","encoding","encoding","175","Chipmunk.jpg","37","0","1012"
"6","6","encoding","encoding","176","Pipe.jpg","36","0","1323"
"6","6","encoding","encoding","177","Toy_Slide.jpg","36","0","1306"
"6","6","retrieval","new_objects","1","Notepad.jpg","36","0","1379"
"6","6","retrieval","new_objects","2","Lamp_TableWhite.jpg","36","0","761"
"6","6","retrieval","new_objects","3","IceCubes.jpg","37","1","777"
"6","6","retrieval","old_objects","4","Pacifier.jpg","36","1","1297"
"6","6","retrieval","old_objects","5","Sled.jpg","36","1","956"
"6","6","retrieval","old_objects","6","Shoe_Pink.jpg","37","0","1165"
"6","6","retrieval","old_objects","7","Honeydew_yellow.jpg","37","0","932"
"6","6","retrieval","old_objects","8","Makeup_Foundation.jpg","37","0","1303"
"6","6","retrieval","old_objects","9","Crowbar.jpg","36","1","1009"
"6","6","retrieval","new_objects","10","Cage_Bird.jpg","36","0","1367"
"6","6","retrieval","new_objects","11","Pineapple.jpg","37","1","672"
"6","6","retrieval","new_objects","12","LeafBlower.jpg","36","0","1164"
"6","6","retrieval","new_objects","13","Scoop_Flour.jpg","36","0","796"
"6","6","retrieval","new_objects","14","Jacks.jpg","36","0","594"
"6","6","retrieval","old_objects","15","SeatBuckle.jpg","36","1","969"
"6","6","retrieval","old_objects","16","Tube_Glue.jpg","37","0","930"
"6","6","retrieval","old_objects","17","Bottle_Bleach.jpg","37","0","692"
"6","6","retrieval","new_objects","18","AnsweringMachine.jpg","36","0","1014"
"6","6","retrieval","old_objects","19","CoffeePot.jpg","36","1","996"
"6","6","retrieval","old_objects","20","MannequinBust.jpg","36","1","1043"
"6","6","retrieval","old_objects","21","Stovetop.jpg","36","1","689"
"6","6","retrieval","new_objects","22","Hat_Tuque.jpg","36","0","901"
"6","6","retrieval","old_objects","23","Blanket.jpg","37","0","610"
"6","6","retrieval","old_objects","24","Autocreeper.jpg","36","1","838"
"6","6","retrieval","old_objects","25","Ball_Baseball.jpg","37","0","1995"
"6","6","retrieval","old_objects","26","Crackers_Ritz.jpg","37","0","754"
"6","6","retrieval","old_objects","27","Gun_Glue.jpg","36","1","1587"
"6","6","retrieval","old_objects","28","WagonPilgrim.jpg","36","1","827"
"6","6","retrieval","new_objects","29","Bathtub.jpg","36","0","712"
"6","6","retrieval","old_objects","30","Speaker_Computer.jpg","37","0","706"
"6","6","retrieval","old_objects","31","Squash_Pumpkin.jpg","37","0","597"
"6","6","retrieval","new_objects","32","Drum_Bongos.jpg","37","1","891"
"6","6","retrieval","old_objects","33","Phone_Wireless.jpg","36","1","791"
"6","6","retrieval","old_objects","34","Tractor_Orange.jpg","37","0","1191"
"6","6","retrieval","old_objects","35","Mask_Happy.jpg","36","1","925"
"6","6","retrieval","new_objects","36","GiftBow.jpg","37","1","783"
"6","6","retrieval","old_objects","37","KeyHook_Occupied.jpg","36","1","1391"
"6","6","retrieval","old_objects","38","Cross.jpg","36","1","859"
"6","6","retrieval","old_objects","39","Fencing_HelmetSwords.jpg","36","1","786"
"6","6","retrieval","new_objects","40","Trash_Medical.jpg","37","1","786"
"6","6","retrieval","old_objects","41","MeasuringTape.jpg","37","0","825"
"6","6","retrieval","old_objects","42","OrangeBlood.jpg","37","0","495"
"6","6","retrieval","new_objects","43","SkiPoles.jpg","37","1","746"
"6","6","retrieval","new_objects","44","Telescope.jpg","36","0","683"
"6","6","retrieval","old_objects","45","WashingMachine.jpg","37","0","823"
"6","6","retrieval","new_objects","46","Cassette_Audio.jpg","36","0","1106"
"6","6","retrieval","new_objects","47","Bottle_Spray.jpg","37","1","1383"
"6","6","retrieval","new_objects","48","HairBand.jpg","36","0","838"
"6","6","retrieval","new_objects","49","DayPlanner.jpg","36","0","1052"
"6","6","retrieval","new_objects","50","Horn_French.jpg","36","0","1049"
"6","6","retrieval","new_objects","51","Paddle_Bread.jpg","36","0","1109"
"6","6","retrieval","old_objects","52","TimerKitchen.jpg","36","1","704"
"6","6","retrieval","old_objects","53","Cup_sippy.jpg","36","1","1035"
"6","6","retrieval","old_objects","54","Amp.jpg","36","1","728"
"6","6","retrieval","old_objects","55","Teabag.jpg","37","0","954"
"6","6","retrieval","old_objects","56","Piano_Keyboard.jpg","36","1","659"
"6","6","retrieval","new_objects","57","Wallet_ClosedBlack.jpg","36","0","1031"
"6","6","retrieval","old_objects","58","Apple_Candy.jpg","37","0","749"
"6","6","retrieval","old_objects","59","TartStrawberry.jpg","37","0","629"
"6","6","retrieval","old_objects","60","Boardgame_ChineseCheckers.jpg","36","1","739"
"6","6","retrieval","old_objects","62","SnowmanDecor.jpg","36","1","1290"
"6","6","retrieval","old_objects","63","Heater_ElectricPortable.jpg","36","1","1149"
"6","6","retrieval","new_objects","64","Bulldozer.jpg","36","0","950"
"6","6","retrieval","old_objects","65","Pipe.jpg","36","1","622"
"6","6","retrieval","new_objects","66","CashRegister_Modern.jpg","36","0","789"
"6","6","retrieval","new_objects","67","Cannoli.jpg","37","1","932"
"6","6","retrieval","old_objects","68","Compact_Powder.jpg","36","1","934"
"6","6","retrieval","new_objects","69","Stationary.jpg","36","0","983"
"6","6","retrieval","old_objects","70","AirCompressor.jpg","36","1","686"
"6","6","retrieval","new_objects","71","SkullDeer.jpg","36","0","962"
"6","6","retrieval","new_objects","72","PaintCan.jpg","36","0","994"
"6","6","retrieval","new_objects","73","Gloves_Winter.jpg","36","0","792"
"6","6","retrieval","old_objects","74","Toy_Slide.jpg","36","1","1216"
"6","6","retrieval","old_objects","75","SpongeScrubbing.jpg","36","1","774"
"6","6","retrieval","old_objects","76","PenStand.jpg","36","1","662"
"6","6","retrieval","new_objects","77","Tractor_Yellow.jpg","36","0","890"
"6","6","retrieval","new_objects","78","Stethoscope.jpg","36","0","1038"
"6","6","retrieval","old_objects","79","Card_Deck.jpg","36","1","715"
"6","6","retrieval","new_objects","80","Toy_BlocksPlastic Colourful.jpg","36","0","660"
"6","6","retrieval","old_objects","81","Oven.jpg","36","1","1258"
"6","6","retrieval","new_objects","82","Chicken_FriedWing.jpg","37","1","990"
"6","6","retrieval","old_objects","83","LightHouse.jpg","36","1","685"
"6","6","retrieval","new_objects","84","FuzzyDice.jpg","36","0","1017"
"6","6","retrieval","new_objects","85","Umbrella_Classic.jpg","36","0","711"
"6","6","retrieval","new_objects","86","fries.jpg","37","1","784"
"6","6","retrieval","new_objects","87","Clock_Grandfather.jpg","36","0","768"
"6","6","retrieval","new_objects","88","Avocado.jpg","37","1","544"
"6","6","retrieval","new_objects","89","PortaPotty.jpg","37","1","1064"
"6","6","retrieval","new_objects","90","Bottle_Liquor.jpg","36","0","965"
"6","6","retrieval","old_objects","91","CashRegister_Antique.jpg","36","1","853"
"6","6","retrieval","new_objects","92","Pricegun.jpg","37","1","825"
"6","6","retrieval","old_objects","93","CandyDispenser.jpg","36","1","831"
"6","6","retrieval","old_objects","94","Machine_Bread.jpg","37","0","989"
"6","6","retrieval","old_objects","95","CigarCase.jpg","36","1","1020"
"6","6","retrieval","old_objects","96","Toilet.jpg","36","1","1707"
