"group","subject","blockcode","trialcode","trialnum","values.stimulus","response","correct","latency"
"1","1","encoding","encoding","1","Toy_Zebra.jpg","0","0","2001"
"1","1","encoding","encoding","2","VGAport.jpg","Ctrl+'B'","1","1570"
"1","1","retrieval","old_objects","1","HandRake.jpg","0","0","2001"
"1","1","retrieval","old_objects","2","CrepeMaker.jpg","Ctrl+'B'","1","1750"
"1","1","demographics_block","gender","1","CrepeMaker.jpg","","1","1169"
"1","1","demographics_block","age","1","CrepeMaker.jpg","","1","1169"
"1","1","demographics_block","education","1","CrepeMaker.jpg","","1","1169"
"2","2","encoding","encoding","1","PoliceTape.jpg","37","0","1317"
"2","2","encoding","encoding","2","CoolingFan_Engine2.jpg","37","0","1412"
"2","2","encoding","encoding","3","Partition.jpg","36","0","764"
"2","2","encoding","encoding","4","MeatGrinder.jpg","37","0","1716"
"2","2","encoding","encoding","5","Toaster_Antique.jpg","0","0","2000"
"2","2","encoding","encoding","6","ShotGlassTray.jpg","37","0","1762"
"2","2","encoding","encoding","7","Bed_Hospital.jpg","36","0","785"
"2","2","encoding","encoding","8","Car_Sedan.jpg","36","0","674"
"2","2","encoding","encoding","9","Pencil.jpg","37","0","1001"
"2","2","encoding","encoding","10","Stove_Propane.jpg","37","0","1248"
"2","2","encoding","encoding","11","Cat.jpg","36","0","1464"
"2","2","encoding","encoding","12","Plum.jpg","37","0","936"
"2","2","encoding","encoding","13","Chair_Dining.jpg","36","0","727"
"2","2","encoding","encoding","14","Candy_Chocolate.jpg","37","0","934"
"2","2","encoding","encoding","15","SculptureMetalFish.jpg","37","0","1318"
"2","2","encoding","encoding","16","Cart_Janitor.jpg","36","0","1038"
"2","2","encoding","encoding","17","Ashtray_Cigarettes.jpg","37","0","900"
"2","2","encoding","encoding","18","Glass_bottle.jpg","37","0","1052"
"2","2","encoding","encoding","19","PaintRoller.jpg","37","0","1108"
"2","2","encoding","encoding","20","Glass_Beer.jpg","37","0","1124"
"2","2","encoding","encoding","21","Bird_Budgie.jpg","37","0","1170"
"2","2","encoding","encoding","22","SpaceShuttle.jpg","37","0","634"
"2","2","encoding","encoding","23","WindowBlinds.jpg","36","0","954"
"2","2","encoding","encoding","24","Toolbox_RedOpen.jpg","36","0","898"
"2","2","encoding","encoding","25","EnglishMuffin.jpg","37","0","865"
"2","2","encoding","encoding","26","Cup_Latte.jpg","37","0","776"
"2","2","encoding","encoding","27","SewingMachine.jpg","36","0","856"
"2","2","encoding","encoding","28","Nightstand.jpg","36","0","656"
"2","2","encoding","encoding","29","Bottle_BubbleBlower.jpg","37","0","887"
"2","2","encoding","encoding","30","Snail.jpg","37","0","854"
"2","2","encoding","encoding","31","Turtle.jpg","36","0","1134"
"2","2","encoding","encoding","32","Chair_Student.jpg","36","0","950"
"2","2","encoding","encoding","33","DustPan.jpg","37","0","925"
"2","2","encoding","encoding","34","Peppermill.jpg","37","0","732"
"2","2","encoding","encoding","35","EyeDrops.jpg","37","0","1043"
"2","2","encoding","encoding","36","DrillBit.jpg","37","0","884"
"2","2","encoding","encoding","37","MassageRoller.jpg","37","0","1042"
"2","2","encoding","encoding","38","Lock_Bike.jpg","37","0","1154"
"2","2","encoding","encoding","39","Sign_Airport.jpg","36","0","746"
"2","2","encoding","encoding","40","Stove_Camping.jpg","37","0","978"
"2","2","encoding","encoding","41","AlarmSystem.jpg","37","0","993"
"2","2","encoding","encoding","42","BunsenBurner.jpg","37","0","1424"
"2","2","encoding","encoding","43","Tape_Clear.jpg","37","0","1064"
"2","2","encoding","encoding","44","Bowl_Chinese.jpg","36","0","960"
"2","2","encoding","encoding","45","HandRake.jpg","37","0","783"
"2","2","encoding","encoding","46","TowerEiffel.jpg","36","0","854"
"2","2","encoding","encoding","47","Flute_Wooden.jpg","37","0","1317"
"2","2","encoding","encoding","48","Corkscrew.jpg","37","0","950"
"2","2","encoding","encoding","49","Bag_Groceries.jpg","36","0","1141"
"2","2","encoding","encoding","50","Pot_Crock.jpg","36","0","884"
"2","2","encoding","encoding","51","JukeboxAntique.jpg","36","0","851"
"2","2","encoding","encoding","52","Bowl_Flour.jpg","37","0","811"
"2","2","encoding","encoding","53","Hockey_Equipment.jpg","36","0","1099"
"2","2","encoding","encoding","54","Snowboard.jpg","36","0","970"
"2","2","encoding","encoding","55","Iron_Antique.jpg","37","0","850"
"2","2","encoding","encoding","56","Tube_Paint.jpg","37","0","786"
"2","2","encoding","encoding","57","DentistOverheadLight.jpg","36","0","1024"
"2","2","encoding","encoding","58","Jar_Capers.jpg","37","0","1064"
"2","2","encoding","encoding","59","CigarCutter.jpg","37","0","800"
"2","2","encoding","encoding","60","Puzzle_Tree.jpg","37","0","1072"
"2","2","encoding","encoding","62","Leaf_Green.jpg","37","0","900"
"2","2","encoding","encoding","63","Instrument_Guiro.jpg","36","0","1026"
"2","2","encoding","encoding","64","Coconut.jpg","37","0","1002"
"2","2","encoding","encoding","65","Seal_animal.jpg","36","0","953"
"2","2","encoding","encoding","66","Magnifying_Glass.jpg","37","0","626"
"2","2","encoding","encoding","67","Peeler.jpg","37","0","737"
"2","2","encoding","encoding","68","Toy_Bat.jpg","37","0","912"
"2","2","encoding","encoding","69","CheeseSlicer.jpg","37","0","768"
"2","2","encoding","encoding","70","Scissors.jpg","37","0","703"
"2","2","encoding","encoding","71","Oars.jpg","36","0","902"
"2","2","encoding","encoding","72","Bicycle_Kids.jpg","36","0","806"
"2","2","encoding","encoding","73","Ball_Tennis.jpg","37","0","766"
"2","2","encoding","encoding","74","Bird_Pelican.jpg","36","0","878"
"2","2","encoding","encoding","75","PirateFlag.jpg","37","0","1421"
"2","2","encoding","encoding","76","ChessPiece_Knight.jpg","37","0","996"
"2","2","encoding","encoding","77","PanCooking.jpg","37","0","1036"
"2","2","encoding","encoding","78","Trophy.jpg","37","0","1084"
"2","2","encoding","encoding","79","PaperStack.jpg","36","0","835"
"2","2","encoding","encoding","80","Shrimp.jpg","37","0","794"
"2","2","encoding","encoding","81","Hammer.jpg","37","0","698"
"2","2","encoding","encoding","82","Phone_Public.jpg","36","0","826"
"2","2","encoding","encoding","83","Arm.jpg","36","0","1152"
"2","2","encoding","encoding","84","FireExtinguisher.jpg","37","0","1192"
"2","2","encoding","encoding","85","Paratrooper.jpg","36","0","1055"
"2","2","encoding","encoding","86","Tag_Price.jpg","37","0","888"
"2","2","encoding","encoding","87","Gun_Nerf.jpg","37","0","743"
"2","2","encoding","encoding","88","Shovel_Garden.jpg","37","0","758"
"2","2","encoding","encoding","89","Toy_DollOffice.jpg","37","0","950"
"2","2","encoding","encoding","90","TinChristmas.jpg","36","0","1157"
"2","2","encoding","encoding","91","Button.jpg","37","0","885"
"2","2","encoding","encoding","92","Oyster.jpg","37","0","812"
"2","2","encoding","encoding","93","Licorice.jpg","37","0","819"
"2","2","encoding","encoding","94","GogglesSwim.jpg","37","0","748"
"2","2","encoding","encoding","95","Binder.jpg","37","0","874"
"2","2","encoding","encoding","96","IceScraper.jpg","37","0","986"
"2","2","encoding","encoding","97","Toy_Moose.jpg","37","0","882"
"2","2","encoding","encoding","98","CoffeeBeans.jpg","37","0","834"
"2","2","encoding","encoding","99","Chicken_FriedDrum.jpg","37","0","817"
"2","2","encoding","encoding","100","Donut.jpg","37","0","728"
"2","2","encoding","encoding","101","BinRecycling.jpg","36","0","872"
"2","2","encoding","encoding","102","Shrub_Boxwood.jpg","36","0","1376"
"2","2","encoding","encoding","103","Fence_ChainLink.jpg","36","0","967"
"2","2","encoding","encoding","104","ComputerKeyboard.jpg","37","0","982"
"2","2","encoding","encoding","105","Clock_Digital.jpg","37","0","1269"
"2","2","encoding","encoding","106","Switch_Power.jpg","37","0","918"
"2","2","encoding","encoding","107","Rag.jpg","37","0","917"
"2","2","encoding","encoding","108","DrinkingFountain.jpg","36","0","1020"
"2","2","encoding","encoding","109","MouthGuard.jpg","37","0","955"
"2","2","encoding","encoding","110","Case_Leather.jpg","37","0","884"
"2","2","encoding","encoding","111","Bleachers.jpg","36","0","939"
"2","2","encoding","encoding","112","Cow.jpg","36","0","874"
"2","2","encoding","encoding","113","FlipFlop_PairBlue.jpg","37","0","1370"
"2","2","encoding","encoding","114","Can_Peas.jpg","37","0","1602"
"2","2","encoding","encoding","115","Telephone_DialAntique.jpg","36","0","1480"
"2","2","encoding","encoding","116","HumanSkeleton.jpg","36","0","800"
"2","2","encoding","encoding","117","HerbsInBag.jpg","36","0","1880"
"2","2","encoding","encoding","118","Seeder.jpg","36","0","1016"
"2","2","encoding","encoding","119","Hay.jpg","36","0","703"
"2","2","encoding","encoding","120","Bowl_Fruits.jpg","37","0","742"
"2","2","encoding","encoding","121","ScannerShoplifting.jpg","36","0","1070"
"2","2","encoding","encoding","123","Bucket_WoodenLight.jpg","36","0","1133"
"2","2","encoding","encoding","124","Toy_DinosaurBrontosaurus.jpg","37","0","733"
"2","2","encoding","encoding","125","Gecko.jpg","37","0","1421"
"2","2","encoding","encoding","126","Wheelbarrow_Green.jpg","36","0","990"
"2","2","encoding","encoding","127","Fan_Straw.jpg","37","0","1324"
"2","2","encoding","encoding","128","Toy_RockingHorseBeige.jpg","36","0","1371"
"2","2","encoding","encoding","129","Glass_Cup.jpg","37","0","971"
"2","2","encoding","encoding","130","Bottle_CosmeticSpray.jpg","37","0","1059"
"2","2","encoding","encoding","131","CandleSnuffer.jpg","37","0","1305"
"2","2","encoding","encoding","132","Lipstick.jpg","37","0","977"
"2","2","encoding","encoding","133","Toy_Tractor_1.jpg","37","0","872"
"2","2","encoding","encoding","134","Fork_Fondue.jpg","37","0","896"
"2","2","encoding","encoding","135","Armchair.jpg","36","0","776"
"2","2","encoding","encoding","136","CrepeMaker.jpg","36","0","1303"
"2","2","encoding","encoding","137","Weathervane.jpg","36","0","1319"
"2","2","encoding","encoding","138","Lobster.jpg","37","0","1047"
"2","2","encoding","encoding","139","Rock_Mimetite.jpg","37","0","1101"
"2","2","encoding","encoding","140","Wardrobe.jpg","36","0","765"
"2","2","encoding","encoding","141","ButterChurn.jpg","36","0","940"
"2","2","encoding","encoding","142","Toy_BearBrownPlushie.jpg","37","0","1108"
"2","2","encoding","encoding","143","Toy_Zebra.jpg","37","0","1052"
"2","2","encoding","encoding","144","DivingBoard.jpg","36","0","883"
"2","2","encoding","encoding","145","Magnet_Three.jpg","37","0","1059"
"2","2","encoding","encoding","146","Pig.jpg","36","0","987"
"2","2","encoding","encoding","147","Dill.jpg","37","0","945"
"2","2","encoding","encoding","148","Ruler_Metal.jpg","37","0","745"
"2","2","encoding","encoding","149","Spatula.jpg","37","0","1032"
"2","2","encoding","encoding","150","Syringe_Blunt.jpg","37","0","993"
"2","2","encoding","encoding","151","Toy_Stroller.jpg","37","0","799"
"2","2","encoding","encoding","152","AirTank.jpg","36","0","1063"
"2","2","encoding","encoding","153","Toy_BlocksLetter.jpg","37","0","846"
"2","2","encoding","encoding","154","Mask_Ski.jpg","37","0","959"
"2","2","encoding","encoding","155","Vest.jpg","37","0","950"
"2","2","encoding","encoding","156","BicycleWheelRusty.jpg","36","0","1557"
"2","2","encoding","encoding","157","Boxcutter.jpg","37","0","860"
"2","2","encoding","encoding","158","SaxophoneSoprano.jpg","36","0","1028"
"2","2","encoding","encoding","159","VGAport.jpg","37","0","955"
"2","2","encoding","encoding","160","Toy_Christmastree.jpg","37","0","1195"
"2","2","encoding","encoding","161","Stool_Wood.jpg","36","0","1162"
"2","2","encoding","encoding","162","Paddle_PingPong.jpg","37","0","907"
"2","2","encoding","encoding","163","CarLighter.jpg","37","0","993"
"2","2","encoding","encoding","164","Airplane_Small.jpg","36","0","985"
"2","2","encoding","encoding","165","Shoe_Men.jpg","37","0","1057"
"2","2","encoding","encoding","166","Chair_Rocking.jpg","36","0","953"
"2","2","encoding","encoding","167","Neckrest.jpg","37","0","920"
"2","2","encoding","encoding","168","Clip_Chip.jpg","37","0","815"
"2","2","encoding","encoding","169","Envelope_Manila.jpg","37","0","1007"
"2","2","encoding","encoding","170","Candelabra.jpg","36","0","1199"
"2","2","encoding","encoding","171","Napkin_Holder.jpg","37","0","1102"
"2","2","encoding","encoding","172","Seashell_RoseMurex.jpg","37","0","789"
"2","2","encoding","encoding","173","PotatoMasher_Grate.jpg","37","0","964"
"2","2","encoding","encoding","174","Wreath.jpg","36","0","757"
"2","2","encoding","encoding","175","Helmet_Knight.jpg","36","0","932"
"2","2","encoding","encoding","176","Suitcase.jpg","37","0","939"
"2","2","encoding","encoding","177","Mixer_Cement.jpg","36","0","907"
"2","2","retrieval","old_objects","1","Nightstand.jpg","36","1","1150"
"2","2","retrieval","old_objects","2","Toy_DollOffice.jpg","36","1","855"
"2","2","retrieval","old_objects","3","Fan_Straw.jpg","36","1","740"
"2","2","retrieval","old_objects","4","Tag_Price.jpg","36","1","781"
"2","2","retrieval","old_objects","5","CandleSnuffer.jpg","36","1","844"
"2","2","retrieval","old_objects","6","Ruler_Metal.jpg","36","1","754"
"2","2","retrieval","new_objects","7","Shoe_Highheel.jpg","37","1","795"
"2","2","retrieval","old_objects","8","Licorice.jpg","36","1","786"
"2","2","retrieval","old_objects","9","Wreath.jpg","36","1","762"
"2","2","retrieval","old_objects","10","Envelope_Manila.jpg","36","1","746"
"2","2","retrieval","new_objects","11","BuildingChinese.jpg","37","1","723"
"2","2","retrieval","old_objects","12","Toy_Bat.jpg","36","1","717"
"2","2","retrieval","new_objects","13","Lips_Wax.jpg","37","1","783"
"2","2","retrieval","new_objects","14","Chair_High.jpg","37","1","663"
"2","2","retrieval","new_objects","15","TotemPole.jpg","37","1","747"
"2","2","retrieval","new_objects","16","Arch_Triomphe.jpg","37","1","667"
"2","2","retrieval","old_objects","17","Magnifying_Glass.jpg","36","1","728"
"2","2","retrieval","new_objects","18","Bag_Toiletry.jpg","37","1","890"
"2","2","retrieval","new_objects","19","Door_Blue.jpg","37","1","829"
"2","2","retrieval","old_objects","20","Stool_Wood.jpg","36","1","683"
"2","2","retrieval","new_objects","21","Figurine_Ballerina.jpg","37","1","695"
"2","2","retrieval","new_objects","22","Plunger.jpg","37","1","777"
"2","2","retrieval","old_objects","23","Toy_Stroller.jpg","36","1","738"
"2","2","retrieval","old_objects","24","Ashtray_Cigarettes.jpg","36","1","795"
"2","2","retrieval","old_objects","25","MouthGuard.jpg","36","1","746"
"2","2","retrieval","new_objects","26","Chair_PlasticGreen.jpg","37","1","739"
"2","2","retrieval","old_objects","27","Plum.jpg","36","1","749"
"2","2","retrieval","new_objects","28","Inukshuk.jpg","37","1","733"
"2","2","retrieval","old_objects","29","ScannerShoplifting.jpg","36","1","727"
"2","2","retrieval","new_objects","30","HDMIConnector.jpg","37","1","793"
"2","2","retrieval","old_objects","31","Bag_Groceries.jpg","36","1","728"
"2","2","retrieval","new_objects","32","Humidifier.jpg","37","1","802"
"2","2","retrieval","old_objects","33","Candelabra.jpg","36","1","729"
"2","2","retrieval","new_objects","34","Toy_DollHomeMade.jpg","37","1","754"
"2","2","retrieval","old_objects","35","FireExtinguisher.jpg","36","1","987"
"2","2","retrieval","old_objects","36","PotatoMasher_Grate.jpg","36","1","674"
"2","2","retrieval","new_objects","37","Hat_Beret.jpg","37","1","646"
"2","2","retrieval","new_objects","38","DJMixer.jpg","37","1","683"
"2","2","retrieval","old_objects","39","Bottle_CosmeticSpray.jpg","36","1","695"
"2","2","retrieval","old_objects","40","BinRecycling.jpg","36","1","706"
"2","2","retrieval","new_objects","41","Earring_Hoop.jpg","37","1","789"
"2","2","retrieval","new_objects","42","Locomotive.jpg","37","1","700"
"2","2","retrieval","new_objects","43","Door_Green.jpg","37","1","735"
"2","2","retrieval","new_objects","44","Alfalfa.jpg","37","1","832"
"2","2","retrieval","old_objects","45","PaperStack.jpg","36","1","726"
"2","2","retrieval","old_objects","46","FlipFlop_PairBlue.jpg","36","1","800"
"2","2","retrieval","old_objects","47","Case_Leather.jpg","36","1","686"
"2","2","retrieval","new_objects","48","Dart.jpg","37","1","746"
"2","2","retrieval","new_objects","49","TailLight.jpg","37","1","683"
"2","2","retrieval","new_objects","50","FortuneCookie.jpg","37","1","814"
"2","2","retrieval","old_objects","51","Dill.jpg","36","1","733"
"2","2","retrieval","new_objects","52","Switch_LightWhite.jpg","37","1","701"
"2","2","retrieval","new_objects","53","Cake_Birthday.jpg","37","1","705"
"2","2","retrieval","old_objects","54","Chicken_FriedDrum.jpg","36","1","843"
"2","2","retrieval","new_objects","55","Toolbox_Old.jpg","37","1","729"
"2","2","retrieval","new_objects","56","Cart_Groceries.jpg","37","1","858"
"2","2","retrieval","new_objects","57","ScrewDriver.jpg","37","1","887"
"2","2","retrieval","new_objects","58","Sign_Taxi.jpg","37","1","819"
"2","2","retrieval","old_objects","59","Wardrobe.jpg","36","1","648"
"2","2","retrieval","new_objects","60","Decoration_ChristmasRed.jpg","37","1","677"
"2","2","retrieval","old_objects","62","Car_Sedan.jpg","36","1","798"
"2","2","retrieval","old_objects","63","Bucket_WoodenLight.jpg","36","1","677"
"2","2","retrieval","new_objects","64","Bread_Carrot.jpg","37","1","681"
"2","2","retrieval","new_objects","65","Lock_Key.jpg","37","1","597"
"2","2","retrieval","old_objects","66","Snowboard.jpg","36","1","692"
"2","2","retrieval","new_objects","67","Pillow_Heart.jpg","36","0","656"
"2","2","retrieval","new_objects","68","Clock_Radio.jpg","37","1","828"
"2","2","retrieval","old_objects","69","Weathervane.jpg","36","1","707"
"2","2","retrieval","old_objects","70","Stove_Propane.jpg","36","1","806"
"2","2","retrieval","old_objects","71","Mixer_Cement.jpg","36","1","652"
"2","2","retrieval","old_objects","72","CarLighter.jpg","36","1","713"
"2","2","retrieval","old_objects","73","HumanSkeleton.jpg","36","1","684"
"2","2","retrieval","new_objects","74","Battery_Car.jpg","37","1","799"
"2","2","retrieval","new_objects","75","Sieve_TopView.jpg","37","1","830"
"2","2","retrieval","new_objects","76","Table_Side.jpg","37","1","787"
"2","2","retrieval","old_objects","77","Glass_bottle.jpg","36","1","691"
"2","2","retrieval","new_objects","78","ChocolateBar_HalfUnwrapped.jpg","37","1","734"
"2","2","retrieval","old_objects","79","Toy_Christmastree.jpg","36","1","680"
"2","2","retrieval","new_objects","80","Table_Set.jpg","37","1","691"
"2","2","retrieval","old_objects","81","Bowl_Flour.jpg","36","1","750"
"2","2","retrieval","new_objects","82","Necklace_Pearl.jpg","37","1","783"
"2","2","retrieval","new_objects","83","Pot_BlackOld.jpg","37","1","718"
"2","2","retrieval","new_objects","84","Pancakes.jpg","37","1","785"
"2","2","retrieval","new_objects","85","Candy_Heart.jpg","37","1","761"
"2","2","retrieval","old_objects","86","Toy_Tractor_1.jpg","36","1","801"
"2","2","retrieval","new_objects","87","TortillaChip.jpg","37","1","680"
"2","2","retrieval","old_objects","88","HandRake.jpg","36","1","772"
"2","2","retrieval","old_objects","89","Paratrooper.jpg","36","1","756"
"2","2","retrieval","new_objects","90","Shirt_Tshirt.jpg","37","1","853"
"2","2","retrieval","old_objects","91","WindowBlinds.jpg","36","1","722"
"2","2","retrieval","new_objects","92","Mirror_Dental.jpg","37","1","867"
"2","2","retrieval","old_objects","93","Neckrest.jpg","36","1","872"
"2","2","retrieval","old_objects","94","PaintRoller.jpg","36","1","868"
"2","2","retrieval","old_objects","95","Jar_Capers.jpg","36","1","776"
"2","2","retrieval","old_objects","96","BicycleWheelRusty.jpg","36","1","800"
"2","2","retrieval","new_objects","97","Suit_Women.jpg","37","1","647"
"2","2","retrieval","old_objects","98","Napkin_Holder.jpg","36","1","731"
"2","2","retrieval","new_objects","99","Cabinet_Office.jpg","37","1","789"
"2","2","retrieval","new_objects","100","Sign_Wetfloor.jpg","37","1","620"
"2","2","retrieval","new_objects","101","Brush_Makeup.jpg","37","1","730"
"2","2","retrieval","new_objects","102","Chair_Bamboo.jpg","37","1","756"
"2","2","retrieval","new_objects","103","GatedEntrance.jpg","37","1","765"
"2","2","retrieval","new_objects","104","RibbonString.jpg","37","1","805"
"2","2","retrieval","new_objects","105","Ship_Model.jpg","37","1","771"
"2","2","retrieval","old_objects","106","Cart_Janitor.jpg","36","1","723"
"2","2","retrieval","new_objects","107","LifeJacket_BlueYellow.jpg","37","1","782"
"2","2","retrieval","old_objects","108","Instrument_Guiro.jpg","36","1","693"
"2","2","retrieval","old_objects","109","DrinkingFountain.jpg","36","1","705"
"2","2","retrieval","old_objects","110","DrillBit.jpg","36","1","723"
"2","2","retrieval","old_objects","111","Pot_Crock.jpg","36","1","1037"
"2","2","retrieval","old_objects","112","Shoe_Men.jpg","36","1","795"
"2","2","retrieval","new_objects","113","VacuumHose.jpg","37","1","761"
"2","2","retrieval","new_objects","114","Level.jpg","37","1","793"
"2","2","retrieval","old_objects","115","Snail.jpg","36","1","738"
"2","2","retrieval","new_objects","116","Dolly.jpg","37","1","786"
"2","2","retrieval","new_objects","117","Toaster_MetalSleek.jpg","37","1","754"
"2","2","retrieval","old_objects","118","Telephone_DialAntique.jpg","36","1","731"
"2","2","retrieval","old_objects","119","CigarCutter.jpg","36","1","796"
"2","2","retrieval","old_objects","120","Wheelbarrow_Green.jpg","36","1","852"
"2","2","retrieval","old_objects","121","Gecko.jpg","36","1","673"
"2","2","retrieval","old_objects","123","HerbsInBag.jpg","36","1","774"
"2","2","retrieval","new_objects","124","RiceRaw.jpg","37","1","743"
"2","2","retrieval","old_objects","125","Bird_Budgie.jpg","36","1","872"
"2","2","retrieval","new_objects","126","Wontons.jpg","37","1","772"
"2","2","retrieval","new_objects","127","RollerCoaster.jpg","37","1","676"
"2","2","retrieval","new_objects","128","Egg_Wooden.jpg","37","1","752"
"2","2","retrieval","old_objects","129","Toolbox_RedOpen.jpg","36","1","681"
"2","2","retrieval","new_objects","130","Toy_SeeSaw.jpg","37","1","725"
"2","2","retrieval","old_objects","131","SpaceShuttle.jpg","36","1","694"
"2","2","retrieval","new_objects","132","Canister_Oil.jpg","37","1","786"
"2","2","retrieval","new_objects","133","Ship_Battle.jpg","37","1","697"
"2","2","retrieval","new_objects","134","Spoon_Serving.jpg","37","1","812"
"2","2","retrieval","new_objects","135","Comb.jpg","37","1","698"
"2","2","retrieval","new_objects","136","Crib_Basket.jpg","37","1","709"
"2","2","retrieval","new_objects","137","Teardrop.jpg","37","1","631"
"2","2","retrieval","old_objects","138","Rag.jpg","36","1","685"
"2","2","retrieval","old_objects","139","Bed_Hospital.jpg","36","1","736"
"2","2","retrieval","new_objects","140","Container_Tupperware.jpg","37","1","698"
"2","2","retrieval","new_objects","141","Gloves_WhiteKnit.jpg","37","1","716"
"2","2","retrieval","new_objects","142","Table_Poker.jpg","37","1","639"
"2","2","retrieval","new_objects","143","Exercise_Stepper.jpg","37","1","668"
"2","2","retrieval","old_objects","144","Partition.jpg","36","1","616"
"2","2","retrieval","new_objects","145","Eggplant.jpg","37","1","710"
"2","2","retrieval","new_objects","146","RibbonPin.jpg","37","1","721"
"2","2","retrieval","old_objects","147","Lipstick.jpg","36","1","643"
"2","2","retrieval","old_objects","148","Binder.jpg","36","1","681"
"2","2","retrieval","old_objects","149","Glass_Beer.jpg","36","1","684"
"2","2","retrieval","old_objects","150","Spatula.jpg","36","1","703"
"2","2","retrieval","new_objects","151","Toy_Lizard.jpg","37","1","674"
"2","2","retrieval","old_objects","152","Arm.jpg","36","1","710"
"2","2","retrieval","old_objects","153","MassageRoller.jpg","36","1","793"
"2","2","retrieval","new_objects","154","Toy_StackingRing.jpg","37","1","665"
"2","2","retrieval","new_objects","155","HairDryer.jpg","37","1","772"
"2","2","retrieval","old_objects","156","Stove_Camping.jpg","36","1","741"
"2","2","retrieval","new_objects","157","Cherry.jpg","37","1","734"
"2","2","retrieval","old_objects","158","DivingBoard.jpg","36","1","743"
"2","2","retrieval","new_objects","159","ManholeCover.jpg","37","1","769"
"2","2","retrieval","old_objects","160","TinChristmas.jpg","36","1","738"
"2","2","retrieval","new_objects","161","GutterAndDrainPipe.jpg","37","1","802"
"2","2","retrieval","old_objects","162","TowerEiffel.jpg","36","1","649"
"2","2","retrieval","new_objects","163","Lettuce_GreenLeaf.jpg","37","1","702"
"2","2","retrieval","new_objects","164","Gorilla.jpg","37","1","681"
"2","2","retrieval","old_objects","165","Bowl_Chinese.jpg","36","1","716"
"2","2","retrieval","old_objects","166","Switch_Power.jpg","36","1","775"
"2","2","retrieval","new_objects","167","Wire_ElectricalSingle.jpg","37","1","742"
"2","2","retrieval","new_objects","168","TurkeyDinner.jpg","37","1","704"
"2","2","retrieval","old_objects","169","Shovel_Garden.jpg","36","1","643"
"2","2","retrieval","old_objects","170","Magnet_Three.jpg","36","1","792"
"2","2","retrieval","new_objects","171","Bucket_WoodenDark.jpg","37","1","712"
"2","2","retrieval","new_objects","172","Barometer_Wood.jpg","37","1","842"
"2","2","retrieval","new_objects","173","PhoneCase.jpg","37","1","815"
"2","2","retrieval","old_objects","174","Turtle.jpg","36","1","701"
"2","2","retrieval","new_objects","175","Jar_Canopic.jpg","37","1","696"
"2","2","retrieval","new_objects","176","Pants_Firefighter.jpg","37","1","667"
"2","2","retrieval","old_objects","177","EnglishMuffin.jpg","36","1","863"
"2","2","retrieval","new_objects","178","LeatherPuncherTool.jpg","37","1","787"
"2","2","retrieval","old_objects","179","Coconut.jpg","36","1","730"
"2","2","retrieval","old_objects","180","DentistOverheadLight.jpg","36","1","804"
"2","2","retrieval","new_objects","181","DusterFeather.jpg","37","1","714"
"2","2","retrieval","new_objects","182","Shoe_Sneaker.jpg","37","1","788"
"2","2","retrieval","old_objects","184","Fence_ChainLink.jpg","36","1","834"
"2","2","retrieval","old_objects","185","Bleachers.jpg","36","1","679"
"2","2","retrieval","old_objects","186","JukeboxAntique.jpg","36","1","683"
"2","2","retrieval","old_objects","187","Armchair.jpg","36","1","670"
"2","2","retrieval","old_objects","188","Leaf_Green.jpg","36","1","786"
"2","2","retrieval","old_objects","189","AlarmSystem.jpg","36","1","930"
"2","2","retrieval","new_objects","190","Birdhouse.jpg","37","1","716"
"2","2","retrieval","new_objects","191","Cheesegrater_Handheld.jpg","37","1","645"
"2","2","retrieval","new_objects","192","Thermostat.jpg","37","1","642"
"2","2","retrieval","new_objects","193","Chair_Folding.jpg","37","1","728"
"2","2","retrieval","new_objects","194","Toy_Witch.jpg","37","1","642"
"2","2","retrieval","old_objects","195","Clock_Digital.jpg","36","1","647"
"2","2","retrieval","old_objects","196","Bird_Pelican.jpg","36","1","748"
"2","2","retrieval","old_objects","197","Pencil.jpg","36","1","701"
"2","2","retrieval","old_objects","198","Sign_Airport.jpg","36","1","655"
"2","2","retrieval","new_objects","199","SlushieMachine.jpg","37","1","660"
"2","2","retrieval","new_objects","200","Tape_Scotch.jpg","37","1","601"
"2","2","retrieval","new_objects","201","Fruit_Orange.jpg","37","1","656"
"2","2","retrieval","new_objects","202","Hedgehog.jpg","37","1","629"
"2","2","retrieval","old_objects","203","Button.jpg","36","1","659"
"2","2","retrieval","old_objects","204","Shrimp.jpg","36","1","663"
"2","2","retrieval","new_objects","205","Helmet_Bicycle.jpg","37","1","635"
"2","2","retrieval","old_objects","206","Chair_Dining.jpg","36","1","625"
"2","2","retrieval","old_objects","207","CrepeMaker.jpg","36","1","735"
"2","2","retrieval","new_objects","208","ShoeLace_Flat.jpg","37","1","713"
"2","2","retrieval","new_objects","209","Airplane_Fighter.jpg","37","1","634"
"2","2","retrieval","old_objects","210","PanCooking.jpg","36","1","632"
"2","2","retrieval","old_objects","211","Bottle_BubbleBlower.jpg","37","0","605"
"2","2","retrieval","new_objects","212","Bottle_Wine.jpg","37","1","716"
"2","2","retrieval","old_objects","213","CheeseSlicer.jpg","36","1","758"
"2","2","retrieval","new_objects","214","Toy_Turtle.jpg","37","1","695"
"2","2","retrieval","old_objects","215","Toy_DinosaurBrontosaurus.jpg","36","1","746"
"2","2","retrieval","new_objects","216","Jug_Wicker.jpg","37","1","715"
"2","2","retrieval","old_objects","217","Donut.jpg","36","1","781"
"2","2","retrieval","new_objects","218","Bed_ChildBirch.jpg","37","1","669"
"2","2","retrieval","new_objects","219","Flamingo_Cartoon.jpg","37","1","673"
"2","2","retrieval","new_objects","220","Syrup_Maple.jpg","37","1","685"
"2","2","retrieval","new_objects","221","Case_CD.jpg","37","1","664"
"2","2","retrieval","new_objects","222","PowerDoorPushButton.jpg","37","1","628"
"2","2","retrieval","new_objects","223","ToothPick.jpg","37","1","794"
"2","2","retrieval","new_objects","224","Pipette.jpg","37","1","721"
"2","2","retrieval","new_objects","225","ToothbrushHolder.jpg","37","1","659"
"2","2","retrieval","new_objects","226","Pitcher.jpg","37","1","697"
"2","2","retrieval","old_objects","227","Clip_Chip.jpg","36","1","724"
"2","2","retrieval","old_objects","228","Corkscrew.jpg","36","1","670"
"2","2","retrieval","new_objects","229","LampPost_OneBulb.jpg","37","1","714"
"2","2","retrieval","old_objects","230","MeatGrinder.jpg","36","1","652"
"2","2","retrieval","new_objects","231","Chair_BeanBag.jpg","37","1","713"
"2","2","retrieval","new_objects","232","Brush_Windshield.jpg","37","1","731"
"2","2","retrieval","new_objects","233","ChiliFlakes.jpg","37","1","804"
"2","2","retrieval","new_objects","234","Feet.jpg","37","1","747"
"2","2","retrieval","new_objects","235","GoldNugget.jpg","37","1","764"
"2","2","retrieval","old_objects","236","BunsenBurner.jpg","36","1","908"
"2","2","retrieval","old_objects","237","Ball_Tennis.jpg","36","1","702"
"2","2","retrieval","new_objects","238","Razor.jpg","37","1","810"
"2","2","retrieval","new_objects","239","Microwave.jpg","37","1","736"
"2","2","retrieval","new_objects","240","Steamroller.jpg","37","1","737"
"2","2","retrieval","new_objects","241","House_Rural.jpg","37","1","659"
"2","2","retrieval","new_objects","242","Stingray.jpg","37","1","696"
"2","2","retrieval","new_objects","243","House_Stone.jpg","37","1","674"
"2","2","retrieval","old_objects","245","Peppermill.jpg","36","1","735"
"2","2","retrieval","old_objects","246","Toaster_Antique.jpg","36","1","688"
"2","2","retrieval","old_objects","247","Boxcutter.jpg","36","1","676"
"2","2","retrieval","new_objects","248","Easel.jpg","37","1","687"
"2","2","retrieval","new_objects","249","Stick_Honey.jpg","37","1","611"
"2","2","retrieval","old_objects","250","PoliceTape.jpg","36","1","714"
"2","2","retrieval","old_objects","251","Airplane_Small.jpg","36","1","788"
"2","2","retrieval","new_objects","252","Clock_Wall.jpg","37","1","667"
"2","2","retrieval","old_objects","253","CoolingFan_Engine2.jpg","36","1","631"
"2","2","retrieval","new_objects","254","ChainRusty.jpg","37","1","605"
"2","2","retrieval","old_objects","255","Lobster.jpg","36","1","660"
"2","2","retrieval","new_objects","256","Hook_Fishing.jpg","37","1","585"
"2","2","retrieval","new_objects","257","Bullet.jpg","37","1","720"
"2","2","retrieval","old_objects","258","AirTank.jpg","36","1","594"
"2","2","retrieval","new_objects","259","Crate_Milk.jpg","37","1","561"
"2","2","retrieval","old_objects","260","Bicycle_Kids.jpg","36","1","714"
"2","2","retrieval","new_objects","261","Sandcastle.jpg","37","1","588"
"2","2","retrieval","old_objects","262","Helmet_Knight.jpg","36","1","668"
"2","2","retrieval","old_objects","263","SaxophoneSoprano.jpg","36","1","728"
"2","2","retrieval","old_objects","264","Syringe_Blunt.jpg","36","1","746"
"2","2","retrieval","old_objects","265","Suitcase.jpg","36","1","667"
"2","2","retrieval","old_objects","266","Pig.jpg","36","1","647"
"2","2","retrieval","old_objects","267","Candy_Chocolate.jpg","36","1","700"
"2","2","retrieval","old_objects","268","IceScraper.jpg","36","1","703"
"2","2","retrieval","old_objects","269","Cup_Latte.jpg","36","1","729"
"2","2","retrieval","old_objects","270","Scissors.jpg","36","1","636"
"2","2","retrieval","new_objects","271","Skirt_Stripes.jpg","37","1","617"
"2","2","retrieval","old_objects","272","Toy_Zebra.jpg","37","0","567"
"2","2","retrieval","old_objects","273","Chair_Student.jpg","36","1","855"
"2","2","retrieval","new_objects","274","Camera_Video.jpg","37","1","702"
"2","2","retrieval","old_objects","275","ComputerKeyboard.jpg","36","1","799"
"2","2","retrieval","old_objects","276","Tube_Paint.jpg","36","1","782"
"2","2","retrieval","old_objects","277","Shrub_Boxwood.jpg","36","1","741"
"2","2","retrieval","new_objects","278","BookShelf.jpg","37","1","766"
"2","2","retrieval","new_objects","279","Knife_Butter.jpg","37","1","662"
"2","2","retrieval","old_objects","280","Paddle_PingPong.jpg","36","1","684"
"2","2","retrieval","new_objects","281","Tombstone.jpg","37","1","735"
"2","2","retrieval","old_objects","282","Seeder.jpg","36","1","640"
"2","2","retrieval","old_objects","283","Chair_Rocking.jpg","36","1","757"
"2","2","retrieval","old_objects","284","Seashell_RoseMurex.jpg","36","1","710"
"2","2","retrieval","old_objects","285","Phone_Public.jpg","36","1","713"
"2","2","retrieval","old_objects","286","Cow.jpg","36","1","732"
"2","2","retrieval","new_objects","287","BicycleOdometer.jpg","37","1","701"
"2","2","retrieval","new_objects","288","Pickle.jpg","37","1","664"
"2","2","retrieval","new_objects","289","Clock_Interior.jpg","37","1","620"
"2","2","retrieval","old_objects","290","PirateFlag.jpg","36","1","666"
"2","2","retrieval","old_objects","291","Rock_Mimetite.jpg","36","1","622"
"2","2","retrieval","old_objects","292","Glass_Cup.jpg","36","1","717"
"2","2","retrieval","old_objects","293","GogglesSwim.jpg","36","1","710"
"2","2","retrieval","new_objects","294","MalletJudge.jpg","37","1","721"
"2","2","retrieval","old_objects","295","Oars.jpg","36","1","707"
"2","2","retrieval","old_objects","296","Can_Peas.jpg","36","1","758"
"2","2","retrieval","new_objects","297","Cheesegrater_Box.jpg","37","1","703"
"2","2","retrieval","old_objects","298","Hockey_Equipment.jpg","36","1","698"
"2","2","retrieval","old_objects","299","Toy_BearBrownPlushie.jpg","36","1","709"
"2","2","retrieval","new_objects","300","Cornucopia.jpg","37","1","679"
"2","2","retrieval","new_objects","301","BicycleChain.jpg","37","1","571"
"2","2","retrieval","old_objects","302","Hammer.jpg","36","1","619"
"2","2","retrieval","new_objects","303","Vase_Decorative.jpg","37","1","665"
"2","2","retrieval","old_objects","304","Gun_Nerf.jpg","36","1","701"
"2","2","retrieval","old_objects","306","VGAport.jpg","36","1","956"
"2","2","retrieval","new_objects","307","Scarecrow.jpg","37","1","629"
"2","2","retrieval","old_objects","308","Tape_Clear.jpg","36","1","651"
"2","2","retrieval","old_objects","309","Seal_animal.jpg","36","1","623"
"2","2","retrieval","new_objects","310","Tag_Identifier.jpg","37","1","685"
"2","2","retrieval","old_objects","311","Oyster.jpg","36","1","793"
"2","2","retrieval","old_objects","312","Fork_Fondue.jpg","36","1","792"
"2","2","retrieval","new_objects","313","FireAlarm.jpg","37","1","712"
"2","2","retrieval","new_objects","314","Ginger.jpg","37","1","642"
"2","2","retrieval","new_objects","315","Telephone_TinCan.jpg","37","1","743"
"2","2","retrieval","new_objects","316","Pot_TurkishCoffee.jpg","37","1","729"
"2","2","retrieval","new_objects","317","Protractor.jpg","37","1","626"
"2","2","retrieval","old_objects","318","Flute_Wooden.jpg","36","1","688"
"2","2","retrieval","new_objects","319","GasStation.jpg","37","1","748"
"2","2","retrieval","old_objects","320","Peeler.jpg","36","1","748"
"2","2","retrieval","old_objects","321","Cat.jpg","36","1","1245"
"2","2","retrieval","old_objects","322","Trophy.jpg","36","1","747"
"2","2","retrieval","new_objects","323","TelephoneSwitchboard.jpg","37","1","667"
"2","2","retrieval","old_objects","324","Puzzle_Tree.jpg","36","1","679"
"2","2","retrieval","old_objects","325","Toy_RockingHorseBeige.jpg","36","1","628"
"2","2","retrieval","old_objects","326","Lock_Bike.jpg","36","1","762"
"2","2","retrieval","old_objects","327","Bowl_Fruits.jpg","36","1","682"
"2","2","retrieval","old_objects","328","SewingMachine.jpg","36","1","694"
"2","2","retrieval","new_objects","329","Helmet_Construction.jpg","37","1","657"
"2","2","retrieval","new_objects","330","PagodaModel.jpg","37","1","550"
"2","2","retrieval","old_objects","331","CoffeeBeans.jpg","36","1","623"
"2","2","retrieval","new_objects","332","CarSuspension.jpg","36","0","701"
"2","2","retrieval","new_objects","333","Croissant.jpg","37","1","680"
"2","2","retrieval","new_objects","334","BicyclePedal.jpg","37","1","812"
"2","2","retrieval","new_objects","335","MoneyBill50.jpg","37","1","689"
"2","2","retrieval","old_objects","336","DustPan.jpg","36","1","741"
"2","2","retrieval","old_objects","337","SculptureMetalFish.jpg","36","1","766"
"2","2","retrieval","old_objects","338","Mask_Ski.jpg","36","1","678"
"2","2","retrieval","new_objects","339","LawnMower.jpg","37","1","737"
"2","2","retrieval","old_objects","340","Hay.jpg","36","1","644"
"2","2","retrieval","old_objects","341","ChessPiece_Knight.jpg","36","1","680"
"2","2","retrieval","old_objects","342","ButterChurn.jpg","36","1","676"
"2","2","retrieval","new_objects","343","Scooter.jpg","37","1","704"
"2","2","retrieval","new_objects","344","Goat.jpg","37","1","691"
"2","2","retrieval","old_objects","345","Vest.jpg","36","1","678"
"2","2","retrieval","old_objects","346","Toy_Moose.jpg","36","1","731"
"2","2","retrieval","new_objects","347","Kebab_Vegetables.jpg","37","1","668"
"2","2","retrieval","old_objects","348","Iron_Antique.jpg","36","1","832"
"2","2","retrieval","new_objects","349","Candleholder_LampShaped.jpg","37","1","933"
"2","2","retrieval","new_objects","350","Box_WoodenClosed.jpg","37","1","719"
"2","2","retrieval","new_objects","351","Loveseat.jpg","37","1","713"
"2","2","retrieval","old_objects","352","Toy_BlocksLetter.jpg","36","1","684"
"2","2","retrieval","old_objects","353","EyeDrops.jpg","36","1","791"
"2","2","retrieval","old_objects","354","ShotGlassTray.jpg","36","1","702"
"2","2","retrieval","new_objects","355","Cage_Hamster.jpg","37","1","681"
"2","2","demographics_block","gender","1","Cage_Hamster.jpg","Female","1","18115"
"2","2","demographics_block","age","1","Cage_Hamster.jpg","27","1","18115"
"2","2","demographics_block","education","1","Cage_Hamster.jpg","14","1","18115"
"2","2","demographics_block","left_right_handed","2","Cage_Hamster.jpg","Right","1","7451"
"2","2","demographics_block","raceoption1","2","Cage_Hamster.jpg","0","1","7451"
"2","2","demographics_block","raceoption2","2","Cage_Hamster.jpg","","1","7451"
"2","2","demographics_block","raceoption3","2","Cage_Hamster.jpg","","1","7451"
"2","2","demographics_block","raceoption4","2","Cage_Hamster.jpg","","1","7451"
"2","2","demographics_block","raceoption5","2","Cage_Hamster.jpg","","1","7451"
"2","2","demographics_block","raceoption6","2","Cage_Hamster.jpg","","1","7451"
"2","2","demographics_block","raceoption7","2","Cage_Hamster.jpg","","1","7451"
"2","2","demographics_block","raceoption8","2","Cage_Hamster.jpg","","1","7451"
"2","2","demographics_block","raceoption9","2","Cage_Hamster.jpg","","1","7451"
"2","2","demographics_block","raceother","2","Cage_Hamster.jpg","","1","7451"
"2","2","demographics_block","raceother","2","Cage_Hamster.jpg","","1","7451"
"2","2","demographics_block","english_language","2","Cage_Hamster.jpg","Yes","1","7451"
"2","2","demographics_block","english_languageother","2","Cage_Hamster.jpg","","1","7451"
"2","2","demographics_block","eyesight","3","Cage_Hamster.jpg","Yes","1","4413"
"2","2","demographics_block","colorblind","3","Cage_Hamster.jpg","No","1","4413"
"2","2","worker_id_block","worker_id_textbox","1","Cage_Hamster.jpg","AA8PZKO9XGCKO","1","5950"
"5","5","encoding","encoding","1","Leaf_Green.jpg","37","0","1106"
"5","5","encoding","encoding","2","Bicycle_Kids.jpg","36","0","788"
"5","5","encoding","encoding","3","PirateFlag.jpg","36","0","935"
"5","5","encoding","encoding","4","Licorice.jpg","37","0","753"
"5","5","encoding","encoding","5","Vest.jpg","37","0","1026"
"5","5","encoding","encoding","6","Stove_Camping.jpg","36","0","755"
"5","5","encoding","encoding","7","Can_Peas.jpg","37","0","862"
"5","5","encoding","encoding","8","Helmet_Knight.jpg","36","0","640"
"5","5","encoding","encoding","9","IceScraper.jpg","37","0","890"
"5","5","encoding","encoding","10","Armchair.jpg","36","0","676"
"5","5","encoding","encoding","11","Plum.jpg","37","0","982"
"5","5","encoding","encoding","12","Oars.jpg","36","0","649"
"5","5","encoding","encoding","13","Telephone_DialAntique.jpg","37","0","651"
"5","5","encoding","encoding","14","Instrument_Guiro.jpg","37","0","1469"
"5","5","encoding","encoding","15","Candy_Chocolate.jpg","37","0","681"
"5","5","encoding","encoding","16","Mixer_Cement.jpg","36","0","650"
"5","5","encoding","encoding","17","Lock_Bike.jpg","37","0","1109"
"5","5","encoding","encoding","18","Bowl_Fruits.jpg","37","0","775"
"5","5","encoding","encoding","19","HandRake.jpg","37","0","906"
"5","5","encoding","encoding","20","CigarCutter.jpg","37","0","1132"
"5","5","encoding","encoding","21","Flute_Wooden.jpg","37","0","1231"
"5","5","encoding","encoding","22","Lobster.jpg","36","0","1217"
"5","5","encoding","encoding","23","AlarmSystem.jpg","37","0","932"
"5","5","encoding","encoding","24","Shovel_Garden.jpg","37","0","668"
"5","5","encoding","encoding","25","Chair_Student.jpg","36","0","656"
"5","5","encoding","encoding","26","Glass_Cup.jpg","37","0","794"
"5","5","encoding","encoding","27","PanCooking.jpg","36","0","1021"
"5","5","encoding","encoding","28","Ashtray_Cigarettes.jpg","37","0","831"
"5","5","encoding","encoding","29","Snowboard.jpg","36","0","769"
"5","5","encoding","encoding","30","Bird_Pelican.jpg","36","0","643"
"5","5","encoding","encoding","31","Dill.jpg","37","0","773"
"5","5","encoding","encoding","32","Cup_Latte.jpg","37","0","929"
"5","5","encoding","encoding","33","Wardrobe.jpg","36","0","1401"
"5","5","encoding","encoding","34","Magnifying_Glass.jpg","37","0","1236"
"5","5","encoding","encoding","35","Fan_Straw.jpg","36","0","974"
"5","5","encoding","encoding","36","Peeler.jpg","37","0","735"
"5","5","encoding","encoding","37","Iron_Antique.jpg","36","0","1786"
"5","5","encoding","encoding","38","Lipstick.jpg","37","0","886"
"5","5","encoding","encoding","39","FlipFlop_PairBlue.jpg","37","0","1327"
"5","5","encoding","encoding","40","Toy_Zebra.jpg","37","0","769"
"5","5","encoding","encoding","41","Envelope_Manila.jpg","37","0","1571"
"5","5","encoding","encoding","42","Arm.jpg","36","0","1252"
"5","5","encoding","encoding","43","Bottle_CosmeticSpray.jpg","37","0","879"
"5","5","encoding","encoding","44","Magnet_Three.jpg","37","0","699"
"5","5","encoding","encoding","45","Button.jpg","37","0","732"
"5","5","encoding","encoding","46","DivingBoard.jpg","36","0","814"
"5","5","encoding","encoding","47","BinRecycling.jpg","36","0","1105"
"5","5","encoding","encoding","48","Toy_Stroller.jpg","37","0","908"
"5","5","encoding","encoding","49","ScannerShoplifting.jpg","36","0","885"
"5","5","encoding","encoding","50","Glass_bottle.jpg","37","0","1248"
"5","5","encoding","encoding","51","GogglesSwim.jpg","37","0","858"
"5","5","encoding","encoding","52","Tape_Clear.jpg","37","0","917"
"5","5","encoding","encoding","53","Pot_Crock.jpg","36","0","911"
"5","5","encoding","encoding","54","Ball_Tennis.jpg","37","0","761"
"5","5","encoding","encoding","55","Toy_Moose.jpg","37","0","700"
"5","5","encoding","encoding","56","PaperStack.jpg","36","0","1254"
"5","5","encoding","encoding","57","JukeboxAntique.jpg","36","0","673"
"5","5","encoding","encoding","58","CheeseSlicer.jpg","37","0","707"
"5","5","encoding","encoding","59","Seeder.jpg","36","0","669"
"5","5","encoding","encoding","60","CandleSnuffer.jpg","37","0","792"
"5","5","encoding","encoding","62","MeatGrinder.jpg","37","0","1019"
"5","5","encoding","encoding","63","Shrimp.jpg","37","0","596"
"5","5","encoding","encoding","64","Spatula.jpg","37","0","1095"
"5","5","encoding","encoding","65","Wreath.jpg","36","0","1009"
"5","5","encoding","encoding","66","Snail.jpg","37","0","580"
"5","5","encoding","encoding","67","Seashell_RoseMurex.jpg","37","0","550"
"5","5","encoding","encoding","68","Napkin_Holder.jpg","37","0","1104"
"5","5","encoding","encoding","69","Toy_BearBrownPlushie.jpg","37","0","1082"
"5","5","encoding","encoding","70","Bleachers.jpg","36","0","1020"
"5","5","encoding","encoding","71","ComputerKeyboard.jpg","36","0","786"
"5","5","encoding","encoding","72","Toy_DinosaurBrontosaurus.jpg","37","0","800"
"5","5","encoding","encoding","73","Mask_Ski.jpg","37","0","818"
"5","5","encoding","encoding","74","Clip_Chip.jpg","37","0","1172"
"5","5","encoding","encoding","75","Coconut.jpg","36","0","1551"
"5","5","encoding","encoding","76","Bucket_WoodenLight.jpg","36","0","889"
"5","5","encoding","encoding","77","PotatoMasher_Grate.jpg","37","0","898"
"5","5","encoding","encoding","78","Partition.jpg","36","0","749"
"5","5","encoding","encoding","79","Toy_DollOffice.jpg","37","0","864"
"5","5","encoding","encoding","80","Toy_RockingHorseBeige.jpg","36","0","889"
"5","5","encoding","encoding","81","Gecko.jpg","37","0","1003"
"5","5","encoding","encoding","82","CoffeeBeans.jpg","37","0","694"
"5","5","encoding","encoding","83","Airplane_Small.jpg","36","0","944"
"5","5","encoding","encoding","84","VGAport.jpg","37","0","987"
"5","5","encoding","encoding","85","Candelabra.jpg","36","0","1030"
"5","5","encoding","encoding","86","PaintRoller.jpg","36","0","1032"
"5","5","encoding","encoding","87","Sign_Airport.jpg","36","0","954"
"5","5","encoding","encoding","88","Wheelbarrow_Green.jpg","36","0","756"
"5","5","encoding","encoding","89","Cart_Janitor.jpg","36","0","750"
"5","5","encoding","encoding","90","Toy_Bat.jpg","37","0","1033"
"5","5","encoding","encoding","91","ChessPiece_Knight.jpg","37","0","796"
"5","5","encoding","encoding","92","EyeDrops.jpg","37","0","1174"
"5","5","encoding","encoding","93","Pig.jpg","36","0","768"
"5","5","encoding","encoding","94","Turtle.jpg","36","0","996"
"5","5","encoding","encoding","95","Cow.jpg","36","0","684"
"5","5","encoding","encoding","96","Boxcutter.jpg","37","0","886"
"5","5","encoding","encoding","97","ShotGlassTray.jpg","36","0","880"
"5","5","encoding","encoding","98","HumanSkeleton.jpg","36","0","771"
"5","5","encoding","encoding","99","Clock_Digital.jpg","37","0","725"
"5","5","encoding","encoding","100","Rock_Mimetite.jpg","37","0","1751"
"5","5","encoding","encoding","101","Peppermill.jpg","37","0","913"
"5","5","encoding","encoding","102","Bird_Budgie.jpg","37","0","740"
"5","5","encoding","encoding","103","Bowl_Chinese.jpg","36","0","1438"
"5","5","encoding","encoding","104","Bag_Groceries.jpg","36","0","889"
"5","5","encoding","encoding","105","Donut.jpg","37","0","676"
"5","5","encoding","encoding","106","Gun_Nerf.jpg","37","0","798"
"5","5","encoding","encoding","107","Shoe_Men.jpg","37","0","848"
"5","5","encoding","encoding","108","Glass_Beer.jpg","37","0","739"
"5","5","encoding","encoding","109","DrillBit.jpg","37","0","740"
"5","5","encoding","encoding","110","DrinkingFountain.jpg","36","0","1054"
"5","5","encoding","encoding","111","Oyster.jpg","37","0","632"
"5","5","encoding","encoding","112","Binder.jpg","36","0","835"
"5","5","encoding","encoding","113","Paratrooper.jpg","36","0","821"
"5","5","encoding","encoding","114","BicycleWheelRusty.jpg","36","0","968"
"5","5","encoding","encoding","115","Car_Sedan.jpg","36","0","633"
"5","5","encoding","encoding","116","Nightstand.jpg","36","0","906"
"5","5","encoding","encoding","117","WindowBlinds.jpg","36","0","702"
"5","5","encoding","encoding","118","SculptureMetalFish.jpg","36","0","816"
"5","5","encoding","encoding","119","ButterChurn.jpg","36","0","666"
"5","5","encoding","encoding","120","Scissors.jpg","37","0","533"
"5","5","encoding","encoding","121","Pencil.jpg","37","0","664"
"5","5","encoding","encoding","123","Fence_ChainLink.jpg","36","0","1196"
"5","5","encoding","encoding","124","Tag_Price.jpg","37","0","1070"
"5","5","encoding","encoding","125","HerbsInBag.jpg","36","0","1041"
"5","5","encoding","encoding","126","SewingMachine.jpg","36","0","540"
"5","5","encoding","encoding","127","Bowl_Flour.jpg","37","0","975"
"5","5","encoding","encoding","128","Corkscrew.jpg","37","0","680"
"5","5","encoding","encoding","129","Ruler_Metal.jpg","37","0","1004"
"5","5","encoding","encoding","130","AirTank.jpg","36","0","773"
"5","5","encoding","encoding","131","Stove_Propane.jpg","36","0","824"
"5","5","encoding","encoding","132","PoliceTape.jpg","37","0","1122"
"5","5","encoding","encoding","133","Chicken_FriedDrum.jpg","37","0","797"
"5","5","encoding","encoding","134","Case_Leather.jpg","37","0","767"
"5","5","encoding","encoding","135","Chair_Dining.jpg","36","0","1034"
"5","5","encoding","encoding","136","Hammer.jpg","36","0","1834"
"5","5","encoding","encoding","137","FireExtinguisher.jpg","36","0","769"
"5","5","encoding","encoding","138","Cat.jpg","36","0","745"
"5","5","encoding","encoding","139","Trophy.jpg","37","0","927"
"5","5","encoding","encoding","140","Bottle_BubbleBlower.jpg","37","0","942"
"5","5","encoding","encoding","141","Suitcase.jpg","36","0","897"
"5","5","encoding","encoding","142","DentistOverheadLight.jpg","36","0","1064"
"5","5","encoding","encoding","143","Seal_animal.jpg","36","0","742"
"5","5","encoding","encoding","144","Neckrest.jpg","36","0","1010"
"5","5","encoding","encoding","145","Shrub_Boxwood.jpg","36","0","626"
"5","5","encoding","encoding","146","SpaceShuttle.jpg","36","0","949"
"5","5","encoding","encoding","147","CrepeMaker.jpg","36","0","1399"
"5","5","encoding","encoding","148","Paddle_PingPong.jpg","36","0","834"
"5","5","encoding","encoding","149","SaxophoneSoprano.jpg","36","0","1171"
"5","5","encoding","encoding","150","Toolbox_RedOpen.jpg","36","0","990"
"5","5","encoding","encoding","151","CoolingFan_Engine2.jpg","37","0","865"
"5","5","encoding","encoding","152","CarLighter.jpg","37","0","835"
"5","5","encoding","encoding","153","Syringe_Blunt.jpg","37","0","710"
"5","5","encoding","encoding","154","Switch_Power.jpg","37","0","753"
"5","5","encoding","encoding","155","BunsenBurner.jpg","37","0","1019"
"5","5","encoding","encoding","156","MouthGuard.jpg","37","0","797"
"5","5","encoding","encoding","157","Toy_Christmastree.jpg","37","0","928"
"5","5","encoding","encoding","158","Weathervane.jpg","36","0","995"
"5","5","encoding","encoding","159","TinChristmas.jpg","36","0","1653"
"5","5","encoding","encoding","160","DustPan.jpg","37","0","767"
"5","5","encoding","encoding","161","Fork_Fondue.jpg","37","0","921"
"5","5","encoding","encoding","162","Bed_Hospital.jpg","36","0","924"
"5","5","encoding","encoding","163","MassageRoller.jpg","37","0","1478"
"5","5","encoding","encoding","164","Toy_Tractor_1.jpg","37","0","872"
"5","5","encoding","encoding","165","Jar_Capers.jpg","36","0","1106"
"5","5","encoding","encoding","166","Tube_Paint.jpg","37","0","965"
"5","5","encoding","encoding","167","Hay.jpg","36","0","759"
"5","5","encoding","encoding","168","Toy_BlocksLetter.jpg","37","0","818"
"5","5","encoding","encoding","169","Phone_Public.jpg","36","0","732"
"5","5","encoding","encoding","170","Hockey_Equipment.jpg","36","0","814"
"5","5","encoding","encoding","171","TowerEiffel.jpg","36","0","800"
"5","5","encoding","encoding","172","Puzzle_Tree.jpg","37","0","843"
"5","5","encoding","encoding","173","Rag.jpg","37","0","733"
"5","5","encoding","encoding","174","Stool_Wood.jpg","36","0","800"
"5","5","encoding","encoding","175","Chair_Rocking.jpg","36","0","655"
"5","5","encoding","encoding","176","Toaster_Antique.jpg","36","0","853"
"5","5","encoding","encoding","177","EnglishMuffin.jpg","37","0","766"
"5","5","retrieval","new_objects","1","Pipette.jpg","37","1","887"
"5","5","retrieval","old_objects","2","Helmet_Knight.jpg","36","1","1103"
"5","5","retrieval","new_objects","3","Decoration_ChristmasRed.jpg","37","1","944"
"5","5","retrieval","old_objects","4","CoolingFan_Engine2.jpg","36","1","907"
"5","5","retrieval","old_objects","5","Syringe_Blunt.jpg","36","1","818"
"5","5","retrieval","old_objects","6","Pig.jpg","36","1","734"
"5","5","retrieval","old_objects","7","Oars.jpg","36","1","691"
"5","5","retrieval","old_objects","8","Dill.jpg","36","1","699"
"5","5","retrieval","new_objects","9","Toy_Witch.jpg","37","1","731"
"5","5","retrieval","new_objects","10","ToothPick.jpg","37","1","785"
"5","5","retrieval","old_objects","11","IceScraper.jpg","36","1","694"
"5","5","retrieval","old_objects","12","Iron_Antique.jpg","36","1","734"
"5","5","retrieval","old_objects","13","Pencil.jpg","36","1","644"
"5","5","retrieval","old_objects","14","Snowboard.jpg","36","1","702"
"5","5","retrieval","old_objects","15","Bowl_Flour.jpg","36","1","582"
"5","5","retrieval","old_objects","16","ShotGlassTray.jpg","36","1","614"
"5","5","retrieval","old_objects","17","Toaster_Antique.jpg","36","1","595"
"5","5","retrieval","old_objects","18","Bed_Hospital.jpg","36","1","640"
"5","5","retrieval","old_objects","19","Arm.jpg","36","1","674"
"5","5","retrieval","new_objects","20","Sign_Wetfloor.jpg","37","1","770"
"5","5","retrieval","new_objects","21","Pants_Firefighter.jpg","37","1","815"
"5","5","retrieval","new_objects","22","Dart.jpg","37","1","714"
"5","5","retrieval","new_objects","23","Inukshuk.jpg","37","1","784"
"5","5","retrieval","new_objects","24","Humidifier.jpg","37","1","702"
"5","5","retrieval","new_objects","25","TelephoneSwitchboard.jpg","37","1","908"
"5","5","retrieval","new_objects","26","Shoe_Sneaker.jpg","37","1","675"
"5","5","retrieval","old_objects","27","Stool_Wood.jpg","36","1","669"
"5","5","retrieval","new_objects","28","FortuneCookie.jpg","37","1","676"
"5","5","retrieval","old_objects","29","Wardrobe.jpg","36","1","749"
"5","5","retrieval","old_objects","30","CrepeMaker.jpg","36","1","651"
"5","5","retrieval","old_objects","31","Shovel_Garden.jpg","36","1","737"
"5","5","retrieval","new_objects","32","Table_Set.jpg","37","1","842"
"5","5","retrieval","old_objects","33","Cat.jpg","36","1","669"
"5","5","retrieval","old_objects","34","Oyster.jpg","36","1","618"
"5","5","retrieval","new_objects","35","Clock_Wall.jpg","37","1","784"
"5","5","retrieval","old_objects","36","GogglesSwim.jpg","36","1","676"
"5","5","retrieval","new_objects","37","Door_Green.jpg","37","1","685"
"5","5","retrieval","new_objects","38","BicyclePedal.jpg","37","1","765"
"5","5","retrieval","new_objects","39","Mirror_Dental.jpg","37","1","754"
"5","5","retrieval","old_objects","40","Bag_Groceries.jpg","36","1","639"
"5","5","retrieval","new_objects","41","MalletJudge.jpg","37","1","898"
"5","5","retrieval","old_objects","42","Flute_Wooden.jpg","36","1","625"
"5","5","retrieval","old_objects","43","Car_Sedan.jpg","36","1","796"
"5","5","retrieval","new_objects","44","SlushieMachine.jpg","37","1","752"
"5","5","retrieval","old_objects","45","SaxophoneSoprano.jpg","36","1","762"
"5","5","retrieval","old_objects","46","Paratrooper.jpg","36","1","626"
"5","5","retrieval","old_objects","47","Bicycle_Kids.jpg","36","1","822"
"5","5","retrieval","new_objects","48","TortillaChip.jpg","37","1","856"
"5","5","retrieval","new_objects","49","Stingray.jpg","37","1","761"
"5","5","retrieval","new_objects","50","Toy_DollHomeMade.jpg","37","1","598"
"5","5","retrieval","new_objects","51","Syrup_Maple.jpg","37","1","682"
"5","5","retrieval","old_objects","52","SewingMachine.jpg","36","1","698"
"5","5","retrieval","old_objects","53","Corkscrew.jpg","36","1","666"
"5","5","retrieval","old_objects","54","SpaceShuttle.jpg","36","1","715"
"5","5","retrieval","old_objects","55","Toolbox_RedOpen.jpg","36","1","698"
"5","5","retrieval","new_objects","56","Gorilla.jpg","37","1","754"
"5","5","retrieval","new_objects","57","Sandcastle.jpg","37","1","815"
"5","5","retrieval","new_objects","58","RibbonString.jpg","37","1","609"
"5","5","retrieval","new_objects","59","Sign_Taxi.jpg","37","1","636"
"5","5","retrieval","old_objects","60","Lipstick.jpg","36","1","711"
"5","5","retrieval","new_objects","62","Comb.jpg","37","1","607"
"5","5","retrieval","new_objects","63","Table_Poker.jpg","37","1","627"
"5","5","retrieval","new_objects","64","Toy_Turtle.jpg","37","1","836"
"5","5","retrieval","old_objects","65","DivingBoard.jpg","36","1","622"
"5","5","retrieval","old_objects","66","Mask_Ski.jpg","36","1","594"
"5","5","retrieval","old_objects","67","Scissors.jpg","36","1","685"
"5","5","retrieval","old_objects","68","Shrimp.jpg","36","1","741"
"5","5","retrieval","new_objects","69","ShoeLace_Flat.jpg","37","1","715"
"5","5","retrieval","old_objects","70","DentistOverheadLight.jpg","37","0","770"
"5","5","retrieval","new_objects","71","Hat_Beret.jpg","37","1","862"
"5","5","retrieval","old_objects","72","Pot_Crock.jpg","36","1","519"
"5","5","retrieval","new_objects","73","GoldNugget.jpg","36","0","721"
"5","5","retrieval","old_objects","74","Peeler.jpg","36","1","613"
"5","5","retrieval","old_objects","75","Chair_Rocking.jpg","36","1","568"
"5","5","retrieval","old_objects","76","Candy_Chocolate.jpg","36","1","613"
"5","5","retrieval","old_objects","77","DrinkingFountain.jpg","36","1","625"
"5","5","retrieval","new_objects","78","Battery_Car.jpg","37","1","859"
"5","5","retrieval","new_objects","79","Dolly.jpg","37","1","708"
"5","5","retrieval","new_objects","80","Clock_Interior.jpg","37","1","811"
"5","5","retrieval","old_objects","81","Cup_Latte.jpg","36","1","662"
"5","5","retrieval","new_objects","82","Fruit_Orange.jpg","37","1","703"
"5","5","retrieval","new_objects","83","Loveseat.jpg","36","0","872"
"5","5","retrieval","old_objects","84","Glass_Cup.jpg","36","1","976"
"5","5","retrieval","old_objects","85","Candelabra.jpg","36","1","628"
"5","5","retrieval","old_objects","86","MouthGuard.jpg","36","1","687"
"5","5","retrieval","old_objects","87","Switch_Power.jpg","36","1","615"
"5","5","retrieval","old_objects","88","Clock_Digital.jpg","36","1","611"
"5","5","retrieval","new_objects","89","Arch_Triomphe.jpg","37","1","742"
"5","5","retrieval","new_objects","90","Container_Tupperware.jpg","37","1","563"
"5","5","retrieval","new_objects","91","Exercise_Stepper.jpg","37","1","672"
"5","5","retrieval","old_objects","92","Instrument_Guiro.jpg","36","1","654"
"5","5","retrieval","new_objects","93","Steamroller.jpg","37","1","738"
"5","5","retrieval","old_objects","94","Seashell_RoseMurex.jpg","36","1","912"
"5","5","retrieval","old_objects","95","Nightstand.jpg","36","1","640"
"5","5","retrieval","new_objects","96","BicycleChain.jpg","37","1","682"
"5","5","retrieval","new_objects","97","Table_Side.jpg","37","1","827"
"5","5","retrieval","old_objects","98","Napkin_Holder.jpg","36","1","614"
"5","5","retrieval","old_objects","99","Lobster.jpg","36","1","723"
"5","5","retrieval","old_objects","100","Phone_Public.jpg","36","1","696"
"5","5","retrieval","new_objects","101","GasStation.jpg","37","1","751"
"5","5","retrieval","old_objects","102","AirTank.jpg","36","1","676"
"5","5","retrieval","old_objects","103","Toy_DollOffice.jpg","36","1","613"
"5","5","retrieval","new_objects","104","RibbonPin.jpg","37","1","753"
"5","5","retrieval","new_objects","105","Crate_Milk.jpg","37","1","598"
"5","5","retrieval","old_objects","106","Armchair.jpg","36","1","610"
"5","5","retrieval","old_objects","107","ScannerShoplifting.jpg","36","1","758"
"5","5","retrieval","new_objects","108","Bucket_WoodenDark.jpg","37","1","962"
"5","5","retrieval","new_objects","109","Pitcher.jpg","37","1","663"
"5","5","retrieval","new_objects","110","Figurine_Ballerina.jpg","37","1","680"
"5","5","retrieval","old_objects","111","ComputerKeyboard.jpg","36","1","609"
"5","5","retrieval","old_objects","112","Toy_DinosaurBrontosaurus.jpg","36","1","589"
"5","5","retrieval","old_objects","113","CoffeeBeans.jpg","36","1","546"
"5","5","retrieval","new_objects","114","Cart_Groceries.jpg","36","0","567"
"5","5","retrieval","new_objects","115","Airplane_Fighter.jpg","37","1","804"
"5","5","retrieval","old_objects","116","Tube_Paint.jpg","36","1","703"
"5","5","retrieval","new_objects","117","FireAlarm.jpg","37","1","735"
"5","5","retrieval","new_objects","118","Crib_Basket.jpg","37","1","861"
"5","5","retrieval","new_objects","119","Toy_SeeSaw.jpg","37","1","790"
"5","5","retrieval","old_objects","120","Bird_Pelican.jpg","36","1","618"
"5","5","retrieval","new_objects","121","HDMIConnector.jpg","37","1","800"
"5","5","retrieval","old_objects","123","FireExtinguisher.jpg","37","0","1003"
"5","5","retrieval","old_objects","124","Trophy.jpg","36","1","638"
"5","5","retrieval","new_objects","125","Goat.jpg","37","1","793"
"5","5","retrieval","new_objects","126","Pillow_Heart.jpg","37","1","610"
"5","5","retrieval","new_objects","127","Scooter.jpg","37","1","887"
"5","5","retrieval","old_objects","128","Can_Peas.jpg","36","1","614"
"5","5","retrieval","new_objects","129","Cake_Birthday.jpg","37","1","650"
"5","5","retrieval","new_objects","130","Case_CD.jpg","37","1","638"
"5","5","retrieval","old_objects","131","Toy_Moose.jpg","36","1","671"
"5","5","retrieval","old_objects","132","Glass_Beer.jpg","36","1","614"
"5","5","retrieval","old_objects","133","Leaf_Green.jpg","37","0","770"
"5","5","retrieval","old_objects","134","Toy_Bat.jpg","36","1","631"
"5","5","retrieval","new_objects","135","VacuumHose.jpg","37","1","728"
"5","5","retrieval","old_objects","136","Bucket_WoodenLight.jpg","36","1","1055"
"5","5","retrieval","old_objects","137","BinRecycling.jpg","36","1","760"
"5","5","retrieval","new_objects","138","LifeJacket_BlueYellow.jpg","37","1","661"
"5","5","retrieval","new_objects","139","Suit_Women.jpg","37","1","790"
"5","5","retrieval","old_objects","140","Jar_Capers.jpg","36","1","658"
"5","5","retrieval","new_objects","141","Gloves_WhiteKnit.jpg","36","0","587"
"5","5","retrieval","old_objects","142","Bottle_CosmeticSpray.jpg","36","1","615"
"5","5","retrieval","new_objects","143","PagodaModel.jpg","37","1","882"
"5","5","retrieval","old_objects","144","Plum.jpg","36","1","787"
"5","5","retrieval","new_objects","145","ChocolateBar_HalfUnwrapped.jpg","37","1","574"
"5","5","retrieval","new_objects","146","Birdhouse.jpg","37","1","667"
"5","5","retrieval","old_objects","147","Stove_Camping.jpg","37","0","821"
"5","5","retrieval","old_objects","148","Toy_BlocksLetter.jpg","36","1","615"
"5","5","retrieval","new_objects","149","Bottle_Wine.jpg","37","1","594"
"5","5","retrieval","new_objects","150","Chair_Folding.jpg","37","1","622"
"5","5","retrieval","old_objects","151","PirateFlag.jpg","36","1","625"
"5","5","retrieval","old_objects","152","Wheelbarrow_Green.jpg","37","0","708"
"5","5","retrieval","new_objects","153","Wontons.jpg","37","1","763"
"5","5","retrieval","new_objects","154","Bag_Toiletry.jpg","37","1","808"
"5","5","retrieval","new_objects","155","Helmet_Construction.jpg","37","1","682"
"5","5","retrieval","new_objects","156","Cage_Hamster.jpg","37","1","698"
"5","5","retrieval","new_objects","157","Pancakes.jpg","37","1","642"
"5","5","retrieval","old_objects","158","Weathervane.jpg","36","1","621"
"5","5","retrieval","new_objects","159","TailLight.jpg","37","1","766"
"5","5","retrieval","old_objects","160","Fan_Straw.jpg","36","1","699"
"5","5","retrieval","new_objects","161","Chair_Bamboo.jpg","37","1","714"
"5","5","retrieval","old_objects","162","Tape_Clear.jpg","36","1","706"
"5","5","retrieval","old_objects","163","Tag_Price.jpg","36","1","577"
"5","5","retrieval","new_objects","164","Toolbox_Old.jpg","37","1","670"
"5","5","retrieval","new_objects","165","GutterAndDrainPipe.jpg","37","1","777"
"5","5","retrieval","new_objects","166","Ship_Battle.jpg","37","1","643"
"5","5","retrieval","new_objects","167","Knife_Butter.jpg","37","1","661"
"5","5","retrieval","new_objects","168","LawnMower.jpg","37","1","765"
"5","5","retrieval","old_objects","169","Rock_Mimetite.jpg","36","1","619"
"5","5","retrieval","new_objects","170","Cabinet_Office.jpg","37","1","702"
"5","5","retrieval","new_objects","171","Jug_Wicker.jpg","37","1","797"
"5","5","retrieval","old_objects","172","Case_Leather.jpg","36","1","584"
"5","5","retrieval","new_objects","173","Cherry.jpg","37","1","725"
"5","5","retrieval","new_objects","174","BookShelf.jpg","37","1","748"
"5","5","retrieval","old_objects","175","CigarCutter.jpg","36","1","833"
"5","5","retrieval","old_objects","176","Stove_Propane.jpg","36","1","619"
"5","5","retrieval","new_objects","177","Tombstone.jpg","37","1","558"
"5","5","retrieval","old_objects","178","DrillBit.jpg","36","1","636"
"5","5","retrieval","old_objects","179","TowerEiffel.jpg","36","1","686"
"5","5","retrieval","new_objects","180","Toaster_MetalSleek.jpg","37","1","718"
"5","5","retrieval","old_objects","181","Cart_Janitor.jpg","36","1","837"
"5","5","retrieval","new_objects","182","Flamingo_Cartoon.jpg","37","1","679"
"5","5","retrieval","new_objects","184","Egg_Wooden.jpg","37","1","578"
"5","5","retrieval","new_objects","185","Tag_Identifier.jpg","37","1","774"
"5","5","retrieval","old_objects","186","BicycleWheelRusty.jpg","37","0","539"
"5","5","retrieval","old_objects","187","Toy_BearBrownPlushie.jpg","36","1","562"
"5","5","retrieval","new_objects","188","Canister_Oil.jpg","37","1","646"
"5","5","retrieval","new_objects","189","Ginger.jpg","37","1","826"
"5","5","retrieval","old_objects","190","CarLighter.jpg","36","1","691"
"5","5","retrieval","new_objects","191","Alfalfa.jpg","37","1","746"
"5","5","retrieval","old_objects","192","Neckrest.jpg","36","1","629"
"5","5","retrieval","old_objects","193","ButterChurn.jpg","36","1","603"
"5","5","retrieval","new_objects","194","Jar_Canopic.jpg","37","1","700"
"5","5","retrieval","old_objects","195","FlipFlop_PairBlue.jpg","36","1","611"
"5","5","retrieval","new_objects","196","ChainRusty.jpg","37","1","614"
"5","5","retrieval","old_objects","197","Chicken_FriedDrum.jpg","36","1","562"
"5","5","retrieval","new_objects","198","RiceRaw.jpg","37","1","607"
"5","5","retrieval","old_objects","199","Bowl_Chinese.jpg","36","1","682"
"5","5","retrieval","new_objects","200","MoneyBill50.jpg","37","1","610"
"5","5","retrieval","new_objects","201","PhoneCase.jpg","37","1","669"
"5","5","retrieval","old_objects","202","Shoe_Men.jpg","36","1","678"
"5","5","retrieval","new_objects","203","Pickle.jpg","37","1","638"
"5","5","retrieval","old_objects","204","Wreath.jpg","36","1","681"
"5","5","retrieval","old_objects","205","Toy_RockingHorseBeige.jpg","36","1","609"
"5","5","retrieval","old_objects","206","Toy_Tractor_1.jpg","36","1","525"
"5","5","retrieval","old_objects","207","Ball_Tennis.jpg","36","1","524"
"5","5","retrieval","old_objects","208","Ashtray_Cigarettes.jpg","36","1","611"
"5","5","retrieval","old_objects","209","Snail.jpg","36","1","607"
"5","5","retrieval","old_objects","210","Donut.jpg","36","1","642"
"5","5","retrieval","old_objects","211","Turtle.jpg","37","0","748"
"5","5","retrieval","new_objects","212","LeatherPuncherTool.jpg","36","0","1010"
"5","5","retrieval","old_objects","213","Hockey_Equipment.jpg","37","0","765"
"5","5","retrieval","new_objects","214","BicycleOdometer.jpg","37","1","670"
"5","5","retrieval","old_objects","215","Fork_Fondue.jpg","36","1","795"
"5","5","retrieval","old_objects","216","PoliceTape.jpg","36","1","623"
"5","5","retrieval","new_objects","217","Hedgehog.jpg","37","1","922"
"5","5","retrieval","new_objects","218","Necklace_Pearl.jpg","37","1","1031"
"5","5","retrieval","new_objects","219","Bread_Carrot.jpg","36","0","1233"
"5","5","retrieval","new_objects","220","Telephone_TinCan.jpg","37","1","1044"
"5","5","retrieval","new_objects","221","BuildingChinese.jpg","37","1","1372"
"5","5","retrieval","old_objects","222","Bowl_Fruits.jpg","36","1","912"
"5","5","retrieval","new_objects","223","Bed_ChildBirch.jpg","37","1","1023"
"5","5","retrieval","new_objects","224","TurkeyDinner.jpg","37","1","1025"
"5","5","retrieval","old_objects","225","Bleachers.jpg","36","1","844"
"5","5","retrieval","old_objects","226","Seal_animal.jpg","36","1","934"
"5","5","retrieval","new_objects","227","Chair_BeanBag.jpg","37","1","948"
"5","5","retrieval","new_objects","228","Plunger.jpg","37","1","985"
"5","5","retrieval","new_objects","229","Toy_Lizard.jpg","37","1","997"
"5","5","retrieval","old_objects","230","Telephone_DialAntique.jpg","36","1","912"
"5","5","retrieval","old_objects","231","Licorice.jpg","36","1","784"
"5","5","retrieval","new_objects","232","ToothbrushHolder.jpg","37","1","748"
"5","5","retrieval","new_objects","233","Chair_PlasticGreen.jpg","36","0","985"
"5","5","retrieval","new_objects","234","RollerCoaster.jpg","37","1","773"
"5","5","retrieval","old_objects","235","TinChristmas.jpg","36","1","1066"
"5","5","retrieval","old_objects","236","Seeder.jpg","36","1","1706"
"5","5","retrieval","new_objects","237","Cheesegrater_Box.jpg","37","1","896"
"5","5","retrieval","new_objects","238","Barometer_Wood.jpg","37","1","839"
"5","5","retrieval","old_objects","239","HandRake.jpg","36","1","722"
"5","5","retrieval","old_objects","240","Magnifying_Glass.jpg","36","1","903"
"5","5","retrieval","new_objects","241","Helmet_Bicycle.jpg","37","1","623"
"5","5","retrieval","new_objects","242","Level.jpg","37","1","826"
"5","5","retrieval","new_objects","243","Lips_Wax.jpg","37","1","780"
"5","5","retrieval","new_objects","245","Shirt_Tshirt.jpg","37","1","626"
"5","5","retrieval","new_objects","246","Switch_LightWhite.jpg","37","1","708"
"5","5","retrieval","old_objects","247","Gun_Nerf.jpg","36","1","795"
"5","5","retrieval","old_objects","248","VGAport.jpg","36","1","696"
"5","5","retrieval","old_objects","249","Mixer_Cement.jpg","36","1","672"
"5","5","retrieval","new_objects","250","Brush_Makeup.jpg","37","1","649"
"5","5","retrieval","old_objects","251","PotatoMasher_Grate.jpg","36","1","699"
"5","5","retrieval","new_objects","252","ChiliFlakes.jpg","37","1","722"
"5","5","retrieval","old_objects","253","Toy_Zebra.jpg","36","1","721"
"5","5","retrieval","new_objects","254","Cornucopia.jpg","37","1","752"
"5","5","retrieval","new_objects","255","Brush_Windshield.jpg","37","1","693"
"5","5","retrieval","old_objects","256","EnglishMuffin.jpg","36","1","709"
"5","5","retrieval","old_objects","257","SculptureMetalFish.jpg","36","1","772"
"5","5","retrieval","new_objects","258","Candleholder_LampShaped.jpg","37","1","792"
"5","5","retrieval","new_objects","259","Croissant.jpg","37","1","748"
"5","5","retrieval","old_objects","260","Sign_Airport.jpg","36","1","689"
"5","5","retrieval","old_objects","261","AlarmSystem.jpg","36","1","810"
"5","5","retrieval","new_objects","262","ScrewDriver.jpg","37","1","812"
"5","5","retrieval","new_objects","263","Pot_BlackOld.jpg","37","1","631"
"5","5","retrieval","old_objects","264","HerbsInBag.jpg","36","1","722"
"5","5","retrieval","old_objects","265","Glass_bottle.jpg","36","1","840"
"5","5","retrieval","new_objects","266","DusterFeather.jpg","37","1","786"
"5","5","retrieval","old_objects","267","Toy_Stroller.jpg","36","1","702"
"5","5","retrieval","new_objects","268","Ship_Model.jpg","37","1","613"
"5","5","retrieval","new_objects","269","Wire_ElectricalSingle.jpg","37","1","889"
"5","5","retrieval","old_objects","270","Vest.jpg","36","1","801"
"5","5","retrieval","new_objects","271","House_Stone.jpg","37","1","604"
"5","5","retrieval","new_objects","272","Earring_Hoop.jpg","37","1","872"
"5","5","retrieval","old_objects","273","MassageRoller.jpg","36","1","713"
"5","5","retrieval","old_objects","274","EyeDrops.jpg","36","1","680"
"5","5","retrieval","new_objects","275","Locomotive.jpg","37","1","800"
"5","5","retrieval","new_objects","276","Candy_Heart.jpg","37","1","844"
"5","5","retrieval","new_objects","277","Lock_Key.jpg","37","1","982"
"5","5","retrieval","old_objects","278","PanCooking.jpg","36","1","891"
"5","5","retrieval","old_objects","279","Cow.jpg","36","1","642"
"5","5","retrieval","new_objects","280","Feet.jpg","37","1","667"
"5","5","retrieval","old_objects","281","Hay.jpg","36","1","764"
"5","5","retrieval","old_objects","282","PaperStack.jpg","36","1","649"
"5","5","retrieval","new_objects","283","LampPost_OneBulb.jpg","37","1","826"
"5","5","retrieval","new_objects","284","Lettuce_GreenLeaf.jpg","37","1","653"
"5","5","retrieval","new_objects","285","Razor.jpg","37","1","646"
"5","5","retrieval","new_objects","286","Door_Blue.jpg","36","0","952"
"5","5","retrieval","old_objects","287","MeatGrinder.jpg","36","1","677"
"5","5","retrieval","old_objects","288","Suitcase.jpg","36","1","670"
"5","5","retrieval","new_objects","289","Vase_Decorative.jpg","37","1","959"
"5","5","retrieval","old_objects","290","Chair_Dining.jpg","36","1","629"
"5","5","retrieval","new_objects","291","Teardrop.jpg","37","1","695"
"5","5","retrieval","new_objects","292","Sieve_TopView.jpg","37","1","679"
"5","5","retrieval","new_objects","293","Bullet.jpg","37","1","759"
"5","5","retrieval","old_objects","294","ChessPiece_Knight.jpg","36","1","789"
"5","5","retrieval","old_objects","295","Hammer.jpg","36","1","903"
"5","5","retrieval","old_objects","296","Magnet_Three.jpg","36","1","648"
"5","5","retrieval","new_objects","297","Scarecrow.jpg","37","1","794"
"5","5","retrieval","new_objects","298","Clock_Radio.jpg","37","1","765"
"5","5","retrieval","old_objects","299","Partition.jpg","36","1","658"
"5","5","retrieval","old_objects","300","Bottle_BubbleBlower.jpg","36","1","692"
"5","5","retrieval","new_objects","301","PowerDoorPushButton.jpg","37","1","707"
"5","5","retrieval","new_objects","302","Cheesegrater_Handheld.jpg","37","1","995"
"5","5","retrieval","old_objects","303","Ruler_Metal.jpg","36","1","694"
"5","5","retrieval","new_objects","304","Spoon_Serving.jpg","36","0","974"
"5","5","retrieval","old_objects","306","Binder.jpg","36","1","814"
"5","5","retrieval","old_objects","307","Rag.jpg","36","1","689"
"5","5","retrieval","old_objects","308","HumanSkeleton.jpg","36","1","577"
"5","5","retrieval","new_objects","309","Eggplant.jpg","37","1","649"
"5","5","retrieval","old_objects","310","Paddle_PingPong.jpg","36","1","743"
"5","5","retrieval","old_objects","311","Lock_Bike.jpg","36","1","845"
"5","5","retrieval","new_objects","312","HairDryer.jpg","37","1","790"
"5","5","retrieval","old_objects","313","Fence_ChainLink.jpg","37","0","657"
"5","5","retrieval","new_objects","314","CarSuspension.jpg","37","1","947"
"5","5","retrieval","old_objects","315","Puzzle_Tree.jpg","36","1","760"
"5","5","retrieval","new_objects","316","Microwave.jpg","37","1","845"
"5","5","retrieval","new_objects","317","Kebab_Vegetables.jpg","37","1","670"
"5","5","retrieval","new_objects","318","Box_WoodenClosed.jpg","37","1","703"
"5","5","retrieval","old_objects","319","Coconut.jpg","36","1","686"
"5","5","retrieval","new_objects","320","Easel.jpg","37","1","783"
"5","5","retrieval","old_objects","321","Chair_Student.jpg","36","1","598"
"5","5","retrieval","new_objects","322","Camera_Video.jpg","37","1","824"
"5","5","retrieval","old_objects","323","Clip_Chip.jpg","36","1","787"
"5","5","retrieval","old_objects","324","Bird_Budgie.jpg","36","1","630"
"5","5","retrieval","new_objects","325","Protractor.jpg","37","1","569"
"5","5","retrieval","old_objects","326","JukeboxAntique.jpg","36","1","742"
"5","5","retrieval","new_objects","327","House_Rural.jpg","37","1","667"
"5","5","retrieval","old_objects","328","Toy_Christmastree.jpg","36","1","621"
"5","5","retrieval","old_objects","329","DustPan.jpg","36","1","879"
"5","5","retrieval","new_objects","330","Toy_StackingRing.jpg","37","1","704"
"5","5","retrieval","old_objects","331","CandleSnuffer.jpg","36","1","719"
"5","5","retrieval","old_objects","332","Spatula.jpg","36","1","649"
"5","5","retrieval","new_objects","333","Thermostat.jpg","37","1","686"
"5","5","retrieval","old_objects","334","Envelope_Manila.jpg","36","1","710"
"5","5","retrieval","new_objects","335","Chair_High.jpg","37","1","798"
"5","5","retrieval","old_objects","336","Airplane_Small.jpg","36","1","1041"
"5","5","retrieval","old_objects","337","Shrub_Boxwood.jpg","37","0","754"
"5","5","retrieval","new_objects","338","Pot_TurkishCoffee.jpg","37","1","1008"
"5","5","retrieval","old_objects","339","WindowBlinds.jpg","36","1","715"
"5","5","retrieval","new_objects","340","DJMixer.jpg","37","1","850"
"5","5","retrieval","old_objects","341","Gecko.jpg","36","1","555"
"5","5","retrieval","new_objects","342","Tape_Scotch.jpg","37","1","825"
"5","5","retrieval","new_objects","343","GatedEntrance.jpg","36","0","1027"
"5","5","retrieval","new_objects","344","Shoe_Highheel.jpg","37","1","781"
"5","5","retrieval","old_objects","345","PaintRoller.jpg","37","0","801"
"5","5","retrieval","new_objects","346","ManholeCover.jpg","37","1","660"
"5","5","retrieval","new_objects","347","Hook_Fishing.jpg","37","1","629"
"5","5","retrieval","old_objects","348","CheeseSlicer.jpg","36","1","720"
"5","5","retrieval","new_objects","349","TotemPole.jpg","37","1","735"
"5","5","retrieval","old_objects","350","Boxcutter.jpg","37","0","661"
"5","5","retrieval","old_objects","351","Peppermill.jpg","36","1","959"
"5","5","retrieval","new_objects","352","Stick_Honey.jpg","37","1","859"
"5","5","retrieval","old_objects","353","Button.jpg","36","1","957"
"5","5","retrieval","new_objects","354","Skirt_Stripes.jpg","37","1","1050"
"5","5","retrieval","old_objects","355","BunsenBurner.jpg","36","1","858"
"5","5","demographics_block","gender","1","BunsenBurner.jpg","Male","1","16719"
"5","5","demographics_block","age","1","BunsenBurner.jpg","40","1","16719"
"5","5","demographics_block","education","1","BunsenBurner.jpg","16","1","16719"
"5","5","demographics_block","left_right_handed","2","BunsenBurner.jpg","Right","1","7650"
"5","5","demographics_block","raceoption1","2","BunsenBurner.jpg","0","1","7650"
"5","5","demographics_block","raceoption2","2","BunsenBurner.jpg","","1","7650"
"5","5","demographics_block","raceoption3","2","BunsenBurner.jpg","","1","7650"
"5","5","demographics_block","raceoption4","2","BunsenBurner.jpg","","1","7650"
"5","5","demographics_block","raceoption5","2","BunsenBurner.jpg","","1","7650"
"5","5","demographics_block","raceoption6","2","BunsenBurner.jpg","","1","7650"
"5","5","demographics_block","raceoption7","2","BunsenBurner.jpg","","1","7650"
"5","5","demographics_block","raceoption8","2","BunsenBurner.jpg","","1","7650"
"5","5","demographics_block","raceoption9","2","BunsenBurner.jpg","","1","7650"
"5","5","demographics_block","raceother","2","BunsenBurner.jpg","","1","7650"
"5","5","demographics_block","raceother","2","BunsenBurner.jpg","","1","7650"
"5","5","demographics_block","english_language","2","BunsenBurner.jpg","Yes","1","7650"
"5","5","demographics_block","english_languageother","2","BunsenBurner.jpg","","1","7650"
"5","5","demographics_block","eyesight","3","BunsenBurner.jpg","Yes","1","7591"
"5","5","demographics_block","colorblind","3","BunsenBurner.jpg","No","1","7591"
"5","5","worker_id_block","worker_id_textbox","1","BunsenBurner.jpg","A3AHY83AP9XLZ9","1","5611"
"4","4","encoding","encoding","1","Dill.jpg","37","0","39"
"4","4","encoding","encoding","2","Corkscrew.jpg","37","0","71"
"4","4","encoding","encoding","3","Wheelbarrow_Green.jpg","37","0","142"
"4","4","encoding","encoding","4","FireExtinguisher.jpg","36","0","137"
"4","4","encoding","encoding","5","Glass_bottle.jpg","37","0","229"
"4","4","encoding","encoding","6","Helmet_Knight.jpg","36","0","79"
"4","4","encoding","encoding","7","Paratrooper.jpg","36","0","138"
"4","4","encoding","encoding","8","PotatoMasher_Grate.jpg","36","0","61"
"4","4","encoding","encoding","9","Candelabra.jpg","36","0","67"
"4","4","encoding","encoding","10","Shoe_Men.jpg","37","0","136"
"4","4","encoding","encoding","11","CarLighter.jpg","37","0","4"
"4","4","encoding","encoding","12","Napkin_Holder.jpg","37","0","4"
"4","4","encoding","encoding","13","DivingBoard.jpg","37","0","124"
"4","4","encoding","encoding","14","Toolbox_RedOpen.jpg","37","0","87"
"4","4","encoding","encoding","15","Cat.jpg","37","0","151"
"4","4","encoding","encoding","16","Glass_Beer.jpg","36","0","273"
"4","4","encoding","encoding","17","Toy_RockingHorseBeige.jpg","37","0","232"
"4","4","encoding","encoding","18","HerbsInBag.jpg","36","0","98"
"4","4","encoding","encoding","19","Stove_Camping.jpg","37","0","210"
"4","4","encoding","encoding","20","Mixer_Cement.jpg","37","0","107"
"4","4","encoding","encoding","21","ShotGlassTray.jpg","36","0","109"
"4","4","encoding","encoding","22","Shrimp.jpg","36","0","110"
"4","4","encoding","encoding","23","Flute_Wooden.jpg","37","0","147"
"4","4","encoding","encoding","24","Snail.jpg","37","0","149"
"4","4","encoding","encoding","25","Gecko.jpg","36","0","98"
"4","4","encoding","encoding","26","Rag.jpg","37","0","226"
"4","4","encoding","encoding","27","Chair_Student.jpg","36","0","129"
"4","4","encoding","encoding","28","Chicken_FriedDrum.jpg","37","0","135"
"4","4","encoding","encoding","29","Bird_Pelican.jpg","36","0","51"
"4","4","encoding","encoding","30","Lock_Bike.jpg","36","0","128"
"4","4","encoding","encoding","31","HandRake.jpg","37","0","27"
"4","4","encoding","encoding","32","Wardrobe.jpg","36","0","177"
"4","4","encoding","encoding","33","Candy_Chocolate.jpg","37","0","158"
"4","4","encoding","encoding","34","Leaf_Green.jpg","37","0","209"
"4","4","encoding","encoding","35","WindowBlinds.jpg","37","0","163"
"4","4","encoding","encoding","36","ScannerShoplifting.jpg","37","0","20"
"4","4","encoding","encoding","37","Hammer.jpg","37","0","32"
"4","4","encoding","encoding","38","Envelope_Manila.jpg","36","0","28"
"4","4","encoding","encoding","39","Plum.jpg","37","0","181"
"4","4","encoding","encoding","40","Boxcutter.jpg","36","0","104"
"4","4","encoding","encoding","41","Cup_Latte.jpg","37","0","166"
"4","4","encoding","encoding","42","DrinkingFountain.jpg","36","0","0"
"4","4","encoding","encoding","43","BinRecycling.jpg","37","0","92"
"4","4","encoding","encoding","44","PirateFlag.jpg","37","0","135"
"4","4","encoding","encoding","45","Button.jpg","36","0","120"
"4","4","encoding","encoding","46","Magnet_Three.jpg","36","0","97"
"4","4","encoding","encoding","47","Ball_Tennis.jpg","36","0","13"
"4","4","encoding","encoding","48","Weathervane.jpg","37","0","71"
"4","4","encoding","encoding","49","SpaceShuttle.jpg","36","0","160"
"4","4","encoding","encoding","50","Toy_BlocksLetter.jpg","36","0","101"
"4","4","encoding","encoding","51","Licorice.jpg","36","0","244"
"4","4","encoding","encoding","52","Paddle_PingPong.jpg","37","0","251"
"4","4","encoding","encoding","53","DrillBit.jpg","37","0","175"
"4","4","encoding","encoding","54","Clock_Digital.jpg","37","0","45"
"4","4","encoding","encoding","55","JukeboxAntique.jpg","37","0","122"
"4","4","encoding","encoding","56","Seal_animal.jpg","37","0","83"
"4","4","encoding","encoding","57","Trophy.jpg","37","0","107"
"4","4","encoding","encoding","58","Shovel_Garden.jpg","37","0","119"
"4","4","encoding","encoding","59","Chair_Rocking.jpg","37","0","144"
"4","4","encoding","encoding","60","Pencil.jpg","36","0","292"
"4","4","encoding","encoding","62","Magnifying_Glass.jpg","37","0","211"
"4","4","encoding","encoding","63","Donut.jpg","37","0","282"
"4","4","encoding","encoding","64","Toaster_Antique.jpg","36","0","151"
"4","4","encoding","encoding","65","Stove_Propane.jpg","36","0","89"
"4","4","encoding","encoding","66","Telephone_DialAntique.jpg","37","0","238"
"4","4","encoding","encoding","67","Car_Sedan.jpg","37","0","129"
"4","4","encoding","encoding","68","Mask_Ski.jpg","36","0","21"
"4","4","encoding","encoding","69","Lobster.jpg","36","0","100"
"4","4","encoding","encoding","70","Hay.jpg","36","0","188"
"4","4","encoding","encoding","71","Case_Leather.jpg","37","0","89"
"4","4","encoding","encoding","72","Tube_Paint.jpg","37","0","185"
"4","4","encoding","encoding","73","Peeler.jpg","36","0","146"
"4","4","encoding","encoding","74","Bleachers.jpg","37","0","151"
"4","4","encoding","encoding","75","Ruler_Metal.jpg","36","0","140"
"4","4","encoding","encoding","76","Can_Peas.jpg","36","0","58"
"4","4","encoding","encoding","77","Neckrest.jpg","36","0","244"
"4","4","encoding","encoding","78","TinChristmas.jpg","37","0","8"
"4","4","encoding","encoding","79","Armchair.jpg","36","0","206"
"4","4","encoding","encoding","80","PoliceTape.jpg","36","0","83"
"4","4","encoding","encoding","81","Peppermill.jpg","36","0","30"
"4","4","encoding","encoding","82","IceScraper.jpg","37","0","220"
"4","4","encoding","encoding","83","Oyster.jpg","37","0","218"
"4","4","encoding","encoding","84","Iron_Antique.jpg","37","0","134"
"4","4","encoding","encoding","85","Bowl_Fruits.jpg","37","0","148"
"4","4","encoding","encoding","86","Tag_Price.jpg","37","0","45"
"4","4","encoding","encoding","87","Chair_Dining.jpg","37","0","479"
"4","4","encoding","encoding","88","Bowl_Flour.jpg","36","0","213"
"4","4","encoding","encoding","89","Toy_Tractor_1.jpg","37","0","250"
"4","4","encoding","encoding","90","CigarCutter.jpg","37","0","123"
"4","4","encoding","encoding","91","Phone_Public.jpg","37","0","15"
"4","4","encoding","encoding","92","Binder.jpg","37","0","71"
"4","4","encoding","encoding","93","ComputerKeyboard.jpg","36","0","133"
"4","4","encoding","encoding","94","CandleSnuffer.jpg","37","0","279"
"4","4","encoding","encoding","95","Toy_Christmastree.jpg","36","0","38"
"4","4","encoding","encoding","96","Fan_Straw.jpg","36","0","0"
"4","4","encoding","encoding","97","EyeDrops.jpg","37","0","160"
"4","4","encoding","encoding","98","Sign_Airport.jpg","37","0","22"
"4","4","encoding","encoding","99","Airplane_Small.jpg","36","0","160"
"4","4","encoding","encoding","100","Syringe_Blunt.jpg","36","0","116"
"4","4","encoding","encoding","101","SculptureMetalFish.jpg","37","0","140"
"4","4","encoding","encoding","102","CoolingFan_Engine2.jpg","37","0","15"
"4","4","encoding","encoding","103","Bowl_Chinese.jpg","37","0","156"
"4","4","encoding","encoding","104","Bed_Hospital.jpg","37","0","137"
"4","4","encoding","encoding","105","Bottle_CosmeticSpray.jpg","36","0","46"
"4","4","encoding","encoding","106","Partition.jpg","36","0","194"
"4","4","encoding","encoding","107","DustPan.jpg","36","0","6"
"4","4","encoding","encoding","108","MouthGuard.jpg","37","0","38"
"4","4","encoding","encoding","109","Ashtray_Cigarettes.jpg","36","0","155"
"4","4","encoding","encoding","110","Fork_Fondue.jpg","37","0","37"
"4","4","encoding","encoding","111","PanCooking.jpg","37","0","164"
"4","4","encoding","encoding","112","Toy_Stroller.jpg","37","0","177"
"4","4","encoding","encoding","113","Cow.jpg","37","0","164"
"4","4","encoding","encoding","114","Bag_Groceries.jpg","37","0","41"
"4","4","encoding","encoding","115","SewingMachine.jpg","37","0","198"
"4","4","encoding","encoding","116","TowerEiffel.jpg","36","0","193"
"4","4","encoding","encoding","117","Shrub_Boxwood.jpg","37","0","97"
"4","4","encoding","encoding","118","GogglesSwim.jpg","37","0","196"
"4","4","encoding","encoding","119","Stool_Wood.jpg","36","0","198"
"4","4","encoding","encoding","120","Puzzle_Tree.jpg","37","0","91"
"4","4","encoding","encoding","121","HumanSkeleton.jpg","36","0","156"
"4","4","encoding","encoding","123","Toy_DinosaurBrontosaurus.jpg","36","0","264"
"4","4","encoding","encoding","124","Spatula.jpg","37","0","456"
"4","4","encoding","encoding","125","Tape_Clear.jpg","36","0","121"
"4","4","encoding","encoding","126","MeatGrinder.jpg","36","0","99"
"4","4","encoding","encoding","127","Toy_Bat.jpg","37","0","103"
"4","4","encoding","encoding","128","AirTank.jpg","37","0","151"
"4","4","encoding","encoding","129","Bicycle_Kids.jpg","36","0","144"
"4","4","encoding","encoding","130","Bucket_WoodenLight.jpg","36","0","205"
"4","4","encoding","encoding","131","Toy_BearBrownPlushie.jpg","36","0","4"
"4","4","encoding","encoding","132","EnglishMuffin.jpg","37","0","134"
"4","4","encoding","encoding","133","Pig.jpg","36","0","117"
"4","4","encoding","encoding","134","DentistOverheadLight.jpg","37","0","145"
"4","4","encoding","encoding","135","CrepeMaker.jpg","36","0","95"
"4","4","encoding","encoding","136","Lipstick.jpg","37","0","80"
"4","4","encoding","encoding","137","Coconut.jpg","37","0","93"
"4","4","encoding","encoding","138","Jar_Capers.jpg","36","0","37"
"4","4","encoding","encoding","139","MassageRoller.jpg","37","0","80"
"4","4","encoding","encoding","140","Snowboard.jpg","36","0","147"
"4","4","encoding","encoding","141","Bottle_BubbleBlower.jpg","36","0","116"
"4","4","encoding","encoding","142","Bird_Budgie.jpg","37","0","17"
"4","4","encoding","encoding","143","Vest.jpg","37","0","415"
"4","4","encoding","encoding","144","Pot_Crock.jpg","36","0","174"
"4","4","encoding","encoding","145","CheeseSlicer.jpg","37","0","45"
"4","4","encoding","encoding","146","VGAport.jpg","37","0","68"
"4","4","encoding","encoding","147","SaxophoneSoprano.jpg","36","0","183"
"4","4","encoding","encoding","148","Turtle.jpg","36","0","141"
"4","4","encoding","encoding","149","Suitcase.jpg","37","0","230"
"4","4","encoding","encoding","150","BicycleWheelRusty.jpg","36","0","4"
"4","4","encoding","encoding","151","Glass_Cup.jpg","37","0","99"
"4","4","encoding","encoding","152","PaperStack.jpg","37","0","307"
"4","4","encoding","encoding","153","FlipFlop_PairBlue.jpg","36","0","118"
"4","4","encoding","encoding","154","Arm.jpg","37","0","298"
"4","4","encoding","encoding","155","Fence_ChainLink.jpg","36","0","0"
"4","4","encoding","encoding","156","Toy_Moose.jpg","37","0","49"
"4","4","encoding","encoding","157","Toy_Zebra.jpg","37","0","129"
"4","4","encoding","encoding","158","Nightstand.jpg","37","0","212"
"4","4","encoding","encoding","159","Switch_Power.jpg","36","0","46"
"4","4","encoding","encoding","160","Oars.jpg","37","0","43"
"4","4","encoding","encoding","161","PaintRoller.jpg","37","0","10"
"4","4","encoding","encoding","162","Cart_Janitor.jpg","37","0","120"
"4","4","encoding","encoding","163","Seeder.jpg","36","0","70"
"4","4","encoding","encoding","164","CoffeeBeans.jpg","36","0","189"
"4","4","encoding","encoding","165","Instrument_Guiro.jpg","36","0","161"
"4","4","encoding","encoding","166","AlarmSystem.jpg","37","0","89"
"4","4","encoding","encoding","167","BunsenBurner.jpg","37","0","215"
"4","4","encoding","encoding","168","Toy_DollOffice.jpg","37","0","260"
"4","4","encoding","encoding","169","Hockey_Equipment.jpg","37","0","200"
"4","4","encoding","encoding","170","Clip_Chip.jpg","36","0","115"
"4","4","encoding","encoding","171","Gun_Nerf.jpg","37","0","4"
"4","4","encoding","encoding","172","Wreath.jpg","37","0","164"
"4","4","encoding","encoding","173","ButterChurn.jpg","36","0","191"
"4","4","encoding","encoding","174","Scissors.jpg","36","0","184"
"4","4","encoding","encoding","175","Seashell_RoseMurex.jpg","37","0","326"
"4","4","encoding","encoding","176","Rock_Mimetite.jpg","36","0","132"
"4","4","encoding","encoding","177","ChessPiece_Knight.jpg","37","0","268"
"4","4","retrieval","new_objects","1","Pitcher.jpg","37","1","302"
"4","4","retrieval","old_objects","2","Stove_Camping.jpg","37","0","143"
"4","4","retrieval","old_objects","3","Toy_Zebra.jpg","37","0","158"
"4","4","retrieval","new_objects","4","Microwave.jpg","36","0","95"
"4","4","retrieval","old_objects","5","Clock_Digital.jpg","36","1","165"
"4","4","retrieval","new_objects","6","Candy_Heart.jpg","36","0","212"
"4","4","retrieval","old_objects","7","FireExtinguisher.jpg","37","0","1213"
"4","4","retrieval","new_objects","8","Sandcastle.jpg","36","0","771"
"4","4","retrieval","old_objects","9","BinRecycling.jpg","36","1","715"
"4","4","retrieval","old_objects","10","JukeboxAntique.jpg","36","1","1236"
"4","4","retrieval","new_objects","11","Cheesegrater_Box.jpg","36","0","1167"
"4","4","retrieval","new_objects","12","Telephone_TinCan.jpg","37","1","492"
"4","4","retrieval","old_objects","13","Seashell_RoseMurex.jpg","37","0","490"
"4","4","retrieval","new_objects","14","HairDryer.jpg","37","1","1253"
"4","4","retrieval","old_objects","15","CigarCutter.jpg","37","0","1099"
"4","4","retrieval","old_objects","16","Cart_Janitor.jpg","37","0","880"
"4","4","retrieval","old_objects","17","CrepeMaker.jpg","37","0","632"
"4","4","retrieval","old_objects","18","Turtle.jpg","36","1","845"
"4","4","retrieval","old_objects","19","Cow.jpg","36","1","806"
"4","4","retrieval","new_objects","20","GatedEntrance.jpg","37","1","929"
"4","4","retrieval","old_objects","21","Scissors.jpg","37","0","655"
"4","4","retrieval","new_objects","22","BookShelf.jpg","37","1","827"
"4","4","retrieval","old_objects","23","Glass_Cup.jpg","37","0","803"
"4","4","retrieval","old_objects","24","Fork_Fondue.jpg","37","0","702"
"4","4","retrieval","old_objects","25","Airplane_Small.jpg","37","0","709"
"4","4","retrieval","new_objects","26","Door_Blue.jpg","36","0","341"
"4","4","retrieval","new_objects","27","Comb.jpg","36","0","73"
"4","4","retrieval","old_objects","28","Instrument_Guiro.jpg","36","1","106"
"4","4","retrieval","old_objects","29","HandRake.jpg","37","0","224"
"4","4","retrieval","old_objects","30","Toolbox_RedOpen.jpg","37","0","100"
"4","4","retrieval","old_objects","31","Dill.jpg","36","1","269"
"4","4","retrieval","new_objects","32","Toy_Turtle.jpg","37","1","134"
"4","4","retrieval","new_objects","33","Toy_StackingRing.jpg","36","0","4"
"4","4","retrieval","old_objects","34","Syringe_Blunt.jpg","37","0","129"
"4","4","retrieval","old_objects","35","Bottle_CosmeticSpray.jpg","36","1","92"
"4","4","retrieval","new_objects","36","Tag_Identifier.jpg","37","1","168"
"4","4","retrieval","old_objects","37","Magnifying_Glass.jpg","36","1","113"
"4","4","retrieval","old_objects","38","Bed_Hospital.jpg","37","0","106"
"4","4","retrieval","new_objects","39","BicycleChain.jpg","36","0","116"
"4","4","retrieval","new_objects","40","Shoe_Highheel.jpg","36","0","237"
"4","4","retrieval","new_objects","41","PowerDoorPushButton.jpg","37","1","80"
"4","4","retrieval","new_objects","42","Scarecrow.jpg","37","1","29"
"4","4","retrieval","new_objects","43","Protractor.jpg","36","0","36"
"4","4","retrieval","new_objects","44","Chair_High.jpg","36","0","79"
"4","4","retrieval","new_objects","45","Sieve_TopView.jpg","36","0","36"
"4","4","retrieval","old_objects","46","PoliceTape.jpg","37","0","14"
"4","4","retrieval","old_objects","47","Bird_Budgie.jpg","37","0","53"
"4","4","retrieval","new_objects","48","Vase_Decorative.jpg","36","0","47"
"4","4","retrieval","new_objects","49","ToothPick.jpg","37","1","215"
"4","4","retrieval","old_objects","50","WindowBlinds.jpg","37","0","188"
"4","4","retrieval","old_objects","51","PotatoMasher_Grate.jpg","37","0","59"
"4","4","retrieval","old_objects","52","Plum.jpg","37","0","152"
"4","4","retrieval","new_objects","53","Teardrop.jpg","36","0","196"
"4","4","retrieval","new_objects","54","Tombstone.jpg","37","1","17"
"4","4","retrieval","old_objects","55","Helmet_Knight.jpg","36","1","140"
"4","4","retrieval","new_objects","56","Brush_Windshield.jpg","37","1","93"
"4","4","retrieval","old_objects","57","CheeseSlicer.jpg","36","1","149"
"4","4","retrieval","new_objects","58","Lettuce_GreenLeaf.jpg","37","1","44"
"4","4","retrieval","new_objects","59","Clock_Wall.jpg","37","1","257"
"4","4","retrieval","new_objects","60","Crate_Milk.jpg","36","0","12"
"4","4","retrieval","old_objects","62","Toy_BlocksLetter.jpg","37","0","362"
"4","4","retrieval","old_objects","63","Spatula.jpg","37","0","156"
"4","4","retrieval","new_objects","64","Cage_Hamster.jpg","37","1","96"
"4","4","retrieval","new_objects","65","TelephoneSwitchboard.jpg","36","0","109"
"4","4","retrieval","new_objects","66","TailLight.jpg","37","1","95"
"4","4","retrieval","old_objects","67","Gecko.jpg","36","1","124"
"4","4","retrieval","old_objects","68","Toy_Tractor_1.jpg","37","0","79"
"4","4","retrieval","new_objects","69","Toolbox_Old.jpg","37","1","206"
"4","4","retrieval","old_objects","70","Bird_Pelican.jpg","37","0","167"
"4","4","retrieval","new_objects","71","Sign_Taxi.jpg","37","1","44"
"4","4","retrieval","new_objects","72","Pot_BlackOld.jpg","37","1","159"
"4","4","retrieval","old_objects","73","Shrimp.jpg","37","0","11"
"4","4","retrieval","old_objects","74","CoffeeBeans.jpg","36","1","239"
"4","4","retrieval","new_objects","75","Pickle.jpg","36","0","18"
"4","4","retrieval","new_objects","76","Clock_Radio.jpg","37","1","91"
"4","4","retrieval","new_objects","77","Toy_SeeSaw.jpg","37","1","78"
"4","4","retrieval","new_objects","78","PhoneCase.jpg","37","1","84"
"4","4","retrieval","new_objects","79","Cherry.jpg","37","1","43"
"4","4","retrieval","old_objects","80","Cup_Latte.jpg","37","0","30"
"4","4","retrieval","old_objects","81","EyeDrops.jpg","36","1","80"
"4","4","retrieval","new_objects","82","FireAlarm.jpg","37","1","168"
"4","4","retrieval","new_objects","83","Wire_ElectricalSingle.jpg","36","0","198"
"4","4","retrieval","new_objects","84","ScrewDriver.jpg","37","1","135"
"4","4","retrieval","new_objects","85","Wontons.jpg","36","0","115"
"4","4","retrieval","new_objects","86","Steamroller.jpg","36","0","77"
"4","4","retrieval","old_objects","87","Telephone_DialAntique.jpg","36","1","158"
"4","4","retrieval","old_objects","88","Tape_Clear.jpg","36","1","167"
"4","4","retrieval","old_objects","89","SewingMachine.jpg","36","1","37"
"4","4","retrieval","old_objects","90","DustPan.jpg","37","0","226"
"4","4","retrieval","new_objects","91","Decoration_ChristmasRed.jpg","37","1","140"
"4","4","retrieval","new_objects","92","Skirt_Stripes.jpg","37","1","2"
"4","4","retrieval","new_objects","93","Arch_Triomphe.jpg","37","1","5"
"4","4","retrieval","old_objects","94","Candelabra.jpg","37","0","58"
"4","4","retrieval","new_objects","95","LeatherPuncherTool.jpg","37","1","26"
"4","4","retrieval","old_objects","96","Lipstick.jpg","36","1","159"
"4","4","retrieval","old_objects","97","MeatGrinder.jpg","37","0","30"
"4","4","retrieval","new_objects","98","BuildingChinese.jpg","36","0","38"
"4","4","retrieval","new_objects","99","LampPost_OneBulb.jpg","36","0","394"
"4","4","retrieval","new_objects","100","Switch_LightWhite.jpg","37","1","70"
"4","4","retrieval","new_objects","101","Tape_Scotch.jpg","37","1","54"
"4","4","retrieval","old_objects","102","Switch_Power.jpg","36","1","164"
"4","4","retrieval","new_objects","103","Humidifier.jpg","37","1","98"
"4","4","retrieval","new_objects","104","Stingray.jpg","36","0","34"
"4","4","retrieval","new_objects","105","Ship_Battle.jpg","36","0","28"
