"group","subject","blockcode","trialcode","trialnum","values.stimulus","response","correct","latency"
"1","1","encoding","encoding","1","Chinchilla.jpg","0","0","2001"
"1","1","encoding","encoding","2","Popcorn.jpg","Ctrl+'B'","1","1594"
"1","1","retrieval","new_objects","1","Toilet.jpg","0","0","2001"
"1","1","retrieval","new_objects","2","Toy_Slide.jpg","Ctrl+'B'","1","753"
"1","1","demographics_block","gender","1","Toy_Slide.jpg","","1","1904"
"1","1","demographics_block","age","1","Toy_Slide.jpg","","1","1904"
"1","1","demographics_block","education","1","Toy_Slide.jpg","","1","1904"
"2","2","encoding","encoding","1","Rope_Manila.jpg","0","0","2000"
"2","2","encoding","encoding","2","NailPolish.jpg","37","0","1101"
"2","2","encoding","encoding","3","Sink_Kitchen.jpg","36","0","821"
"2","2","encoding","encoding","4","Can_Gas.jpg","36","0","1091"
"2","2","encoding","encoding","5","Cookie.jpg","37","0","527"
"2","2","encoding","encoding","6","ElectricSwitchboard.jpg","36","0","944"
"2","2","encoding","encoding","7","Spoon_Sugar.jpg","37","0","1021"
"2","2","encoding","encoding","8","Scalpel.jpg","37","0","687"
"2","2","encoding","encoding","9","Calculator.jpg","37","0","726"
"2","2","encoding","encoding","10","WindshieldWasherFluid.jpg","36","0","670"
"2","2","encoding","encoding","11","Bandage_Wrap.jpg","37","0","1072"
"2","2","encoding","encoding","12","TireRims.jpg","36","0","819"
"2","2","encoding","encoding","13","PokerChips.jpg","37","0","1107"
"2","2","encoding","encoding","14","Distaff.jpg","36","0","801"
"2","2","encoding","encoding","15","Embosser.jpg","37","0","818"
"2","2","encoding","encoding","16","Plate_Wooden.jpg","36","0","1984"
"2","2","encoding","encoding","17","Saw.jpg","37","0","791"
"2","2","encoding","encoding","18","Seashell_BayScallop.jpg","37","0","1020"
"2","2","encoding","encoding","19","Television.jpg","36","0","1112"
"2","2","encoding","encoding","20","Helmet_Motorcycle.jpg","36","0","1419"
"2","2","encoding","encoding","21","Handcuffs.jpg","37","0","871"
"2","2","encoding","encoding","22","Glass_Wine.jpg","37","0","1014"
"2","2","encoding","encoding","23","LetterMail.jpg","37","0","1103"
"2","2","encoding","encoding","24","Exercise_Machine.jpg","36","0","723"
"2","2","encoding","encoding","25","TreeStump.jpg","36","0","985"
"2","2","encoding","encoding","26","Bread_Melon.jpg","37","0","1233"
"2","2","encoding","encoding","27","Spear.jpg","36","0","753"
"2","2","encoding","encoding","28","MortarPestle_BlackStone.jpg","37","0","665"
"2","2","encoding","encoding","29","ClothesDryingRack.jpg","36","0","757"
"2","2","encoding","encoding","30","CableConnecter.jpg","37","0","647"
"2","2","encoding","encoding","31","KitchenTools.jpg","37","0","826"
"2","2","encoding","encoding","32","Card_QueenSpade.jpg","37","0","555"
"2","2","encoding","encoding","33","PersonWooden.jpg","36","0","717"
"2","2","encoding","encoding","34","Toy_RobotTransformer.jpg","37","0","890"
"2","2","encoding","encoding","35","Candy_Lozenge.jpg","37","0","1023"
"2","2","encoding","encoding","36","Table_Conference.jpg","36","0","934"
"2","2","encoding","encoding","37","Chinchilla.jpg","37","0","823"
"2","2","encoding","encoding","38","ProjectorScreen.jpg","36","0","859"
"2","2","encoding","encoding","39","Starfish.jpg","37","0","742"
"2","2","encoding","encoding","40","Jar_JellyBeans.jpg","37","0","1042"
"2","2","encoding","encoding","41","Toy_HockeyStick.jpg","37","0","1283"
"2","2","encoding","encoding","42","Bag_Doctor.jpg","36","0","1287"
"2","2","encoding","encoding","43","Cassette_Video.jpg","37","0","1242"
"2","2","encoding","encoding","44","Cloud.jpg","36","0","1065"
"2","2","encoding","encoding","45","Toy_Helicopter.jpg","37","0","1008"
"2","2","encoding","encoding","46","USBKey.jpg","37","0","691"
"2","2","encoding","encoding","47","Telephone_Booth.jpg","36","0","767"
"2","2","encoding","encoding","48","IceCreamCone.jpg","37","0","717"
"2","2","encoding","encoding","49","Cantaloupe.jpg","37","0","1308"
"2","2","encoding","encoding","50","SmokingPipe.jpg","37","0","797"
"2","2","encoding","encoding","51","Knife_Camping.jpg","37","0","616"
"2","2","encoding","encoding","52","Pen_Ballpoint.jpg","37","0","669"
"2","2","encoding","encoding","53","Drum_Set.jpg","36","0","945"
"2","2","encoding","encoding","54","CraneMachine.jpg","36","0","1307"
"2","2","encoding","encoding","55","Bag_String.jpg","36","0","1290"
"2","2","encoding","encoding","56","LampPost_ThreeBulbs.jpg","36","0","1052"
"2","2","encoding","encoding","57","PaperTowel_Kitchen.jpg","36","0","938"
"2","2","encoding","encoding","58","PedestalGreek.jpg","36","0","1091"
"2","2","encoding","encoding","59","Toy_DogBall.jpg","37","0","977"
"2","2","encoding","encoding","60","MonaLisa.jpg","36","0","915"
"2","2","encoding","encoding","62","Hat_Hard.jpg","36","0","1444"
"2","2","encoding","encoding","63","Egg_Cup.jpg","37","0","1640"
"2","2","encoding","encoding","64","DogFood.jpg","36","0","925"
"2","2","encoding","encoding","65","Mango.jpg","37","0","1044"
"2","2","encoding","encoding","66","Sign_Construction.jpg","36","0","870"
"2","2","encoding","encoding","67","Mask_VenetianLongNose.jpg","37","0","1579"
"2","2","encoding","encoding","68","MatchBook.jpg","37","0","583"
"2","2","encoding","encoding","69","PostageStamps.jpg","37","0","659"
"2","2","encoding","encoding","70","PickupTruck.jpg","36","0","614"
"2","2","encoding","encoding","71","Light_Studio.jpg","36","0","887"
"2","2","encoding","encoding","72","Toolbox_Red.jpg","36","0","1715"
"2","2","encoding","encoding","73","Mousetrap.jpg","36","0","745"
"2","2","encoding","encoding","74","Bench_Black.jpg","36","0","876"
"2","2","encoding","encoding","75","MilkJug.jpg","37","0","663"
"2","2","encoding","encoding","76","Toy_RabbitPlushie.jpg","36","0","1162"
"2","2","encoding","encoding","77","Napkin_Single.jpg","37","0","823"
"2","2","encoding","encoding","78","Pear_Green.jpg","37","0","600"
"2","2","encoding","encoding","79","Toy_Lion.jpg","37","0","632"
"2","2","encoding","encoding","80","Pepper_Green.jpg","37","0","1046"
"2","2","encoding","encoding","81","Joystick.jpg","37","0","988"
"2","2","encoding","encoding","82","HardDrive.jpg","37","0","843"
"2","2","encoding","encoding","83","Notebook.jpg","37","0","834"
"2","2","encoding","encoding","84","Toy_DinosaurTRex.jpg","37","0","955"
"2","2","encoding","encoding","85","Toy_Dog.jpg","37","0","828"
"2","2","encoding","encoding","86","Cabasa.jpg","37","0","709"
"2","2","encoding","encoding","87","PhoneJack.jpg","36","0","1530"
"2","2","encoding","encoding","88","Stove_WithOven.jpg","36","0","632"
"2","2","encoding","encoding","89","Sock_Ankle.jpg","37","0","936"
"2","2","encoding","encoding","90","Cleaver_Meat.jpg","37","0","958"
"2","2","encoding","encoding","91","Flags_CheckeredRacing.jpg","37","0","889"
"2","2","encoding","encoding","92","BloodpPresureCuff.jpg","37","0","1062"
"2","2","encoding","encoding","93","Qtip_Single.jpg","37","0","972"
"2","2","encoding","encoding","94","Bowl_Sugar.jpg","36","0","1279"
"2","2","encoding","encoding","95","Boots_Hiking.jpg","37","0","1965"
"2","2","encoding","encoding","96","DonaldDuck_Toy.jpg","37","0","1388"
"2","2","encoding","encoding","97","Truck_Dump.jpg","36","0","1058"
"2","2","encoding","encoding","98","Walker_Silver.jpg","36","0","891"
"2","2","encoding","encoding","99","Brush_Paint.jpg","37","0","1065"
"2","2","encoding","encoding","100","Guitarcase.jpg","36","0","1079"
"2","2","encoding","encoding","101","Toy_RobotClassic.jpg","37","0","1080"
"2","2","encoding","encoding","102","CarSeat.jpg","36","0","1194"
"2","2","encoding","encoding","103","Earth_Planet.jpg","36","0","1648"
"2","2","encoding","encoding","104","Switch_LightBlack.jpg","37","0","1268"
"2","2","encoding","encoding","105","Spoons_MeasuringDetached.jpg","37","0","1129"
"2","2","encoding","encoding","106","Ring_Plain.jpg","37","0","747"
"2","2","encoding","encoding","107","TissueBox.jpg","37","0","667"
"2","2","encoding","encoding","108","Dreidel.jpg","37","0","584"
"2","2","encoding","encoding","109","Box_Notepaper.jpg","36","0","1071"
"2","2","encoding","encoding","110","Statue_VirginMary.jpg","37","0","1192"
"2","2","encoding","encoding","111","Toast.jpg","37","0","895"
"2","2","encoding","encoding","112","Table_Pool.jpg","36","0","752"
"2","2","encoding","encoding","113","Gametable_AirHockey.jpg","36","0","1461"
"2","2","encoding","encoding","114","BoogieBoard.jpg","37","0","1277"
"2","2","encoding","encoding","115","Shoes_Snowboarding.jpg","37","0","955"
"2","2","encoding","encoding","116","Box_Floral.jpg","37","0","1442"
"2","2","encoding","encoding","117","Bag_Garbage.jpg","36","0","1286"
"2","2","encoding","encoding","118","Pouch_PotPourri.jpg","37","0","1191"
"2","2","encoding","encoding","119","Stone_Spa.jpg","37","0","1775"
"2","2","encoding","encoding","120","Socks_Baby.jpg","37","0","1157"
"2","2","encoding","encoding","121","Pillow_Plaid.jpg","36","0","1070"
"2","2","encoding","encoding","123","ShoeLace_Round.jpg","37","0","1845"
"2","2","encoding","encoding","124","Tray_Wooden.jpg","36","0","1164"
"2","2","encoding","encoding","125","Lilypad.jpg","37","0","652"
"2","2","encoding","encoding","126","Boat_Row.jpg","36","0","911"
"2","2","encoding","encoding","127","Jet.jpg","36","0","640"
"2","2","encoding","encoding","128","ClothCoaster.jpg","37","0","930"
"2","2","encoding","encoding","129","Hat_Colonial.jpg","37","0","1003"
"2","2","encoding","encoding","130","Spoon_Baby.jpg","37","0","667"
"2","2","encoding","encoding","131","StringBean.jpg","37","0","799"
"2","2","encoding","encoding","132","Clarinet.jpg","36","0","944"
"2","2","encoding","encoding","133","Dog_SaintBernard.jpg","37","0","667"
"2","2","encoding","encoding","134","IroningBoard.jpg","36","0","909"
"2","2","encoding","encoding","135","ChalkboardEraser.jpg","37","0","925"
"2","2","encoding","encoding","136","Popcorn.jpg","37","0","1053"
"2","2","encoding","encoding","137","Puzzle_Animal.jpg","37","0","1334"
"2","2","encoding","encoding","138","Toy_Tank.jpg","37","0","747"
"2","2","encoding","encoding","139","Ramekin.jpg","37","0","729"
"2","2","encoding","encoding","140","Funnel.jpg","36","0","876"
"2","2","encoding","encoding","141","Triangle.jpg","37","0","894"
"2","2","encoding","encoding","142","Brush_Light.jpg","37","0","617"
"2","2","encoding","encoding","143","NewspaperStack.jpg","37","0","1507"
"2","2","encoding","encoding","144","PaperCutter.jpg","36","0","960"
"2","2","encoding","encoding","145","SnowGlobe.jpg","37","0","1184"
"2","2","encoding","encoding","146","Trowel.jpg","37","0","558"
"2","2","encoding","encoding","147","Bamboo.jpg","37","0","925"
"2","2","encoding","encoding","148","Hazelnut.jpg","37","0","817"
"2","2","encoding","encoding","149","Boardgame_Checkers.jpg","37","0","1307"
"2","2","encoding","encoding","150","Lantern_Chinese.jpg","37","0","903"
"2","2","encoding","encoding","151","Can_MilkAntique.jpg","36","0","864"
"2","2","encoding","encoding","152","Suspenders.jpg","37","0","764"
"2","2","encoding","encoding","153","Ruler_Digital.jpg","37","0","1234"
"2","2","encoding","encoding","154","FireHydrant.jpg","36","0","1205"
"2","2","encoding","encoding","155","BikiniTop.jpg","37","0","743"
"2","2","encoding","encoding","156","Bed_QueenSize.jpg","36","0","850"
"2","2","encoding","encoding","157","Toy_Lighthouse.jpg","37","0","1516"
"2","2","encoding","encoding","158","Hat_Baseball.jpg","37","0","1274"
"2","2","encoding","encoding","159","LightBulb_White.jpg","37","0","896"
"2","2","encoding","encoding","160","FlashlightHeadBand.jpg","37","0","705"
"2","2","encoding","encoding","161","Radio_Modern.jpg","36","0","921"
"2","2","encoding","encoding","162","Toys_Lego.jpg","37","0","584"
"2","2","encoding","encoding","163","Light_Halogen.jpg","36","0","1276"
"2","2","encoding","encoding","164","Table_Saw.jpg","36","0","518"
"2","2","encoding","encoding","165","Lectern.jpg","36","0","854"
"2","2","encoding","encoding","166","Pear_Yellow.jpg","37","0","858"
"2","2","encoding","encoding","167","BicycleReflector.jpg","37","0","1195"
"2","2","encoding","encoding","168","Wallet_ClosedBrown.jpg","37","0","888"
"2","2","encoding","encoding","169","Tofu.jpg","37","0","991"
"2","2","encoding","encoding","170","SewingPin_Single.jpg","37","0","828"
"2","2","encoding","encoding","171","Zucchini.jpg","37","0","791"
"2","2","encoding","encoding","172","Seal_Toy.jpg","36","0","803"
"2","2","encoding","encoding","173","Bottle_Specimen.jpg","37","0","661"
"2","2","encoding","encoding","174","Toad.jpg","37","0","712"
"2","2","encoding","encoding","175","Brooch_Fish.jpg","37","0","701"
"2","2","encoding","encoding","176","PulleyWooden.jpg","37","0","946"
"2","2","encoding","encoding","177","Bag_Gym.jpg","36","0","1032"
"2","2","retrieval","new_objects","1","Colander.jpg","37","1","1761"
"2","2","retrieval","old_objects","2","Trowel.jpg","36","1","1276"
"2","2","retrieval","old_objects","3","Hat_Colonial.jpg","37","0","1127"
"2","2","retrieval","old_objects","4","Funnel.jpg","36","1","783"
"2","2","retrieval","new_objects","5","SpaceRover.jpg","37","1","999"
"2","2","retrieval","new_objects","6","Jar_Money.jpg","37","1","749"
"2","2","retrieval","old_objects","7","Pear_Green.jpg","36","1","806"
"2","2","retrieval","new_objects","8","Mirror_Makeup.jpg","37","1","1059"
"2","2","retrieval","old_objects","9","Dog_SaintBernard.jpg","36","1","750"
"2","2","retrieval","old_objects","10","Cassette_Video.jpg","37","0","1136"
"2","2","retrieval","old_objects","11","Truck_Dump.jpg","36","1","901"
"2","2","retrieval","old_objects","12","Toast.jpg","36","1","684"
"2","2","retrieval","old_objects","13","Stove_WithOven.jpg","36","1","675"
"2","2","retrieval","new_objects","14","Cross.jpg","37","1","673"
"2","2","retrieval","new_objects","15","TartStrawberry.jpg","37","1","882"
"2","2","retrieval","new_objects","16","PenHolder.jpg","37","1","928"
"2","2","retrieval","new_objects","17","Card_Deck.jpg","37","1","852"
"2","2","retrieval","old_objects","18","SnowGlobe.jpg","36","1","868"
"2","2","retrieval","old_objects","19","Walker_Silver.jpg","36","1","860"
"2","2","retrieval","old_objects","20","BoogieBoard.jpg","36","1","759"
"2","2","retrieval","old_objects","21","Clarinet.jpg","36","1","687"
"2","2","retrieval","old_objects","22","PokerChips.jpg","37","0","629"
"2","2","retrieval","new_objects","23","Watch.jpg","37","1","1153"
"2","2","retrieval","new_objects","24","Piano_Keyboard.jpg","36","0","1355"
"2","2","retrieval","new_objects","25","MagazineRoll.jpg","37","1","715"
"2","2","retrieval","old_objects","26","Rope_Manila.jpg","37","0","628"
"2","2","retrieval","old_objects","27","Bench_Black.jpg","36","1","776"
"2","2","retrieval","new_objects","28","Scroll.jpg","36","0","719"
"2","2","retrieval","old_objects","29","Hat_Baseball.jpg","37","0","675"
"2","2","retrieval","old_objects","30","Table_Saw.jpg","0","0","2000"
"2","2","retrieval","new_objects","31","BabyMonitor.jpg","37","1","1282"
"2","2","retrieval","new_objects","32","Stove_Portable.jpg","37","1","882"
"2","2","retrieval","old_objects","33","Spear.jpg","36","1","696"
"2","2","retrieval","old_objects","34","DogFood.jpg","36","1","779"
"2","2","retrieval","old_objects","35","Table_Pool.jpg","36","1","652"
"2","2","retrieval","new_objects","36","Keychain_Leather.jpg","37","1","662"
"2","2","retrieval","old_objects","37","Starfish.jpg","36","1","646"
"2","2","retrieval","old_objects","38","Can_Gas.jpg","36","1","734"
"2","2","retrieval","new_objects","39","Amp.jpg","37","1","621"
"2","2","retrieval","old_objects","40","Sock_Ankle.jpg","36","1","713"
"2","2","retrieval","new_objects","41","Thermos_Decorated.jpg","36","0","564"
"2","2","retrieval","new_objects","42","ChessPiece_Bishop.jpg","36","0","585"
"2","2","retrieval","old_objects","43","Statue_VirginMary.jpg","0","0","2000"
"2","2","retrieval","old_objects","44","Tray_Wooden.jpg","36","1","1413"
"2","2","retrieval","old_objects","45","Toy_Tank.jpg","36","1","703"
"2","2","retrieval","old_objects","46","Bag_Garbage.jpg","36","1","671"
"2","2","retrieval","old_objects","47","Sign_Construction.jpg","37","0","755"
"2","2","retrieval","new_objects","48","CashRegister_Antique.jpg","37","1","707"
"2","2","retrieval","old_objects","49","Mask_VenetianLongNose.jpg","36","1","768"
"2","2","retrieval","old_objects","50","Spoons_MeasuringDetached.jpg","37","0","812"
"2","2","retrieval","new_objects","51","Tractor_Orange.jpg","37","1","840"
"2","2","retrieval","new_objects","52","PocketKnife.jpg","36","0","1006"
"2","2","retrieval","old_objects","53","Bag_String.jpg","36","1","1125"
"2","2","retrieval","new_objects","54","CandyDispenser.jpg","36","0","932"
"2","2","retrieval","new_objects","55","Shoe_Pink.jpg","37","1","1660"
"2","2","retrieval","new_objects","56","Crowbar.jpg","37","1","1032"
"2","2","retrieval","new_objects","57","VacuumHandheld.jpg","37","1","724"
"2","2","retrieval","old_objects","58","Switch_LightBlack.jpg","36","1","804"
"2","2","retrieval","old_objects","59","LetterMail.jpg","36","1","768"
"2","2","retrieval","old_objects","60","Ring_Plain.jpg","36","1","819"
"2","2","retrieval","new_objects","62","Box_Jewellery.jpg","36","0","1063"
"2","2","retrieval","new_objects","63","Phone_Wireless.jpg","37","1","828"
"2","2","retrieval","new_objects","64","Branch.jpg","37","1","773"
"2","2","retrieval","new_objects","65","WireStripper.jpg","36","0","1468"
"2","2","retrieval","new_objects","66","Mirror_Handheld.jpg","37","1","803"
"2","2","retrieval","new_objects","67","Pacifier.jpg","37","1","737"
"2","2","retrieval","new_objects","68","Noose.jpg","37","1","817"
"2","2","retrieval","new_objects","69","Flower_Orchid.jpg","37","1","616"
"2","2","retrieval","old_objects","70","TreeStump.jpg","36","1","684"
"2","2","retrieval","old_objects","71","Bread_Melon.jpg","36","1","839"
"2","2","retrieval","new_objects","72","Currants.jpg","37","1","665"
"2","2","retrieval","new_objects","73","BasketballHoop.jpg","37","1","1229"
"2","2","retrieval","new_objects","74","Crab.jpg","37","1","689"
"2","2","retrieval","old_objects","75","BloodpPresureCuff.jpg","36","1","907"
"2","2","retrieval","old_objects","76","Lantern_Chinese.jpg","36","1","966"
"2","2","retrieval","new_objects","77","Milkshake_Strawberry.jpg","37","1","731"
"2","2","retrieval","new_objects","78","Fruit_Carambola.jpg","37","1","925"
"2","2","retrieval","new_objects","79","Dog_CockerSpaniel.jpg","37","1","1004"
"2","2","retrieval","old_objects","80","Zucchini.jpg","36","1","1096"
"2","2","retrieval","old_objects","81","Hat_Hard.jpg","36","1","524"
"2","2","retrieval","new_objects","82","MeasuringTape.jpg","36","0","1303"
"2","2","retrieval","old_objects","83","TireRims.jpg","36","1","995"
"2","2","retrieval","new_objects","84","CookieCutter_Tree.jpg","0","0","2000"
"2","2","retrieval","old_objects","85","Toy_Helicopter.jpg","36","1","937"
"2","2","retrieval","new_objects","86","Pumpkin.jpg","36","0","689"
"2","2","retrieval","old_objects","87","Triangle.jpg","36","1","874"
"2","2","retrieval","new_objects","88","Mat_Bamboo.jpg","37","1","557"
"2","2","retrieval","new_objects","89","ElasticBand.jpg","37","1","586"
"2","2","retrieval","old_objects","90","Seal_Toy.jpg","36","1","742"
"2","2","retrieval","old_objects","91","Television.jpg","37","0","891"
"2","2","retrieval","new_objects","92","PeriodicTable.jpg","37","1","1325"
"2","2","retrieval","new_objects","93","Brush_Winter.jpg","37","1","771"
"2","2","retrieval","new_objects","94","Celery.jpg","37","1","652"
"2","2","retrieval","old_objects","95","Saw.jpg","36","1","823"
"2","2","retrieval","old_objects","96","IroningBoard.jpg","36","1","688"
"2","2","retrieval","new_objects","97","Trunk.jpg","37","1","949"
"2","2","retrieval","new_objects","98","Compact_Mirror.jpg","37","1","858"
"2","2","retrieval","new_objects","99","Jug_Milk.jpg","37","1","626"
"2","2","retrieval","old_objects","100","Notebook.jpg","36","1","907"
"2","2","retrieval","new_objects","101","Faucet.jpg","36","0","925"
"2","2","retrieval","new_objects","102","Icepick.jpg","37","1","934"
"2","2","retrieval","new_objects","103","House_CeramicGingerbread.jpg","36","0","806"
"2","2","retrieval","new_objects","104","Pretzel_Sticks.jpg","37","1","1196"
"2","2","retrieval","old_objects","105","Jet.jpg","36","1","1075"
"2","2","retrieval","old_objects","106","Bandage_Wrap.jpg","36","1","688"
"2","2","retrieval","new_objects","107","WaterColorPaintset.jpg","37","1","624"
"2","2","retrieval","new_objects","108","Sign_SpeedLimit30.jpg","37","1","820"
"2","2","retrieval","old_objects","109","LightBulb_White.jpg","36","1","831"
"2","2","retrieval","old_objects","110","Toys_Lego.jpg","36","1","1143"
"2","2","retrieval","old_objects","111","IceCreamCone.jpg","36","1","687"
"2","2","retrieval","new_objects","112","HedgeShears.jpg","37","1","959"
"2","2","retrieval","new_objects","113","HumanSkull.jpg","37","1","655"
"2","2","retrieval","old_objects","114","Card_QueenSpade.jpg","37","0","790"
"2","2","retrieval","new_objects","115","Aquarium.jpg","37","1","1013"
"2","2","retrieval","new_objects","116","CoffeePot.jpg","37","1","964"
"2","2","retrieval","old_objects","117","Pen_Ballpoint.jpg","36","1","878"
"2","2","retrieval","old_objects","118","BicycleReflector.jpg","37","0","689"
"2","2","retrieval","old_objects","119","Egg_Cup.jpg","37","0","770"
"2","2","retrieval","old_objects","120","PickupTruck.jpg","36","1","663"
"2","2","retrieval","new_objects","121","Chipmunk.jpg","36","0","984"
"2","2","retrieval","new_objects","123","Kiwi.jpg","0","0","2000"
"2","2","retrieval","new_objects","124","Cup_sippy.jpg","36","0","1638"
"2","2","retrieval","new_objects","125","Tripod.jpg","36","0","1040"
"2","2","retrieval","new_objects","126","Stovetop.jpg","37","1","790"
"2","2","retrieval","new_objects","127","Fencing_HelmetSwords.jpg","37","1","475"
"2","2","retrieval","old_objects","128","Toy_Lion.jpg","36","1","680"
"2","2","retrieval","old_objects","129","Cabasa.jpg","36","1","1131"
"2","2","retrieval","new_objects","130","Boat_Trailer.jpg","37","1","828"
"2","2","retrieval","new_objects","131","StickyTack.jpg","37","1","505"
"2","2","retrieval","new_objects","132","Autocreeper.jpg","37","1","989"
"2","2","retrieval","new_objects","133","StampAndSeal.jpg","36","0","1032"
"2","2","retrieval","old_objects","134","Wallet_ClosedBrown.jpg","36","1","911"
"2","2","retrieval","new_objects","135","Statue_ManHorse.jpg","36","0","858"
"2","2","retrieval","old_objects","136","Lilypad.jpg","36","1","949"
"2","2","retrieval","old_objects","137","Toy_RobotTransformer.jpg","36","1","816"
"2","2","retrieval","new_objects","138","Toy_Taxi.jpg","37","1","986"
"2","2","retrieval","new_objects","139","Pipe.jpg","37","1","553"
"2","2","retrieval","new_objects","140","Walkman.jpg","37","1","851"
"2","2","retrieval","new_objects","141","Teabag.jpg","37","1","812"
"2","2","retrieval","new_objects","142","CigarCase.jpg","37","1","1162"
"2","2","retrieval","old_objects","143","PaperCutter.jpg","36","1","673"
"2","2","retrieval","new_objects","144","Statue_Cat.jpg","37","1","700"
"2","2","retrieval","old_objects","145","Brooch_Fish.jpg","36","1","752"
"2","2","retrieval","new_objects","146","Crackers_Ritz.jpg","36","0","1137"
"2","2","retrieval","old_objects","147","Flags_CheckeredRacing.jpg","36","1","648"
"2","2","retrieval","new_objects","148","Brush_Shaving.jpg","37","1","587"
"2","2","retrieval","old_objects","149","StringBean.jpg","36","1","923"
"2","2","retrieval","old_objects","150","MilkJug.jpg","36","1","748"
"2","2","retrieval","new_objects","151","Pouch_Red.jpg","37","1","725"
"2","2","retrieval","old_objects","152","Cookie.jpg","37","0","1172"
"2","2","retrieval","new_objects","153","Desk_Office.jpg","37","1","861"
"2","2","retrieval","old_objects","154","Calculator.jpg","36","1","688"
"2","2","retrieval","new_objects","155","AirCompressor.jpg","37","1","1195"
"2","2","retrieval","old_objects","156","DonaldDuck_Toy.jpg","36","1","1089"
"2","2","retrieval","new_objects","157","Stone_AncientWriting.jpg","37","1","1876"
"2","2","retrieval","new_objects","158","SaladCaesar.jpg","37","1","635"
"2","2","retrieval","old_objects","159","Knife_Camping.jpg","36","1","789"
"2","2","retrieval","new_objects","160","Tweezers.jpg","37","1","1522"
"2","2","retrieval","old_objects","161","CarSeat.jpg","36","1","920"
"2","2","retrieval","old_objects","162","USBKey.jpg","37","0","1123"
"2","2","retrieval","old_objects","163","Tofu.jpg","36","1","780"
"2","2","retrieval","new_objects","164","Toy_Slide.jpg","36","0","713"
"2","2","retrieval","new_objects","165","Apple_Candy.jpg","37","1","882"
"2","2","retrieval","new_objects","166","Tray_Cafeteria.jpg","36","0","984"
"2","2","retrieval","new_objects","167","DentalProbe.jpg","37","1","887"
"2","2","retrieval","new_objects","168","SeatBuckle.jpg","37","1","765"
"2","2","retrieval","old_objects","169","Sink_Kitchen.jpg","36","1","889"
"2","2","retrieval","old_objects","170","Cloud.jpg","37","0","936"
"2","2","retrieval","old_objects","171","Ruler_Digital.jpg","37","0","1443"
"2","2","retrieval","new_objects","172","Gun_Glue.jpg","37","1","1042"
"2","2","retrieval","new_objects","173","DoorHandle.jpg","37","1","1316"
"2","2","retrieval","new_objects","174","Honeydew_yellow.jpg","37","1","748"
"2","2","retrieval","new_objects","175","SatelliteDish.jpg","37","1","739"
"2","2","retrieval","new_objects","176","Asparagus.jpg","37","1","773"
"2","2","retrieval","new_objects","177","PenStand.jpg","37","1","680"
"2","2","retrieval","old_objects","178","Drum_Set.jpg","37","0","924"
"2","2","retrieval","new_objects","179","Windmill_Building.jpg","37","1","661"
"2","2","retrieval","old_objects","180","Socks_Baby.jpg","36","1","658"
"2","2","retrieval","new_objects","181","WashingMachine.jpg","36","0","663"
"2","2","retrieval","old_objects","182","CableConnecter.jpg","36","1","937"
"2","2","retrieval","old_objects","184","Brush_Light.jpg","36","1","1332"
"2","2","retrieval","old_objects","185","Candy_Lozenge.jpg","36","1","944"
"2","2","retrieval","new_objects","186","DarthVader.jpg","37","1","746"
"2","2","retrieval","old_objects","187","Glass_Wine.jpg","36","1","794"
"2","2","retrieval","old_objects","188","Toy_DogBall.jpg","37","0","740"
"2","2","retrieval","old_objects","189","MatchBook.jpg","36","1","945"
"2","2","retrieval","old_objects","190","WindshieldWasherFluid.jpg","36","1","817"
"2","2","retrieval","new_objects","191","DoorBolt.jpg","37","1","727"
"2","2","retrieval","old_objects","192","Brush_Paint.jpg","37","0","943"
"2","2","retrieval","new_objects","193","Oven.jpg","36","0","945"
"2","2","retrieval","new_objects","194","Mailbox_Antique.jpg","37","1","963"
"2","2","retrieval","old_objects","195","Radio_Modern.jpg","36","1","793"
"2","2","retrieval","old_objects","196","Seashell_BayScallop.jpg","36","1","1013"
"2","2","retrieval","new_objects","197","RecorderInstrument.jpg","37","1","681"
"2","2","retrieval","new_objects","198","Case_WoodenOrnate.jpg","36","0","883"
"2","2","retrieval","new_objects","199","Crate_Wine.jpg","37","1","870"
"2","2","retrieval","old_objects","200","NailPolish.jpg","37","0","672"
"2","2","retrieval","old_objects","201","Bowl_Sugar.jpg","37","0","1000"
"2","2","retrieval","old_objects","202","Telephone_Booth.jpg","36","1","643"
"2","2","retrieval","old_objects","203","Joystick.jpg","36","1","1783"
"2","2","retrieval","old_objects","204","Handcuffs.jpg","36","1","694"
"2","2","retrieval","old_objects","205","Spoon_Sugar.jpg","36","1","1419"
"2","2","retrieval","new_objects","206","Dolphine.jpg","37","1","866"
"2","2","retrieval","old_objects","207","Dreidel.jpg","36","1","911"
"2","2","retrieval","new_objects","208","Blanket.jpg","37","1","904"
"2","2","retrieval","new_objects","209","Ball_Baseball.jpg","37","1","715"
"2","2","retrieval","new_objects","210","Match.jpg","37","1","726"
"2","2","retrieval","new_objects","211","KitchenCloth.jpg","37","1","644"
"2","2","retrieval","old_objects","212","PersonWooden.jpg","36","1","917"
"2","2","retrieval","new_objects","213","Shed.jpg","37","1","825"
"2","2","retrieval","new_objects","214","Necklace_Black.jpg","37","1","695"
"2","2","retrieval","old_objects","215","BikiniTop.jpg","37","0","544"
"2","2","retrieval","new_objects","216","Mask_Happy.jpg","37","1","608"
"2","2","retrieval","old_objects","217","Boat_Row.jpg","37","0","898"
"2","2","retrieval","old_objects","218","Stone_Spa.jpg","36","1","834"
"2","2","retrieval","old_objects","219","Jar_JellyBeans.jpg","37","0","1174"
"2","2","retrieval","new_objects","220","Origami_Ox.jpg","37","1","1806"
"2","2","retrieval","old_objects","221","FlashlightHeadBand.jpg","36","1","1084"
"2","2","retrieval","old_objects","222","Helmet_Motorcycle.jpg","36","1","1261"
"2","2","retrieval","old_objects","223","SewingPin_Single.jpg","36","1","1483"
"2","2","retrieval","new_objects","224","AmpMeter.jpg","37","1","783"
"2","2","retrieval","new_objects","225","Battery_AA.jpg","37","1","696"
"2","2","retrieval","old_objects","226","Light_Halogen.jpg","37","0","521"
"2","2","retrieval","new_objects","227","Tambourine.jpg","37","1","666"
"2","2","retrieval","new_objects","228","Dresser_1.jpg","37","1","629"
"2","2","retrieval","new_objects","229","Kangaroo.jpg","37","1","723"
"2","2","retrieval","old_objects","230","Lectern.jpg","36","1","963"
"2","2","retrieval","new_objects","231","Leaf_Clover.jpg","36","0","1493"
"2","2","retrieval","old_objects","232","Toy_RobotClassic.jpg","36","1","638"
"2","2","retrieval","new_objects","233","Container_RedPlastic.jpg","37","1","1591"
"2","2","retrieval","old_objects","234","Exercise_Machine.jpg","36","1","1011"
"2","2","retrieval","new_objects","235","Sled.jpg","37","1","814"
"2","2","retrieval","old_objects","236","Bag_Doctor.jpg","36","1","1072"
"2","2","retrieval","old_objects","237","Embosser.jpg","37","0","783"
"2","2","retrieval","new_objects","238","Speakers_Theatre.jpg","37","1","892"
"2","2","retrieval","new_objects","239","Iguana.jpg","37","1","710"
"2","2","retrieval","new_objects","240","TimerKitchen.jpg","37","1","1203"
"2","2","retrieval","new_objects","241","Bowtie.jpg","37","1","652"
"2","2","retrieval","old_objects","242","Toy_Lighthouse.jpg","36","1","761"
"2","2","retrieval","new_objects","243","Tube_Glue.jpg","37","1","807"
"2","2","retrieval","new_objects","245","Tape_Washi.jpg","36","0","968"
"2","2","retrieval","new_objects","246","Machine_Bread.jpg","37","1","1023"
"2","2","retrieval","new_objects","247","Jar_Strawberry.jpg","37","1","1276"
"2","2","retrieval","old_objects","248","ClothesDryingRack.jpg","36","1","780"
"2","2","retrieval","old_objects","249","Pillow_Plaid.jpg","36","1","795"
"2","2","retrieval","new_objects","250","OrangeBlood.jpg","37","1","643"
"2","2","retrieval","new_objects","251","Clip_Binder.jpg","37","1","992"
"2","2","retrieval","old_objects","252","Popcorn.jpg","36","1","789"
"2","2","retrieval","old_objects","253","Hazelnut.jpg","36","1","569"
"2","2","retrieval","old_objects","254","ElectricSwitchboard.jpg","36","1","1126"
"2","2","retrieval","new_objects","255","Sieve_SideView.jpg","37","1","831"
"2","2","retrieval","old_objects","256","ProjectorScreen.jpg","37","0","458"
"2","2","retrieval","old_objects","257","Mango.jpg","36","1","796"
"2","2","retrieval","new_objects","258","SnowmanDecor.jpg","36","0","735"
"2","2","retrieval","old_objects","259","Box_Floral.jpg","37","0","676"
"2","2","retrieval","new_objects","260","Stroller.jpg","36","0","726"
"2","2","retrieval","old_objects","261","Toad.jpg","36","1","742"
"2","2","retrieval","old_objects","262","Ramekin.jpg","36","1","879"
"2","2","retrieval","old_objects","263","Pepper_Green.jpg","36","1","907"
"2","2","retrieval","new_objects","264","Table_PingPong.jpg","36","0","1052"
"2","2","retrieval","new_objects","265","Clothespin_Red.jpg","36","0","912"
"2","2","retrieval","new_objects","266","Hat_Police.jpg","37","1","854"
"2","2","retrieval","new_objects","267","Owl.jpg","37","1","771"
"2","2","retrieval","new_objects","268","Carabiner_Orange.jpg","37","1","685"
"2","2","retrieval","old_objects","269","Cantaloupe.jpg","36","1","936"
"2","2","retrieval","old_objects","270","Light_Studio.jpg","36","1","804"
"2","2","retrieval","new_objects","271","Cable_AudioSplitter.jpg","37","1","735"
"2","2","retrieval","old_objects","272","Boardgame_Checkers.jpg","36","1","701"
"2","2","retrieval","old_objects","273","Bamboo.jpg","36","1","839"
"2","2","retrieval","old_objects","274","Pear_Yellow.jpg","36","1","624"
"2","2","retrieval","new_objects","275","Cooler.jpg","37","1","827"
"2","2","retrieval","old_objects","276","Plate_Wooden.jpg","36","1","777"
"2","2","retrieval","old_objects","277","MortarPestle_BlackStone.jpg","36","1","855"
"2","2","retrieval","new_objects","278","Speaker_Computer.jpg","37","1","633"
"2","2","retrieval","old_objects","279","Puzzle_Animal.jpg","36","1","753"
"2","2","retrieval","old_objects","280","MonaLisa.jpg","36","1","598"
"2","2","retrieval","old_objects","281","TissueBox.jpg","37","0","788"
"2","2","retrieval","new_objects","282","DoorKnob.jpg","37","1","1267"
"2","2","retrieval","new_objects","283","Briefcase_Silver.jpg","37","1","727"
"2","2","retrieval","old_objects","284","Can_MilkAntique.jpg","36","1","656"
"2","2","retrieval","old_objects","285","SmokingPipe.jpg","37","0","769"
"2","2","retrieval","old_objects","286","Spoon_Baby.jpg","37","0","625"
"2","2","retrieval","old_objects","287","KitchenTools.jpg","37","0","719"
"2","2","retrieval","old_objects","288","PhoneJack.jpg","36","1","1327"
"2","2","retrieval","old_objects","289","CraneMachine.jpg","36","1","650"
"2","2","retrieval","old_objects","290","Shoes_Snowboarding.jpg","36","1","1028"
"2","2","retrieval","new_objects","291","Squash_Pumpkin.jpg","37","1","659"
"2","2","retrieval","new_objects","292","Garbage_GreenBin.jpg","36","0","838"
"2","2","retrieval","old_objects","293","FireHydrant.jpg","36","1","723"
"2","2","retrieval","new_objects","294","Carousel.jpg","36","0","1148"
"2","2","retrieval","old_objects","295","Bag_Gym.jpg","36","1","834"
"2","2","retrieval","new_objects","296","SpongeScrubbing.jpg","37","1","778"
"2","2","retrieval","new_objects","297","Tape_Dispenser.jpg","37","1","647"
"2","2","retrieval","old_objects","298","Boots_Hiking.jpg","36","1","809"
"2","2","retrieval","old_objects","299","PedestalGreek.jpg","36","1","807"
"2","2","retrieval","new_objects","300","Tuxedo.jpg","37","1","771"
"2","2","retrieval","old_objects","301","Scalpel.jpg","36","1","815"
"2","2","retrieval","new_objects","302","KeyHook_Occupied.jpg","36","0","740"
"2","2","retrieval","new_objects","303","ShoulderPads.jpg","36","0","1583"
"2","2","retrieval","new_objects","304","Platter_Vegetables.jpg","37","1","931"
"2","2","retrieval","old_objects","306","Qtip_Single.jpg","37","0","1115"
"2","2","retrieval","new_objects","307","MonkeyPuppet.jpg","37","1","793"
"2","2","retrieval","new_objects","308","Toilet.jpg","37","1","752"
"2","2","retrieval","old_objects","309","Toy_DinosaurTRex.jpg","37","0","933"
"2","2","retrieval","old_objects","310","Distaff.jpg","36","1","704"
"2","2","retrieval","new_objects","311","Stamp.jpg","36","0","746"
"2","2","retrieval","old_objects","312","Toy_HockeyStick.jpg","37","0","998"
"2","2","retrieval","old_objects","313","Guitarcase.jpg","36","1","887"
"2","2","retrieval","old_objects","314","ClothCoaster.jpg","37","0","1259"
"2","2","retrieval","new_objects","315","MechanicalSpring.jpg","37","1","702"
"2","2","retrieval","new_objects","316","Boardgame_ChineseCheckers.jpg","37","1","649"
"2","2","retrieval","old_objects","317","Bed_QueenSize.jpg","37","0","495"
"2","2","retrieval","old_objects","318","Table_Conference.jpg","36","1","687"
"2","2","retrieval","new_objects","319","WagonPilgrim.jpg","37","1","776"
"2","2","retrieval","new_objects","320","LightHouse.jpg","37","1","1106"
"2","2","retrieval","new_objects","321","Paddle_Ball.jpg","37","1","754"
"2","2","retrieval","old_objects","322","ShoeLace_Round.jpg","37","0","682"
"2","2","retrieval","old_objects","323","Cleaver_Meat.jpg","37","0","709"
"2","2","retrieval","new_objects","324","Horseshoe.jpg","37","1","752"
"2","2","retrieval","old_objects","325","HardDrive.jpg","36","1","752"
"2","2","retrieval","new_objects","326","Glove_Rubber.jpg","37","1","1120"
"2","2","retrieval","new_objects","327","Toy_Octopus.jpg","37","1","663"
"2","2","retrieval","new_objects","328","Statue_SouthAmerican.jpg","37","1","1421"
"2","2","retrieval","new_objects","329","WaterWell.jpg","37","1","1366"
"2","2","retrieval","old_objects","330","Earth_Planet.jpg","36","1","780"
"2","2","retrieval","old_objects","331","Box_Notepaper.jpg","36","1","1114"
"2","2","retrieval","old_objects","332","LampPost_ThreeBulbs.jpg","36","1","628"
"2","2","retrieval","old_objects","333","Toy_Dog.jpg","36","1","1068"
"2","2","retrieval","old_objects","334","NewspaperStack.jpg","36","1","933"
"2","2","retrieval","new_objects","335","IceCrusher.jpg","37","1","769"
"2","2","retrieval","old_objects","336","Chinchilla.jpg","37","0","647"
"2","2","retrieval","new_objects","337","MannequinBust.jpg","37","1","1306"
"2","2","retrieval","new_objects","338","Staircase_Straight.jpg","37","1","1078"
"2","2","retrieval","old_objects","339","PaperTowel_Kitchen.jpg","36","1","1110"
"2","2","retrieval","old_objects","340","PulleyWooden.jpg","36","1","764"
"2","2","retrieval","new_objects","341","Heater_ElectricPortable.jpg","37","1","814"
"2","2","retrieval","old_objects","342","Napkin_Single.jpg","36","1","760"
"2","2","retrieval","old_objects","343","Toy_RabbitPlushie.jpg","36","1","576"
"2","2","retrieval","old_objects","344","Gametable_AirHockey.jpg","36","1","759"
"2","2","retrieval","old_objects","345","PostageStamps.jpg","36","1","656"
"2","2","retrieval","old_objects","346","Toolbox_Red.jpg","37","0","962"
"2","2","retrieval","old_objects","347","Suspenders.jpg","37","0","1008"
"2","2","retrieval","new_objects","348","Compact_Powder.jpg","37","1","758"
"2","2","retrieval","old_objects","349","Mousetrap.jpg","36","1","776"
"2","2","retrieval","new_objects","350","Makeup_Foundation.jpg","36","0","815"
"2","2","retrieval","new_objects","351","Bowl_Lemons.jpg","37","1","866"
"2","2","retrieval","old_objects","352","ChalkboardEraser.jpg","37","0","723"
"2","2","retrieval","old_objects","353","Bottle_Specimen.jpg","36","1","662"
"2","2","retrieval","new_objects","354","Bottle_Bleach.jpg","36","0","703"
"2","2","retrieval","old_objects","355","Pouch_PotPourri.jpg","37","0","549"
"2","2","demographics_block","gender","1","Pouch_PotPourri.jpg","male","1","12746"
"2","2","demographics_block","age","1","Pouch_PotPourri.jpg","37","1","12746"
"2","2","demographics_block","education","1","Pouch_PotPourri.jpg","17","1","12746"
"2","2","demographics_block","left_right_handed","2","Pouch_PotPourri.jpg","Left","1","6964"
"2","2","demographics_block","raceoption1","2","Pouch_PotPourri.jpg","0","1","6964"
"2","2","demographics_block","raceoption2","2","Pouch_PotPourri.jpg","","1","6964"
"2","2","demographics_block","raceoption3","2","Pouch_PotPourri.jpg","","1","6964"
"2","2","demographics_block","raceoption4","2","Pouch_PotPourri.jpg","","1","6964"
"2","2","demographics_block","raceoption5","2","Pouch_PotPourri.jpg","","1","6964"
"2","2","demographics_block","raceoption6","2","Pouch_PotPourri.jpg","","1","6964"
"2","2","demographics_block","raceoption7","2","Pouch_PotPourri.jpg","","1","6964"
"2","2","demographics_block","raceoption8","2","Pouch_PotPourri.jpg","","1","6964"
"2","2","demographics_block","raceoption9","2","Pouch_PotPourri.jpg","","1","6964"
"2","2","demographics_block","raceother","2","Pouch_PotPourri.jpg","","1","6964"
"2","2","demographics_block","raceother","2","Pouch_PotPourri.jpg","","1","6964"
"2","2","demographics_block","english_language","2","Pouch_PotPourri.jpg","Yes","1","6964"
"2","2","demographics_block","english_languageother","2","Pouch_PotPourri.jpg","","1","6964"
"2","2","demographics_block","eyesight","3","Pouch_PotPourri.jpg","Yes","1","3550"
"2","2","demographics_block","colorblind","3","Pouch_PotPourri.jpg","No","1","3550"
"2","2","worker_id_block","worker_id_textbox","1","Pouch_PotPourri.jpg","AMPMTF5IAAMK8","1","2256"
"3","3","encoding","encoding","1","IroningBoard.jpg","36","0","1059"
"3","3","encoding","encoding","2","Cleaver_Meat.jpg","0","0","2000"
"3","3","encoding","encoding","3","SmokingPipe.jpg","37","0","1051"
"3","3","encoding","encoding","4","Qtip_Single.jpg","37","0","1444"
"3","3","encoding","encoding","5","Plate_Wooden.jpg","36","0","761"
"3","3","encoding","encoding","6","PulleyWooden.jpg","37","0","1330"
"3","3","encoding","encoding","7","ChalkboardEraser.jpg","37","0","907"
"3","3","encoding","encoding","8","PostageStamps.jpg","37","0","718"
"3","3","encoding","encoding","9","PersonWooden.jpg","37","0","1012"
"3","3","encoding","encoding","10","Mousetrap.jpg","37","0","735"
"3","3","encoding","encoding","11","PaperTowel_Kitchen.jpg","37","0","1525"
"3","3","encoding","encoding","12","BoogieBoard.jpg","36","0","1344"
"3","3","encoding","encoding","13","Boat_Row.jpg","36","0","988"
"3","3","encoding","encoding","14","Chinchilla.jpg","37","0","1432"
"3","3","encoding","encoding","15","LetterMail.jpg","37","0","606"
"3","3","encoding","encoding","16","SnowGlobe.jpg","36","0","1323"
"3","3","encoding","encoding","17","Pear_Yellow.jpg","37","0","925"
"3","3","encoding","encoding","18","Toy_RobotClassic.jpg","37","0","1175"
"3","3","encoding","encoding","19","Jar_JellyBeans.jpg","36","0","1591"
"3","3","encoding","encoding","20","StringBean.jpg","37","0","843"
"3","3","encoding","encoding","21","Toy_HockeyStick.jpg","36","0","1264"
"3","3","encoding","encoding","22","Toys_Lego.jpg","37","0","888"
"3","3","encoding","encoding","23","Toast.jpg","37","0","968"
"3","3","encoding","encoding","24","CarSeat.jpg","36","0","666"
"3","3","encoding","encoding","25","PhoneJack.jpg","37","0","1369"
"3","3","encoding","encoding","26","PickupTruck.jpg","36","0","746"
"3","3","encoding","encoding","27","LightBulb_White.jpg","37","0","581"
"3","3","encoding","encoding","28","Triangle.jpg","36","0","1147"
"3","3","encoding","encoding","29","Bottle_Specimen.jpg","37","0","1524"
"3","3","encoding","encoding","30","PedestalGreek.jpg","36","0","1184"
"3","3","encoding","encoding","31","MatchBook.jpg","37","0","707"
"3","3","encoding","encoding","32","Cloud.jpg","37","0","596"
"3","3","encoding","encoding","33","Joystick.jpg","0","0","2000"
"3","3","encoding","encoding","34","Box_Floral.jpg","0","0","2000"
"3","3","encoding","encoding","35","Bowl_Sugar.jpg","37","0","1734"
"3","3","encoding","encoding","36","Hat_Baseball.jpg","36","0","1243"
"3","3","encoding","encoding","37","DogFood.jpg","36","0","831"
"3","3","encoding","encoding","38","Table_Conference.jpg","36","0","776"
"3","3","encoding","encoding","39","FireHydrant.jpg","36","0","678"
"3","3","encoding","encoding","40","Dog_SaintBernard.jpg","36","0","741"
"3","3","encoding","encoding","41","Clarinet.jpg","36","0","1037"
"3","3","encoding","encoding","42","Toy_Helicopter.jpg","36","0","1235"
"3","3","encoding","encoding","43","BicycleReflector.jpg","37","0","1190"
"3","3","encoding","encoding","44","Can_Gas.jpg","36","0","781"
"3","3","encoding","encoding","45","Pillow_Plaid.jpg","36","0","721"
"3","3","encoding","encoding","46","PokerChips.jpg","37","0","888"
"3","3","encoding","encoding","47","FlashlightHeadBand.jpg","37","0","1239"
"3","3","encoding","encoding","48","Mango.jpg","37","0","1110"
"3","3","encoding","encoding","49","Notebook.jpg","36","0","875"
"3","3","encoding","encoding","50","Wallet_ClosedBrown.jpg","37","0","957"
"3","3","encoding","encoding","51","BikiniTop.jpg","37","0","995"
"3","3","encoding","encoding","52","Brush_Light.jpg","37","0","930"
"3","3","encoding","encoding","53","Cassette_Video.jpg","37","0","1149"
"3","3","encoding","encoding","54","Glass_Wine.jpg","37","0","1129"
"3","3","encoding","encoding","55","Brush_Paint.jpg","37","0","1085"
"3","3","encoding","encoding","56","Gametable_AirHockey.jpg","36","0","745"
"3","3","encoding","encoding","57","Bag_Garbage.jpg","36","0","601"
"3","3","encoding","encoding","58","Can_MilkAntique.jpg","36","0","967"
"3","3","encoding","encoding","59","Lectern.jpg","36","0","1015"
"3","3","encoding","encoding","60","Jet.jpg","36","0","904"
"3","3","encoding","encoding","62","Toad.jpg","36","0","868"
"3","3","encoding","encoding","63","Toy_Dog.jpg","37","0","1242"
"3","3","encoding","encoding","64","Embosser.jpg","37","0","747"
"3","3","encoding","encoding","65","Pen_Ballpoint.jpg","37","0","913"
"3","3","encoding","encoding","66","Light_Studio.jpg","36","0","774"
"3","3","encoding","encoding","67","Flags_CheckeredRacing.jpg","36","0","1167"
"3","3","encoding","encoding","68","KitchenTools.jpg","37","0","1402"
"3","3","encoding","encoding","69","Napkin_Single.jpg","37","0","1578"
"3","3","encoding","encoding","70","Cantaloupe.jpg","36","0","1568"
"3","3","encoding","encoding","71","ClothCoaster.jpg","37","0","1100"
"3","3","encoding","encoding","72","Puzzle_Animal.jpg","37","0","1092"
"3","3","encoding","encoding","73","Truck_Dump.jpg","36","0","681"
"3","3","encoding","encoding","74","Shoes_Snowboarding.jpg","36","0","752"
"3","3","encoding","encoding","75","LampPost_ThreeBulbs.jpg","36","0","766"
"3","3","encoding","encoding","76","Tofu.jpg","37","0","1564"
"3","3","encoding","encoding","77","Radio_Modern.jpg","36","0","1631"
"3","3","encoding","encoding","78","Toy_DogBall.jpg","37","0","1509"
"3","3","encoding","encoding","79","ElectricSwitchboard.jpg","36","0","1556"
"3","3","encoding","encoding","80","NewspaperStack.jpg","36","0","1043"
"3","3","encoding","encoding","81","Knife_Camping.jpg","37","0","928"
"3","3","encoding","encoding","82","Spear.jpg","36","0","1057"
"3","3","encoding","encoding","83","Spoon_Baby.jpg","37","0","796"
"3","3","encoding","encoding","84","Bench_Black.jpg","36","0","581"
"3","3","encoding","encoding","85","CableConnecter.jpg","37","0","812"
"3","3","encoding","encoding","86","MonaLisa.jpg","36","0","1065"
"3","3","encoding","encoding","87","TireRims.jpg","36","0","806"
"3","3","encoding","encoding","88","Distaff.jpg","36","0","822"
"3","3","encoding","encoding","89","BloodpPresureCuff.jpg","37","0","901"
"3","3","encoding","encoding","90","Sink_Kitchen.jpg","36","0","902"
"3","3","encoding","encoding","91","Scalpel.jpg","37","0","810"
"3","3","encoding","encoding","92","Statue_VirginMary.jpg","37","0","1092"
"3","3","encoding","encoding","93","Hazelnut.jpg","37","0","1061"
"3","3","encoding","encoding","94","Guitarcase.jpg","36","0","1078"
"3","3","encoding","encoding","95","Bandage_Wrap.jpg","37","0","1447"
"3","3","encoding","encoding","96","Toy_DinosaurTRex.jpg","37","0","1048"
"3","3","encoding","encoding","97","Table_Saw.jpg","36","0","624"
"3","3","encoding","encoding","98","Hat_Hard.jpg","36","0","1018"
"3","3","encoding","encoding","99","Stone_Spa.jpg","37","0","896"
"3","3","encoding","encoding","100","TissueBox.jpg","37","0","1465"
"3","3","encoding","encoding","101","Lantern_Chinese.jpg","36","0","1245"
"3","3","encoding","encoding","102","Funnel.jpg","36","0","665"
"3","3","encoding","encoding","103","Toy_RobotTransformer.jpg","36","0","644"
"3","3","encoding","encoding","104","Rope_Manila.jpg","37","0","995"
"3","3","encoding","encoding","105","Telephone_Booth.jpg","36","0","728"
"3","3","encoding","encoding","106","ProjectorScreen.jpg","36","0","755"
"3","3","encoding","encoding","107","Seashell_BayScallop.jpg","37","0","844"
"3","3","encoding","encoding","108","Ring_Plain.jpg","37","0","1255"
"3","3","encoding","encoding","109","Suspenders.jpg","37","0","1339"
"3","3","encoding","encoding","110","USBKey.jpg","37","0","739"
"3","3","encoding","encoding","111","Light_Halogen.jpg","36","0","960"
"3","3","encoding","encoding","112","Zucchini.jpg","37","0","828"
"3","3","encoding","encoding","113","Tray_Wooden.jpg","36","0","881"
"3","3","encoding","encoding","114","Sign_Construction.jpg","36","0","1357"
"3","3","encoding","encoding","115","Box_Notepaper.jpg","36","0","1046"
"3","3","encoding","encoding","116","Seal_Toy.jpg","36","0","830"
"3","3","encoding","encoding","117","Toy_Lighthouse.jpg","37","0","1238"
"3","3","encoding","encoding","118","Spoon_Sugar.jpg","37","0","779"
"3","3","encoding","encoding","119","Cookie.jpg","37","0","1315"
"3","3","encoding","encoding","120","Earth_Planet.jpg","36","0","764"
"3","3","encoding","encoding","121","Bag_Gym.jpg","36","0","1361"
"3","3","encoding","encoding","123","MilkJug.jpg","36","0","722"
"3","3","encoding","encoding","124","Socks_Baby.jpg","37","0","723"
"3","3","encoding","encoding","125","Ramekin.jpg","36","0","981"
"3","3","encoding","encoding","126","Switch_LightBlack.jpg","37","0","653"
"3","3","encoding","encoding","127","Television.jpg","36","0","682"
"3","3","encoding","encoding","128","Handcuffs.jpg","37","0","878"
"3","3","encoding","encoding","129","Sock_Ankle.jpg","37","0","780"
"3","3","encoding","encoding","130","Egg_Cup.jpg","37","0","829"
"3","3","encoding","encoding","131","Stove_WithOven.jpg","36","0","912"
"3","3","encoding","encoding","132","Helmet_Motorcycle.jpg","36","0","1185"
"3","3","encoding","encoding","133","Starfish.jpg","37","0","776"
"3","3","encoding","encoding","134","IceCreamCone.jpg","37","0","815"
"3","3","encoding","encoding","135","Toy_RabbitPlushie.jpg","37","0","1629"
"3","3","encoding","encoding","136","DonaldDuck_Toy.jpg","37","0","784"
"3","3","encoding","encoding","137","MortarPestle_BlackStone.jpg","36","0","1150"
"3","3","encoding","encoding","138","Toolbox_Red.jpg","36","0","915"
"3","3","encoding","encoding","139","Popcorn.jpg","37","0","743"
"3","3","encoding","encoding","140","Card_QueenSpade.jpg","37","0","626"
"3","3","encoding","encoding","141","Mask_VenetianLongNose.jpg","37","0","1367"
"3","3","encoding","encoding","142","Lilypad.jpg","37","0","1160"
"3","3","encoding","encoding","143","Saw.jpg","36","0","1037"
"3","3","encoding","encoding","144","Candy_Lozenge.jpg","37","0","994"
"3","3","encoding","encoding","145","NailPolish.jpg","37","0","1167"
"3","3","encoding","encoding","146","ShoeLace_Round.jpg","37","0","918"
"3","3","encoding","encoding","147","Pepper_Green.jpg","37","0","997"
"3","3","encoding","encoding","148","Calculator.jpg","37","0","653"
"3","3","encoding","encoding","149","Bag_Doctor.jpg","37","0","791"
"3","3","encoding","encoding","150","Pear_Green.jpg","37","0","751"
"3","3","encoding","encoding","151","ClothesDryingRack.jpg","36","0","706"
"3","3","encoding","encoding","152","Ruler_Digital.jpg","37","0","903"
"3","3","encoding","encoding","153","SewingPin_Single.jpg","37","0","1201"
"3","3","encoding","encoding","154","Drum_Set.jpg","36","0","707"
"3","3","encoding","encoding","155","Boots_Hiking.jpg","37","0","1324"
"3","3","encoding","encoding","156","TreeStump.jpg","36","0","1117"
"3","3","encoding","encoding","157","Walker_Silver.jpg","36","0","650"
"3","3","encoding","encoding","158","Dreidel.jpg","37","0","967"
"3","3","encoding","encoding","159","Exercise_Machine.jpg","36","0","714"
"3","3","encoding","encoding","160","Bamboo.jpg","36","0","1339"
"3","3","encoding","encoding","161","Table_Pool.jpg","36","0","649"
"3","3","encoding","encoding","162","Cabasa.jpg","37","0","1199"
"3","3","encoding","encoding","163","Bread_Melon.jpg","37","0","1448"
"3","3","encoding","encoding","164","Brooch_Fish.jpg","37","0","912"
"3","3","encoding","encoding","165","WindshieldWasherFluid.jpg","36","0","749"
"3","3","encoding","encoding","166","CraneMachine.jpg","36","0","607"
"3","3","encoding","encoding","167","PaperCutter.jpg","36","0","813"
"3","3","encoding","encoding","168","Spoons_MeasuringDetached.jpg","37","0","778"
"3","3","encoding","encoding","169","HardDrive.jpg","37","0","937"
"3","3","encoding","encoding","170","Bed_QueenSize.jpg","36","0","784"
"3","3","encoding","encoding","171","Hat_Colonial.jpg","37","0","1475"
"3","3","encoding","encoding","172","Pouch_PotPourri.jpg","37","0","792"
"3","3","encoding","encoding","173","Bag_String.jpg","37","0","814"
"3","3","encoding","encoding","174","Boardgame_Checkers.jpg","36","0","1267"
"3","3","encoding","encoding","175","Toy_Lion.jpg","37","0","921"
"3","3","encoding","encoding","176","Trowel.jpg","37","0","664"
"3","3","encoding","encoding","177","Toy_Tank.jpg","37","0","1122"
"3","3","retrieval","new_objects","1","Sign_SpeedLimit30.jpg","37","1","1589"
"3","3","retrieval","old_objects","2","Earth_Planet.jpg","36","1","1316"
"3","3","retrieval","new_objects","3","Tripod.jpg","37","1","1190"
"3","3","retrieval","old_objects","4","PedestalGreek.jpg","37","0","1187"
"3","3","retrieval","new_objects","5","Crackers_Ritz.jpg","37","1","900"
"3","3","retrieval","new_objects","6","Cable_AudioSplitter.jpg","37","1","1015"
"3","3","retrieval","new_objects","7","Walkman.jpg","37","1","1021"
"3","3","retrieval","new_objects","8","Teabag.jpg","37","1","893"
"3","3","retrieval","old_objects","9","Mousetrap.jpg","36","1","856"
"3","3","retrieval","old_objects","10","Drum_Set.jpg","36","1","687"
"3","3","retrieval","old_objects","11","Light_Halogen.jpg","36","1","653"
"3","3","retrieval","old_objects","12","Guitarcase.jpg","36","1","718"
"3","3","retrieval","new_objects","13","Match.jpg","37","1","895"
"3","3","retrieval","new_objects","14","Cross.jpg","37","1","826"
"3","3","retrieval","new_objects","15","Case_WoodenOrnate.jpg","37","1","671"
"3","3","retrieval","old_objects","16","ShoeLace_Round.jpg","36","1","625"
"3","3","retrieval","old_objects","17","Toy_Dog.jpg","36","1","798"
"3","3","retrieval","old_objects","18","Box_Notepaper.jpg","36","1","714"
"3","3","retrieval","new_objects","19","HumanSkull.jpg","37","1","702"
"3","3","retrieval","old_objects","20","Trowel.jpg","36","1","693"
"3","3","retrieval","old_objects","21","Lilypad.jpg","36","1","609"
"3","3","retrieval","old_objects","22","LightBulb_White.jpg","36","1","1207"
"3","3","retrieval","old_objects","23","Cleaver_Meat.jpg","36","1","695"
"3","3","retrieval","new_objects","24","Keychain_Leather.jpg","37","1","700"
"3","3","retrieval","new_objects","25","MannequinBust.jpg","37","1","636"
"3","3","retrieval","old_objects","26","Scalpel.jpg","36","1","712"
"3","3","retrieval","new_objects","27","Scroll.jpg","37","1","801"
"3","3","retrieval","new_objects","28","Boat_Trailer.jpg","37","1","708"
"3","3","retrieval","old_objects","29","Toy_HockeyStick.jpg","36","1","779"
"3","3","retrieval","new_objects","30","DoorKnob.jpg","37","1","710"
"3","3","retrieval","new_objects","31","Pouch_Red.jpg","37","1","668"
"3","3","retrieval","old_objects","32","Distaff.jpg","36","1","702"
"3","3","retrieval","new_objects","33","SnowmanDecor.jpg","37","1","902"
"3","3","retrieval","new_objects","34","Boardgame_ChineseCheckers.jpg","37","1","1659"
"3","3","retrieval","old_objects","35","Flags_CheckeredRacing.jpg","36","1","721"
"3","3","retrieval","new_objects","36","Oven.jpg","36","0","1135"
"3","3","retrieval","old_objects","37","LampPost_ThreeBulbs.jpg","36","1","673"
"3","3","retrieval","new_objects","38","Container_RedPlastic.jpg","37","1","691"
"3","3","retrieval","new_objects","39","Trunk.jpg","37","1","769"
"3","3","retrieval","old_objects","40","MortarPestle_BlackStone.jpg","36","1","615"
"3","3","retrieval","new_objects","41","BabyMonitor.jpg","37","1","611"
"3","3","retrieval","new_objects","42","BasketballHoop.jpg","37","1","639"
"3","3","retrieval","new_objects","43","Origami_Ox.jpg","37","1","1019"
"3","3","retrieval","new_objects","44","WireStripper.jpg","37","1","599"
"3","3","retrieval","old_objects","45","CableConnecter.jpg","36","1","681"
"3","3","retrieval","new_objects","46","DarthVader.jpg","37","1","776"
"3","3","retrieval","old_objects","47","Box_Floral.jpg","36","1","840"
"3","3","retrieval","old_objects","48","Bag_String.jpg","36","1","652"
"3","3","retrieval","old_objects","49","Toad.jpg","36","1","632"
"3","3","retrieval","old_objects","50","FireHydrant.jpg","36","1","605"
"3","3","retrieval","old_objects","51","Glass_Wine.jpg","36","1","621"
"3","3","retrieval","old_objects","52","Cloud.jpg","36","1","564"
"3","3","retrieval","new_objects","53","SpongeScrubbing.jpg","37","1","689"
"3","3","retrieval","old_objects","54","Spear.jpg","36","1","660"
"3","3","retrieval","new_objects","55","CashRegister_Antique.jpg","37","1","662"
"3","3","retrieval","new_objects","56","Faucet.jpg","37","1","747"
"3","3","retrieval","new_objects","57","Table_PingPong.jpg","37","1","736"
"3","3","retrieval","new_objects","58","Compact_Mirror.jpg","37","1","779"
"3","3","retrieval","new_objects","59","Toy_Taxi.jpg","37","1","616"
"3","3","retrieval","new_objects","60","WashingMachine.jpg","37","1","1004"
"3","3","retrieval","new_objects","62","Paddle_Ball.jpg","37","1","623"
"3","3","retrieval","new_objects","63","Icepick.jpg","37","1","538"
"3","3","retrieval","old_objects","64","ClothesDryingRack.jpg","36","1","609"
"3","3","retrieval","new_objects","65","Noose.jpg","37","1","568"
"3","3","retrieval","old_objects","66","Boots_Hiking.jpg","36","1","699"
"3","3","retrieval","new_objects","67","Stovetop.jpg","37","1","667"
"3","3","retrieval","old_objects","68","MilkJug.jpg","36","1","601"
"3","3","retrieval","new_objects","69","Mirror_Makeup.jpg","37","1","834"
"3","3","retrieval","old_objects","70","HardDrive.jpg","36","1","680"
"3","3","retrieval","old_objects","71","Exercise_Machine.jpg","36","1","613"
"3","3","retrieval","old_objects","72","Toast.jpg","36","1","588"
"3","3","retrieval","new_objects","73","Pumpkin.jpg","37","1","587"
"3","3","retrieval","old_objects","74","Statue_VirginMary.jpg","36","1","731"
"3","3","retrieval","old_objects","75","Toolbox_Red.jpg","36","1","644"
"3","3","retrieval","old_objects","76","Bag_Doctor.jpg","36","1","568"
"3","3","retrieval","new_objects","77","Battery_AA.jpg","37","1","763"
"3","3","retrieval","old_objects","78","BicycleReflector.jpg","36","1","684"
"3","3","retrieval","old_objects","79","Funnel.jpg","36","1","595"
"3","3","retrieval","old_objects","80","DonaldDuck_Toy.jpg","36","1","608"
"3","3","retrieval","old_objects","81","BikiniTop.jpg","36","1","613"
"3","3","retrieval","old_objects","82","Clarinet.jpg","36","1","654"
"3","3","retrieval","new_objects","83","Toy_Slide.jpg","37","1","800"
"3","3","retrieval","old_objects","84","Tray_Wooden.jpg","36","1","577"
"3","3","retrieval","old_objects","85","Ring_Plain.jpg","37","0","698"
"3","3","retrieval","old_objects","86","CarSeat.jpg","36","1","671"
"3","3","retrieval","old_objects","87","Triangle.jpg","36","1","645"
"3","3","retrieval","old_objects","88","Calculator.jpg","36","1","608"
"3","3","retrieval","new_objects","89","Garbage_GreenBin.jpg","37","1","721"
"3","3","retrieval","old_objects","90","Chinchilla.jpg","36","1","723"
"3","3","retrieval","new_objects","91","Kangaroo.jpg","37","1","710"
"3","3","retrieval","new_objects","92","ElasticBand.jpg","37","1","718"
"3","3","retrieval","new_objects","93","MonkeyPuppet.jpg","37","1","576"
"3","3","retrieval","old_objects","94","PersonWooden.jpg","36","1","801"
"3","3","retrieval","old_objects","95","Brooch_Fish.jpg","36","1","1047"
"3","3","retrieval","new_objects","96","Tractor_Orange.jpg","37","1","659"
"3","3","retrieval","new_objects","97","Toy_Octopus.jpg","37","1","680"
"3","3","retrieval","old_objects","98","LetterMail.jpg","36","1","1070"
"3","3","retrieval","new_objects","99","Mask_Happy.jpg","37","1","1124"
"3","3","retrieval","new_objects","100","Sled.jpg","37","1","701"
"3","3","retrieval","old_objects","101","Stove_WithOven.jpg","36","1","818"
"3","3","retrieval","old_objects","102","Bottle_Specimen.jpg","36","1","684"
"3","3","retrieval","old_objects","103","ClothCoaster.jpg","36","1","591"
"3","3","retrieval","new_objects","104","RecorderInstrument.jpg","37","1","617"
"3","3","retrieval","new_objects","105","House_CeramicGingerbread.jpg","37","1","802"
"3","3","retrieval","new_objects","106","Carabiner_Orange.jpg","37","1","631"
"3","3","retrieval","old_objects","107","Cookie.jpg","36","1","658"
"3","3","retrieval","old_objects","108","NailPolish.jpg","36","1","663"
"3","3","retrieval","new_objects","109","Cooler.jpg","37","1","696"
"3","3","retrieval","new_objects","110","Clothespin_Red.jpg","37","1","750"
"3","3","retrieval","new_objects","111","Card_Deck.jpg","37","1","615"
"3","3","retrieval","new_objects","112","SatelliteDish.jpg","37","1","711"
"3","3","retrieval","old_objects","113","Cabasa.jpg","36","1","634"
"3","3","retrieval","new_objects","114","Tape_Dispenser.jpg","37","1","659"
"3","3","retrieval","new_objects","115","Dolphine.jpg","37","1","719"
"3","3","retrieval","new_objects","116","Tweezers.jpg","37","1","767"
"3","3","retrieval","new_objects","117","MechanicalSpring.jpg","37","1","561"
"3","3","retrieval","new_objects","118","Carousel.jpg","37","1","540"
"3","3","retrieval","new_objects","119","DoorHandle.jpg","37","1","575"
"3","3","retrieval","new_objects","120","Stone_AncientWriting.jpg","37","1","1039"
"3","3","retrieval","new_objects","121","Owl.jpg","37","1","560"
"3","3","retrieval","new_objects","123","Milkshake_Strawberry.jpg","37","1","737"
"3","3","retrieval","old_objects","124","Walker_Silver.jpg","36","1","674"
"3","3","retrieval","old_objects","125","ChalkboardEraser.jpg","36","1","881"
"3","3","retrieval","new_objects","126","Staircase_Straight.jpg","37","1","592"
"3","3","retrieval","old_objects","127","Television.jpg","36","1","684"
"3","3","retrieval","new_objects","128","Heater_ElectricPortable.jpg","37","1","623"
"3","3","retrieval","old_objects","129","Bandage_Wrap.jpg","36","1","679"
"3","3","retrieval","old_objects","130","Napkin_Single.jpg","36","1","705"
"3","3","retrieval","new_objects","131","Briefcase_Silver.jpg","37","1","598"
"3","3","retrieval","new_objects","132","Shoe_Pink.jpg","37","1","714"
"3","3","retrieval","new_objects","133","PocketKnife.jpg","37","1","765"
"3","3","retrieval","new_objects","134","Glove_Rubber.jpg","37","1","603"
"3","3","retrieval","new_objects","135","Statue_ManHorse.jpg","37","1","610"
"3","3","retrieval","old_objects","136","Pillow_Plaid.jpg","36","1","671"
"3","3","retrieval","old_objects","137","Telephone_Booth.jpg","36","1","541"
"3","3","retrieval","old_objects","138","Plate_Wooden.jpg","36","1","782"
"3","3","retrieval","new_objects","139","PenStand.jpg","37","1","644"
"3","3","retrieval","new_objects","140","Statue_SouthAmerican.jpg","37","1","494"
"3","3","retrieval","new_objects","141","Tray_Cafeteria.jpg","37","1","769"
"3","3","retrieval","old_objects","142","Hat_Hard.jpg","36","1","591"
"3","3","retrieval","new_objects","143","Dresser_1.jpg","37","1","698"
"3","3","retrieval","old_objects","144","Hat_Colonial.jpg","36","1","675"
"3","3","retrieval","old_objects","145","Can_Gas.jpg","36","1","609"
"3","3","retrieval","new_objects","146","TimerKitchen.jpg","37","1","629"
"3","3","retrieval","new_objects","147","Aquarium.jpg","37","1","625"
"3","3","retrieval","old_objects","148","MonaLisa.jpg","36","1","692"
"3","3","retrieval","old_objects","149","KitchenTools.jpg","36","1","855"
"3","3","retrieval","new_objects","150","Box_Jewellery.jpg","37","1","677"
"3","3","retrieval","new_objects","151","WagonPilgrim.jpg","37","1","673"
"3","3","retrieval","new_objects","152","WaterWell.jpg","37","1","595"
"3","3","retrieval","old_objects","153","Jar_JellyBeans.jpg","36","1","671"
"3","3","retrieval","old_objects","154","MatchBook.jpg","36","1","617"
"3","3","retrieval","old_objects","155","IroningBoard.jpg","36","1","533"
"3","3","retrieval","old_objects","156","Suspenders.jpg","36","1","643"
"3","3","retrieval","old_objects","157","Spoon_Baby.jpg","36","1","805"
"3","3","retrieval","new_objects","158","Fencing_HelmetSwords.jpg","37","1","663"
"3","3","retrieval","new_objects","159","Crate_Wine.jpg","37","1","763"
"3","3","retrieval","new_objects","160","Jug_Milk.jpg","37","1","753"
"3","3","retrieval","old_objects","161","Spoon_Sugar.jpg","36","1","756"
"3","3","retrieval","old_objects","162","Bench_Black.jpg","36","1","609"
"3","3","retrieval","old_objects","163","Toy_RobotClassic.jpg","36","1","728"
"3","3","retrieval","old_objects","164","USBKey.jpg","36","1","745"
"3","3","retrieval","old_objects","165","BloodpPresureCuff.jpg","36","1","610"
"3","3","retrieval","old_objects","166","Socks_Baby.jpg","36","1","604"
"3","3","retrieval","new_objects","167","KeyHook_Occupied.jpg","37","1","711"
"3","3","retrieval","new_objects","168","Kiwi.jpg","37","1","771"
"3","3","retrieval","new_objects","169","Flower_Orchid.jpg","37","1","640"
"3","3","retrieval","old_objects","170","PaperTowel_Kitchen.jpg","36","1","755"
"3","3","retrieval","new_objects","171","MagazineRoll.jpg","37","1","739"
"3","3","retrieval","new_objects","172","Bottle_Bleach.jpg","37","1","618"
"3","3","retrieval","old_objects","173","Mask_VenetianLongNose.jpg","36","1","706"
"3","3","retrieval","old_objects","174","Table_Conference.jpg","36","1","651"
"3","3","retrieval","old_objects","175","FlashlightHeadBand.jpg","36","1","687"
"3","3","retrieval","new_objects","176","CookieCutter_Tree.jpg","37","1","701"
"3","3","retrieval","new_objects","177","Speaker_Computer.jpg","37","1","645"
"3","3","retrieval","old_objects","178","Hazelnut.jpg","36","1","648"
"3","3","retrieval","new_objects","179","Platter_Vegetables.jpg","37","1","643"
"3","3","retrieval","old_objects","180","Candy_Lozenge.jpg","36","1","618"
"3","3","retrieval","new_objects","181","Windmill_Building.jpg","37","1","1026"
"3","3","retrieval","old_objects","182","PaperCutter.jpg","36","1","813"
"3","3","retrieval","new_objects","184","Honeydew_yellow.jpg","37","1","766"
"3","3","retrieval","old_objects","185","Bread_Melon.jpg","36","1","530"
"3","3","retrieval","new_objects","186","Colander.jpg","37","1","652"
"3","3","retrieval","new_objects","187","SpaceRover.jpg","37","1","809"
"3","3","retrieval","new_objects","188","CigarCase.jpg","37","1","706"
"3","3","retrieval","new_objects","189","Makeup_Foundation.jpg","37","1","634"
"3","3","retrieval","old_objects","190","Toy_Tank.jpg","36","1","664"
"3","3","retrieval","old_objects","191","Sock_Ankle.jpg","36","1","684"
"3","3","retrieval","old_objects","192","Mango.jpg","36","1","663"
"3","3","retrieval","new_objects","193","TartStrawberry.jpg","37","1","659"
"3","3","retrieval","new_objects","194","Celery.jpg","37","1","693"
"3","3","retrieval","new_objects","195","AmpMeter.jpg","37","1","588"
"3","3","retrieval","old_objects","196","PulleyWooden.jpg","37","0","559"
"3","3","retrieval","old_objects","197","Spoons_MeasuringDetached.jpg","36","1","902"
"3","3","retrieval","old_objects","198","Toy_Lighthouse.jpg","36","1","570"
"3","3","retrieval","old_objects","199","Tofu.jpg","36","1","621"
"3","3","retrieval","new_objects","200","Mailbox_Antique.jpg","37","1","739"
"3","3","retrieval","new_objects","201","Chipmunk.jpg","37","1","764"
"3","3","retrieval","old_objects","202","Knife_Camping.jpg","36","1","793"
"3","3","retrieval","new_objects","203","Stamp.jpg","37","1","1013"
"3","3","retrieval","new_objects","204","IceCrusher.jpg","37","1","701"
"3","3","retrieval","old_objects","205","Rope_Manila.jpg","36","1","646"
"3","3","retrieval","new_objects","206","HedgeShears.jpg","37","1","799"
"3","3","retrieval","new_objects","207","Jar_Money.jpg","37","1","675"
"3","3","retrieval","new_objects","208","Crab.jpg","37","1","569"
"3","3","retrieval","old_objects","209","Embosser.jpg","36","1","732"
"3","3","retrieval","new_objects","210","Crowbar.jpg","37","1","688"
"3","3","retrieval","new_objects","211","Necklace_Black.jpg","37","1","577"
"3","3","retrieval","new_objects","212","Piano_Keyboard.jpg","37","1","715"
"3","3","retrieval","new_objects","213","Leaf_Clover.jpg","37","1","577"
"3","3","retrieval","old_objects","214","Pen_Ballpoint.jpg","37","0","602"
"3","3","retrieval","new_objects","215","Bowl_Lemons.jpg","37","1","710"
"3","3","retrieval","new_objects","216","Amp.jpg","37","1","735"
"3","3","retrieval","new_objects","217","Mat_Bamboo.jpg","37","1","635"
"3","3","retrieval","old_objects","218","Toys_Lego.jpg","36","1","650"
"3","3","retrieval","old_objects","219","Sign_Construction.jpg","36","1","630"
"3","3","retrieval","old_objects","220","Light_Studio.jpg","36","1","665"
"3","3","retrieval","old_objects","221","Lantern_Chinese.jpg","36","1","625"
"3","3","retrieval","old_objects","222","Toy_DinosaurTRex.jpg","36","1","592"
"3","3","retrieval","new_objects","223","Dog_CockerSpaniel.jpg","37","1","661"
"3","3","retrieval","new_objects","224","MeasuringTape.jpg","37","1","672"
"3","3","retrieval","new_objects","225","PenHolder.jpg","37","1","591"
"3","3","retrieval","old_objects","226","SmokingPipe.jpg","36","1","635"
"3","3","retrieval","new_objects","227","Machine_Bread.jpg","37","1","1080"
"3","3","retrieval","new_objects","228","Sieve_SideView.jpg","37","1","678"
"3","3","retrieval","new_objects","229","Shed.jpg","37","1","602"
"3","3","retrieval","old_objects","230","Jet.jpg","36","1","730"
"3","3","retrieval","new_objects","231","Bowtie.jpg","37","1","698"
"3","3","retrieval","new_objects","232","KitchenCloth.jpg","37","1","712"
"3","3","retrieval","old_objects","233","Table_Pool.jpg","36","1","688"
"3","3","retrieval","new_objects","234","Desk_Office.jpg","37","1","1008"
"3","3","retrieval","new_objects","235","Brush_Shaving.jpg","37","1","634"
"3","3","retrieval","new_objects","236","Tuxedo.jpg","37","1","783"
"3","3","retrieval","new_objects","237","ChessPiece_Bishop.jpg","37","1","645"
"3","3","retrieval","old_objects","238","Saw.jpg","36","1","820"
"3","3","retrieval","new_objects","239","Stove_Portable.jpg","37","1","905"
"3","3","retrieval","old_objects","240","Gametable_AirHockey.jpg","36","1","764"
"3","3","retrieval","new_objects","241","Statue_Cat.jpg","37","1","809"
"3","3","retrieval","old_objects","242","Cantaloupe.jpg","36","1","672"
"3","3","retrieval","new_objects","243","Asparagus.jpg","37","1","782"
"3","3","retrieval","new_objects","245","AirCompressor.jpg","37","1","655"
"3","3","retrieval","new_objects","246","StickyTack.jpg","37","1","575"
"3","3","retrieval","old_objects","247","Pepper_Green.jpg","36","1","615"
"3","3","retrieval","new_objects","248","Thermos_Decorated.jpg","37","1","749"
"3","3","retrieval","new_objects","249","Speakers_Theatre.jpg","37","1","555"
"3","3","retrieval","new_objects","250","Cup_sippy.jpg","37","1","560"
"3","3","retrieval","old_objects","251","Brush_Paint.jpg","36","1","805"
"3","3","retrieval","new_objects","252","Horseshoe.jpg","37","1","632"
"3","3","retrieval","new_objects","253","Tape_Washi.jpg","37","1","658"
"3","3","retrieval","old_objects","254","Seashell_BayScallop.jpg","36","1","670"
"3","3","retrieval","old_objects","255","Stone_Spa.jpg","37","0","930"
"3","3","retrieval","old_objects","256","Wallet_ClosedBrown.jpg","36","1","872"
"3","3","retrieval","new_objects","257","Iguana.jpg","37","1","658"
"3","3","retrieval","old_objects","258","BoogieBoard.jpg","37","0","605"
"3","3","retrieval","old_objects","259","StringBean.jpg","36","1","952"
"3","3","retrieval","old_objects","260","ElectricSwitchboard.jpg","36","1","933"
"3","3","retrieval","old_objects","261","ProjectorScreen.jpg","36","1","835"
"3","3","retrieval","old_objects","262","Toy_Helicopter.jpg","36","1","603"
"3","3","retrieval","old_objects","263","PickupTruck.jpg","36","1","667"
"3","3","retrieval","new_objects","264","Phone_Wireless.jpg","37","1","749"
"3","3","retrieval","old_objects","265","Bowl_Sugar.jpg","36","1","766"
"3","3","retrieval","old_objects","266","Pouch_PotPourri.jpg","36","1","761"
"3","3","retrieval","old_objects","267","Egg_Cup.jpg","36","1","689"
"3","3","retrieval","new_objects","268","Ball_Baseball.jpg","37","1","638"
"3","3","retrieval","old_objects","269","Shoes_Snowboarding.jpg","36","1","692"
"3","3","retrieval","old_objects","270","WindshieldWasherFluid.jpg","36","1","601"
"3","3","retrieval","old_objects","271","Dreidel.jpg","36","1","662"
"3","3","retrieval","old_objects","272","Radio_Modern.jpg","36","1","628"
"3","3","retrieval","old_objects","273","TireRims.jpg","36","1","646"
"3","3","retrieval","old_objects","274","Pear_Yellow.jpg","36","1","733"
"3","3","retrieval","old_objects","275","Pear_Green.jpg","37","0","944"
"3","3","retrieval","old_objects","276","CraneMachine.jpg","36","1","669"
"3","3","retrieval","old_objects","277","Lectern.jpg","36","1","619"
"3","3","retrieval","old_objects","278","Bag_Gym.jpg","36","1","588"
"3","3","retrieval","old_objects","279","Cassette_Video.jpg","36","1","595"
"3","3","retrieval","new_objects","280","CoffeePot.jpg","37","1","702"
"3","3","retrieval","old_objects","281","NewspaperStack.jpg","36","1","678"
"3","3","retrieval","old_objects","282","Sink_Kitchen.jpg","36","1","629"
"3","3","retrieval","new_objects","283","StampAndSeal.jpg","37","1","751"
"3","3","retrieval","old_objects","284","Dog_SaintBernard.jpg","36","1","836"
"3","3","retrieval","old_objects","285","TreeStump.jpg","36","1","634"
"3","3","retrieval","old_objects","286","Ruler_Digital.jpg","36","1","613"
"3","3","retrieval","old_objects","287","Bed_QueenSize.jpg","36","1","633"
"3","3","retrieval","new_objects","288","Squash_Pumpkin.jpg","37","1","870"
"3","3","retrieval","old_objects","289","TissueBox.jpg","36","1","634"
"3","3","retrieval","new_objects","290","Tambourine.jpg","37","1","632"
"3","3","retrieval","old_objects","291","Starfish.jpg","36","1","736"
"3","3","retrieval","new_objects","292","Jar_Strawberry.jpg","37","1","840"
"3","3","retrieval","old_objects","293","Boardgame_Checkers.jpg","36","1","597"
"3","3","retrieval","new_objects","294","Hat_Police.jpg","37","1","782"
"3","3","retrieval","old_objects","295","Can_MilkAntique.jpg","36","1","551"
"3","3","retrieval","old_objects","296","Notebook.jpg","36","1","884"
"3","3","retrieval","new_objects","297","DentalProbe.jpg","37","1","874"
"3","3","retrieval","new_objects","298","Apple_Candy.jpg","37","1","647"
"3","3","retrieval","new_objects","299","LightHouse.jpg","37","1","627"
"3","3","retrieval","old_objects","300","Card_QueenSpade.jpg","36","1","656"
"3","3","retrieval","old_objects","301","PokerChips.jpg","36","1","1009"
"3","3","retrieval","old_objects","302","Brush_Light.jpg","36","1","614"
"3","3","retrieval","new_objects","303","Watch.jpg","37","1","630"
"3","3","retrieval","new_objects","304","VacuumHandheld.jpg","37","1","657"
"3","3","retrieval","old_objects","306","DogFood.jpg","36","1","844"
"3","3","retrieval","old_objects","307","IceCreamCone.jpg","36","1","626"
"3","3","retrieval","old_objects","308","Puzzle_Animal.jpg","36","1","699"
"3","3","retrieval","old_objects","309","Bamboo.jpg","36","1","652"
"3","3","retrieval","new_objects","310","WaterColorPaintset.jpg","37","1","632"
"3","3","retrieval","new_objects","311","Compact_Powder.jpg","37","1","830"
"3","3","retrieval","new_objects","312","Clip_Binder.jpg","37","1","602"
"3","3","retrieval","new_objects","313","Mirror_Handheld.jpg","37","1","580"
"3","3","retrieval","new_objects","314","SaladCaesar.jpg","37","1","872"
"3","3","retrieval","old_objects","315","SnowGlobe.jpg","36","1","689"
"3","3","retrieval","new_objects","316","Fruit_Carambola.jpg","37","1","648"
"3","3","retrieval","new_objects","317","Pretzel_Sticks.jpg","37","1","703"
"3","3","retrieval","old_objects","318","Hat_Baseball.jpg","37","0","793"
"3","3","retrieval","new_objects","319","OrangeBlood.jpg","37","1","657"
"3","3","retrieval","new_objects","320","Branch.jpg","37","1","563"
"3","3","retrieval","new_objects","321","Pacifier.jpg","37","1","671"
"3","3","retrieval","new_objects","322","Brush_Winter.jpg","37","1","626"
"3","3","retrieval","old_objects","323","Toy_Lion.jpg","36","1","644"
"3","3","retrieval","old_objects","324","Zucchini.jpg","36","1","586"
"3","3","retrieval","old_objects","325","Ramekin.jpg","36","1","563"
"3","3","retrieval","new_objects","326","SeatBuckle.jpg","37","1","618"
"3","3","retrieval","old_objects","327","Switch_LightBlack.jpg","36","1","605"
"3","3","retrieval","old_objects","328","Truck_Dump.jpg","36","1","686"
"3","3","retrieval","old_objects","329","Seal_Toy.jpg","36","1","619"
"3","3","retrieval","old_objects","330","Toy_DogBall.jpg","36","1","560"
"3","3","retrieval","new_objects","331","Currants.jpg","37","1","640"
"3","3","retrieval","old_objects","332","SewingPin_Single.jpg","36","1","566"
"3","3","retrieval","old_objects","333","Table_Saw.jpg","36","1","588"
"3","3","retrieval","new_objects","334","Gun_Glue.jpg","37","1","922"
"3","3","retrieval","new_objects","335","Blanket.jpg","37","1","919"
"3","3","retrieval","old_objects","336","Popcorn.jpg","36","1","587"
"3","3","retrieval","old_objects","337","PhoneJack.jpg","36","1","753"
"3","3","retrieval","old_objects","338","Toy_RobotTransformer.jpg","36","1","572"
"3","3","retrieval","old_objects","339","Joystick.jpg","36","1","610"
"3","3","retrieval","new_objects","340","PeriodicTable.jpg","37","1","619"
"3","3","retrieval","new_objects","341","DoorBolt.jpg","37","1","653"
"3","3","retrieval","new_objects","342","CandyDispenser.jpg","37","1","614"
"3","3","retrieval","old_objects","343","Toy_RabbitPlushie.jpg","36","1","801"
"3","3","retrieval","old_objects","344","Boat_Row.jpg","36","1","622"
"3","3","retrieval","old_objects","345","Handcuffs.jpg","36","1","641"
"3","3","retrieval","new_objects","346","Tube_Glue.jpg","37","1","626"
"3","3","retrieval","new_objects","347","Pipe.jpg","37","1","680"
"3","3","retrieval","old_objects","348","Qtip_Single.jpg","37","0","563"
"3","3","retrieval","new_objects","349","Toilet.jpg","37","1","557"
"3","3","retrieval","new_objects","350","ShoulderPads.jpg","37","1","524"
"3","3","retrieval","new_objects","351","Stroller.jpg","37","1","876"
"3","3","retrieval","new_objects","352","Autocreeper.jpg","37","1","586"
"3","3","retrieval","old_objects","353","Bag_Garbage.jpg","37","0","905"
"3","3","retrieval","old_objects","354","Helmet_Motorcycle.jpg","36","1","604"
"3","3","retrieval","old_objects","355","PostageStamps.jpg","36","1","727"
"3","3","demographics_block","gender","1","PostageStamps.jpg","male","1","26513"
"3","3","demographics_block","age","1","PostageStamps.jpg","40","1","26513"
"3","3","demographics_block","education","1","PostageStamps.jpg","13","1","26513"
"3","3","demographics_block","left_right_handed","2","PostageStamps.jpg","Right","1","6493"
"3","3","demographics_block","raceoption1","2","PostageStamps.jpg","0","1","6493"
"3","3","demographics_block","raceoption2","2","PostageStamps.jpg","","1","6493"
"3","3","demographics_block","raceoption3","2","PostageStamps.jpg","","1","6493"
"3","3","demographics_block","raceoption4","2","PostageStamps.jpg","","1","6493"
"3","3","demographics_block","raceoption5","2","PostageStamps.jpg","","1","6493"
"3","3","demographics_block","raceoption6","2","PostageStamps.jpg","","1","6493"
"3","3","demographics_block","raceoption7","2","PostageStamps.jpg","","1","6493"
"3","3","demographics_block","raceoption8","2","PostageStamps.jpg","","1","6493"
"3","3","demographics_block","raceoption9","2","PostageStamps.jpg","","1","6493"
"3","3","demographics_block","raceother","2","PostageStamps.jpg","","1","6493"
"3","3","demographics_block","raceother","2","PostageStamps.jpg","","1","6493"
"3","3","demographics_block","english_language","2","PostageStamps.jpg","Yes","1","6493"
"3","3","demographics_block","english_languageother","2","PostageStamps.jpg","","1","6493"
"3","3","demographics_block","eyesight","3","PostageStamps.jpg","Yes","1","6104"
"3","3","demographics_block","colorblind","3","PostageStamps.jpg","No","1","6104"
"3","3","worker_id_block","worker_id_textbox","1","PostageStamps.jpg","A3DUZ6WCFZRLX9","1","6271"
"6","6","encoding","encoding","1","Toy_Helicopter.jpg","37","0","1740"
"6","6","encoding","encoding","2","Lilypad.jpg","37","0","1139"
"6","6","encoding","encoding","3","Distaff.jpg","36","0","930"
"6","6","encoding","encoding","4","NewspaperStack.jpg","36","0","1297"
"6","6","encoding","encoding","5","Qtip_Single.jpg","37","0","897"
"6","6","encoding","encoding","6","Spear.jpg","36","0","951"
"6","6","encoding","encoding","7","MilkJug.jpg","36","0","975"
"6","6","encoding","encoding","8","Dog_SaintBernard.jpg","36","0","862"
"6","6","encoding","encoding","9","Hazelnut.jpg","37","0","1101"
"6","6","encoding","encoding","10","Bed_QueenSize.jpg","36","0","780"
"6","6","encoding","encoding","11","Toy_DogBall.jpg","37","0","1331"
"6","6","encoding","encoding","12","Ring_Plain.jpg","37","0","722"
"6","6","encoding","encoding","13","PersonWooden.jpg","37","0","1330"
"6","6","encoding","encoding","14","Seashell_BayScallop.jpg","37","0","1353"
"6","6","encoding","encoding","15","Embosser.jpg","37","0","1568"
"6","6","encoding","encoding","16","Card_QueenSpade.jpg","37","0","999"
"6","6","encoding","encoding","17","MortarPestle_BlackStone.jpg","37","0","1142"
"6","6","encoding","encoding","18","Sink_Kitchen.jpg","36","0","765"
"6","6","encoding","encoding","19","Saw.jpg","36","0","1340"
"6","6","encoding","encoding","20","Rope_Manila.jpg","36","0","1483"
"6","6","encoding","encoding","21","BloodpPresureCuff.jpg","37","0","1314"
"6","6","encoding","encoding","22","PulleyWooden.jpg","37","0","1826"
"6","6","encoding","encoding","23","Pear_Yellow.jpg","37","0","817"
"6","6","encoding","encoding","24","BoogieBoard.jpg","36","0","1832"
"6","6","encoding","encoding","25","Napkin_Single.jpg","37","0","863"
"6","6","encoding","encoding","26","Cloud.jpg","36","0","1014"
"6","6","encoding","encoding","27","PaperTowel_Kitchen.jpg","36","0","1637"
"6","6","encoding","encoding","28","Box_Floral.jpg","37","0","1452"
"6","6","encoding","encoding","29","Trowel.jpg","37","0","756"
"6","6","encoding","encoding","30","ChalkboardEraser.jpg","37","0","1171"
"6","6","encoding","encoding","31","Boardgame_Checkers.jpg","36","0","1354"
"6","6","encoding","encoding","32","Tray_Wooden.jpg","36","0","1137"
"6","6","encoding","encoding","33","Earth_Planet.jpg","36","0","864"
"6","6","encoding","encoding","34","Toy_DinosaurTRex.jpg","37","0","1360"
"6","6","encoding","encoding","35","Toys_Lego.jpg","37","0","751"
"6","6","encoding","encoding","36","Starfish.jpg","37","0","1358"
"6","6","encoding","encoding","37","Shoes_Snowboarding.jpg","36","0","845"
"6","6","encoding","encoding","38","Glass_Wine.jpg","37","0","1100"
"6","6","encoding","encoding","39","Toy_Lion.jpg","37","0","1035"
"6","6","encoding","encoding","40","Tofu.jpg","37","0","1666"
"6","6","encoding","encoding","41","Pillow_Plaid.jpg","36","0","1153"
"6","6","encoding","encoding","42","Gametable_AirHockey.jpg","36","0","728"
"6","6","encoding","encoding","43","Funnel.jpg","36","0","1712"
"6","6","encoding","encoding","44","Jar_JellyBeans.jpg","37","0","1535"
"6","6","encoding","encoding","45","ClothesDryingRack.jpg","36","0","942"
"6","6","encoding","encoding","46","Toy_Lighthouse.jpg","36","0","1005"
"6","6","encoding","encoding","47","Lantern_Chinese.jpg","36","0","1028"
"6","6","encoding","encoding","48","Egg_Cup.jpg","37","0","1091"
"6","6","encoding","encoding","49","Bread_Melon.jpg","37","0","1515"
"6","6","encoding","encoding","50","Toy_HockeyStick.jpg","36","0","1738"
"6","6","encoding","encoding","51","Cantaloupe.jpg","36","0","1841"
"6","6","encoding","encoding","52","Pen_Ballpoint.jpg","37","0","904"
"6","6","encoding","encoding","53","CarSeat.jpg","36","0","1143"
"6","6","encoding","encoding","54","LetterMail.jpg","37","0","1190"
"6","6","encoding","encoding","55","Telephone_Booth.jpg","36","0","813"
"6","6","encoding","encoding","56","Hat_Hard.jpg","36","0","964"
"6","6","encoding","encoding","57","FireHydrant.jpg","36","0","724"
"6","6","encoding","encoding","58","Bag_Doctor.jpg","36","0","1035"
"6","6","encoding","encoding","59","Flags_CheckeredRacing.jpg","36","0","1570"
"6","6","encoding","encoding","60","Toad.jpg","37","0","1081"
"6","6","encoding","encoding","62","Cookie.jpg","37","0","1542"
"6","6","encoding","encoding","63","Bag_Gym.jpg","36","0","877"
"6","6","encoding","encoding","64","Spoons_MeasuringDetached.jpg","37","0","1372"
"6","6","encoding","encoding","65","Toy_Tank.jpg","37","0","1556"
"6","6","encoding","encoding","66","SnowGlobe.jpg","36","0","1067"
"6","6","encoding","encoding","67","Lectern.jpg","36","0","738"
"6","6","encoding","encoding","68","Spoon_Sugar.jpg","37","0","729"
"6","6","encoding","encoding","69","Can_Gas.jpg","36","0","784"
"6","6","encoding","encoding","70","TreeStump.jpg","36","0","1119"
"6","6","encoding","encoding","71","Pear_Green.jpg","37","0","862"
"6","6","encoding","encoding","72","Brush_Paint.jpg","37","0","957"
"6","6","encoding","encoding","73","Brooch_Fish.jpg","36","0","1700"
"6","6","encoding","encoding","74","Popcorn.jpg","37","0","1388"
"6","6","encoding","encoding","75","Socks_Baby.jpg","37","0","1059"
"6","6","encoding","encoding","76","Boat_Row.jpg","36","0","890"
"6","6","encoding","encoding","77","Calculator.jpg","37","0","849"
"6","6","encoding","encoding","78","Table_Saw.jpg","36","0","864"
"6","6","encoding","encoding","79","Toy_RobotClassic.jpg","37","0","1071"
"6","6","encoding","encoding","80","Scalpel.jpg","37","0","1318"
"6","6","encoding","encoding","81","PhoneJack.jpg","37","0","1094"
"6","6","encoding","encoding","82","Bag_String.jpg","37","0","1861"
"6","6","encoding","encoding","83","Pouch_PotPourri.jpg","37","0","1172"
"6","6","encoding","encoding","84","Toy_RabbitPlushie.jpg","36","0","1099"
"6","6","encoding","encoding","85","PedestalGreek.jpg","36","0","826"
"6","6","encoding","encoding","86","CraneMachine.jpg","36","0","1050"
"6","6","encoding","encoding","87","Brush_Light.jpg","37","0","857"
"6","6","encoding","encoding","88","PickupTruck.jpg","36","0","744"
"6","6","encoding","encoding","89","Joystick.jpg","37","0","895"
"6","6","encoding","encoding","90","USBKey.jpg","37","0","942"
"6","6","encoding","encoding","91","Sign_Construction.jpg","36","0","1149"
"6","6","encoding","encoding","92","Dreidel.jpg","37","0","956"
"6","6","encoding","encoding","93","BikiniTop.jpg","37","0","1411"
"6","6","encoding","encoding","94","LampPost_ThreeBulbs.jpg","36","0","786"
"6","6","encoding","encoding","95","Bandage_Wrap.jpg","37","0","1410"
"6","6","encoding","encoding","96","Seal_Toy.jpg","36","0","1209"
"6","6","encoding","encoding","97","Table_Pool.jpg","36","0","728"
"6","6","encoding","encoding","98","FlashlightHeadBand.jpg","37","0","1247"
"6","6","encoding","encoding","99","PaperCutter.jpg","36","0","870"
"6","6","encoding","encoding","100","Light_Studio.jpg","36","0","901"
"6","6","encoding","encoding","101","Box_Notepaper.jpg","37","0","1036"
"6","6","encoding","encoding","102","Boots_Hiking.jpg","37","0","1668"
"6","6","encoding","encoding","103","Television.jpg","36","0","763"
"6","6","encoding","encoding","104","SewingPin_Single.jpg","37","0","818"
"6","6","encoding","encoding","105","Knife_Camping.jpg","37","0","1041"
"6","6","encoding","encoding","106","Toy_Dog.jpg","36","0","1152"
"6","6","encoding","encoding","107","Chinchilla.jpg","37","0","807"
"6","6","encoding","encoding","108","Cabasa.jpg","37","0","1350"
"6","6","encoding","encoding","109","Stove_WithOven.jpg","36","0","774"
"6","6","encoding","encoding","110","ClothCoaster.jpg","37","0","1021"
"6","6","encoding","encoding","111","Sock_Ankle.jpg","37","0","772"
"6","6","encoding","encoding","112","DogFood.jpg","37","0","1635"
"6","6","encoding","encoding","113","KitchenTools.jpg","37","0","1370"
"6","6","encoding","encoding","114","Light_Halogen.jpg","36","0","761"
"6","6","encoding","encoding","115","Mango.jpg","37","0","721"
"6","6","encoding","encoding","116","ProjectorScreen.jpg","36","0","1152"
"6","6","encoding","encoding","117","Can_MilkAntique.jpg","36","0","783"
"6","6","encoding","encoding","118","Suspenders.jpg","37","0","854"
"6","6","encoding","encoding","119","Exercise_Machine.jpg","36","0","837"
"6","6","encoding","encoding","120","Drum_Set.jpg","36","0","732"
"6","6","encoding","encoding","121","Jet.jpg","36","0","700"
"6","6","encoding","encoding","123","Hat_Colonial.jpg","37","0","1283"
"6","6","encoding","encoding","124","ElectricSwitchboard.jpg","36","0","834"
"6","6","encoding","encoding","125","Clarinet.jpg","36","0","1241"
"6","6","encoding","encoding","126","WindshieldWasherFluid.jpg","36","0","1033"
"6","6","encoding","encoding","127","ShoeLace_Round.jpg","37","0","840"
"6","6","encoding","encoding","128","Ramekin.jpg","37","0","999"
"6","6","encoding","encoding","129","StringBean.jpg","37","0","942"
"6","6","encoding","encoding","130","Mask_VenetianLongNose.jpg","37","0","1549"
"6","6","encoding","encoding","131","MatchBook.jpg","37","0","1044"
"6","6","encoding","encoding","132","Mousetrap.jpg","37","0","932"
"6","6","encoding","encoding","133","Cleaver_Meat.jpg","37","0","1442"
"6","6","encoding","encoding","134","PostageStamps.jpg","37","0","1098"
"6","6","encoding","encoding","135","Bench_Black.jpg","36","0","785"
"6","6","encoding","encoding","136","PokerChips.jpg","37","0","928"
"6","6","encoding","encoding","137","Statue_VirginMary.jpg","36","0","1335"
"6","6","encoding","encoding","138","Truck_Dump.jpg","36","0","742"
"6","6","encoding","encoding","139","IroningBoard.jpg","36","0","709"
"6","6","encoding","encoding","140","Notebook.jpg","36","0","1860"
"6","6","encoding","encoding","141","Zucchini.jpg","37","0","852"
"6","6","encoding","encoding","142","IceCreamCone.jpg","37","0","947"
"6","6","encoding","encoding","143","Radio_Modern.jpg","36","0","930"
"6","6","encoding","encoding","144","Pepper_Green.jpg","37","0","745"
"6","6","encoding","encoding","145","CableConnecter.jpg","37","0","936"
"6","6","encoding","encoding","146","Switch_LightBlack.jpg","37","0","999"
"6","6","encoding","encoding","147","Puzzle_Animal.jpg","36","0","1318"
"6","6","encoding","encoding","148","Guitarcase.jpg","36","0","790"
"6","6","encoding","encoding","149","BicycleReflector.jpg","37","0","1589"
"6","6","encoding","encoding","150","Bottle_Specimen.jpg","37","0","732"
"6","6","encoding","encoding","151","Table_Conference.jpg","36","0","739"
"6","6","encoding","encoding","152","TissueBox.jpg","36","0","1362"
"6","6","encoding","encoding","153","LightBulb_White.jpg","37","0","745"
"6","6","encoding","encoding","154","DonaldDuck_Toy.jpg","37","0","1344"
"6","6","encoding","encoding","155","Candy_Lozenge.jpg","37","0","704"
"6","6","encoding","encoding","156","Walker_Silver.jpg","36","0","935"
"6","6","encoding","encoding","157","Bamboo.jpg","37","0","1502"
"6","6","encoding","encoding","158","NailPolish.jpg","37","0","765"
"6","6","encoding","encoding","159","Spoon_Baby.jpg","37","0","756"
"6","6","encoding","encoding","160","Handcuffs.jpg","37","0","1003"
"6","6","encoding","encoding","161","Ruler_Digital.jpg","37","0","1354"
"6","6","encoding","encoding","162","Helmet_Motorcycle.jpg","36","0","1002"
"6","6","encoding","encoding","163","Plate_Wooden.jpg","37","0","1393"
"6","6","encoding","encoding","164","Stone_Spa.jpg","37","0","1736"
"6","6","encoding","encoding","165","HardDrive.jpg","37","0","1695"
"6","6","encoding","encoding","166","Toy_RobotTransformer.jpg","36","0","1406"
"6","6","encoding","encoding","167","Toolbox_Red.jpg","36","0","885"
"6","6","encoding","encoding","168","Triangle.jpg","36","0","1421"
"6","6","encoding","encoding","169","Bag_Garbage.jpg","36","0","852"
"6","6","encoding","encoding","170","Hat_Baseball.jpg","37","0","1330"
"6","6","encoding","encoding","171","Bowl_Sugar.jpg","37","0","986"
"6","6","encoding","encoding","172","Toast.jpg","37","0","937"
"6","6","encoding","encoding","173","Cassette_Video.jpg","37","0","1432"
"6","6","encoding","encoding","174","SmokingPipe.jpg","37","0","711"
"6","6","encoding","encoding","175","MonaLisa.jpg","36","0","926"
"6","6","encoding","encoding","176","TireRims.jpg","36","0","677"
"6","6","encoding","encoding","177","Wallet_ClosedBrown.jpg","37","0","901"
"6","6","retrieval","new_objects","1","Stovetop.jpg","37","1","1115"
"6","6","retrieval","old_objects","2","Table_Pool.jpg","36","1","956"
"6","6","retrieval","new_objects","3","Jar_Strawberry.jpg","37","1","885"
"6","6","retrieval","old_objects","4","Toy_RabbitPlushie.jpg","37","0","1016"
"6","6","retrieval","new_objects","5","Garbage_GreenBin.jpg","37","1","942"
"6","6","retrieval","new_objects","6","Cross.jpg","37","1","687"
"6","6","retrieval","new_objects","7","Flower_Orchid.jpg","37","1","650"
"6","6","retrieval","new_objects","8","Crowbar.jpg","37","1","855"
"6","6","retrieval","new_objects","9","Apple_Candy.jpg","37","1","764"
"6","6","retrieval","new_objects","10","Kangaroo.jpg","37","1","716"
"6","6","retrieval","old_objects","11","PulleyWooden.jpg","36","1","941"
"6","6","retrieval","new_objects","12","WireStripper.jpg","37","1","831"
"6","6","retrieval","old_objects","13","Toolbox_Red.jpg","36","1","1188"
"6","6","retrieval","old_objects","14","ProjectorScreen.jpg","36","1","764"
"6","6","retrieval","old_objects","15","MortarPestle_BlackStone.jpg","36","1","1140"
"6","6","retrieval","new_objects","16","Necklace_Black.jpg","37","1","813"
"6","6","retrieval","old_objects","17","Brush_Light.jpg","37","0","779"
"6","6","retrieval","old_objects","18","TreeStump.jpg","36","1","819"
"6","6","retrieval","old_objects","19","PokerChips.jpg","36","1","800"
"6","6","retrieval","new_objects","20","Pretzel_Sticks.jpg","37","1","711"
"6","6","retrieval","new_objects","21","MechanicalSpring.jpg","37","1","786"
"6","6","retrieval","old_objects","22","Bottle_Specimen.jpg","36","1","800"
"6","6","retrieval","old_objects","23","IceCreamCone.jpg","36","1","719"
"6","6","retrieval","new_objects","24","Tape_Dispenser.jpg","37","1","945"
"6","6","retrieval","old_objects","25","PickupTruck.jpg","36","1","1066"
"6","6","retrieval","new_objects","26","AmpMeter.jpg","37","1","1030"
"6","6","retrieval","old_objects","27","Ruler_Digital.jpg","36","1","828"
"6","6","retrieval","new_objects","28","WagonPilgrim.jpg","37","1","858"
"6","6","retrieval","new_objects","29","Sled.jpg","37","1","711"
"6","6","retrieval","new_objects","30","PocketKnife.jpg","37","1","913"
"6","6","retrieval","old_objects","31","Wallet_ClosedBrown.jpg","36","1","844"
"6","6","retrieval","old_objects","32","ShoeLace_Round.jpg","36","1","985"
"6","6","retrieval","old_objects","33","Chinchilla.jpg","36","1","1224"
"6","6","retrieval","old_objects","34","Popcorn.jpg","36","1","934"
"6","6","retrieval","new_objects","35","Crab.jpg","36","0","847"
"6","6","retrieval","old_objects","36","PaperTowel_Kitchen.jpg","36","1","956"
"6","6","retrieval","new_objects","37","Cable_AudioSplitter.jpg","37","1","1300"
"6","6","retrieval","new_objects","38","DoorKnob.jpg","37","1","863"
"6","6","retrieval","new_objects","39","CoffeePot.jpg","37","1","891"
"6","6","retrieval","old_objects","40","Cloud.jpg","36","1","998"
"6","6","retrieval","old_objects","41","Candy_Lozenge.jpg","36","1","1244"
"6","6","retrieval","new_objects","42","Leaf_Clover.jpg","37","1","834"
"6","6","retrieval","new_objects","43","TartStrawberry.jpg","37","1","919"
"6","6","retrieval","new_objects","44","StickyTack.jpg","37","1","945"
"6","6","retrieval","new_objects","45","Mailbox_Antique.jpg","37","1","874"
"6","6","retrieval","new_objects","46","Fruit_Carambola.jpg","37","1","966"
"6","6","retrieval","new_objects","47","Staircase_Straight.jpg","37","1","814"
"6","6","retrieval","new_objects","48","KitchenCloth.jpg","37","1","740"
"6","6","retrieval","new_objects","49","Statue_Cat.jpg","37","1","813"
"6","6","retrieval","old_objects","50","LetterMail.jpg","36","1","1067"
"6","6","retrieval","new_objects","51","CookieCutter_Tree.jpg","37","1","983"
"6","6","retrieval","old_objects","52","CableConnecter.jpg","36","1","1118"
"6","6","retrieval","old_objects","53","Flags_CheckeredRacing.jpg","36","1","1560"
"6","6","retrieval","old_objects","54","Lilypad.jpg","36","1","1545"
"6","6","retrieval","new_objects","55","Stroller.jpg","36","0","1362"
"6","6","retrieval","new_objects","56","Ball_Baseball.jpg","37","1","842"
"6","6","retrieval","new_objects","57","Oven.jpg","37","1","1295"
"6","6","retrieval","new_objects","58","Mat_Bamboo.jpg","37","1","914"
"6","6","retrieval","new_objects","59","Stamp.jpg","37","1","932"
"6","6","retrieval","old_objects","60","Telephone_Booth.jpg","36","1","709"
"6","6","retrieval","old_objects","62","Mango.jpg","36","1","1029"
"6","6","retrieval","new_objects","63","Crackers_Ritz.jpg","37","1","890"
"6","6","retrieval","old_objects","64","ChalkboardEraser.jpg","36","1","950"
"6","6","retrieval","old_objects","65","DogFood.jpg","36","1","830"
"6","6","retrieval","old_objects","66","Dreidel.jpg","36","1","787"
"6","6","retrieval","new_objects","67","PenStand.jpg","37","1","907"
"6","6","retrieval","old_objects","68","Saw.jpg","36","1","894"
"6","6","retrieval","old_objects","69","PersonWooden.jpg","36","1","945"
"6","6","retrieval","new_objects","70","Horseshoe.jpg","37","1","986"
"6","6","retrieval","old_objects","71","BoogieBoard.jpg","36","1","825"
"6","6","retrieval","old_objects","72","Puzzle_Animal.jpg","36","1","735"
"6","6","retrieval","new_objects","73","Makeup_Foundation.jpg","37","1","1216"
"6","6","retrieval","old_objects","74","Can_Gas.jpg","36","1","735"
"6","6","retrieval","old_objects","75","Distaff.jpg","36","1","903"
"6","6","retrieval","new_objects","76","Tuxedo.jpg","37","1","730"
"6","6","retrieval","new_objects","77","PenHolder.jpg","37","1","771"
"6","6","retrieval","old_objects","78","Lantern_Chinese.jpg","36","1","835"
"6","6","retrieval","new_objects","79","Compact_Mirror.jpg","37","1","920"
"6","6","retrieval","new_objects","80","WaterWell.jpg","37","1","1010"
"6","6","retrieval","old_objects","81","Seashell_BayScallop.jpg","36","1","841"
"6","6","retrieval","new_objects","82","Aquarium.jpg","37","1","918"
"6","6","retrieval","new_objects","83","DentalProbe.jpg","37","1","1144"
"6","6","retrieval","old_objects","84","Pouch_PotPourri.jpg","36","1","1129"
"6","6","retrieval","new_objects","85","Pumpkin.jpg","37","1","890"
"6","6","retrieval","old_objects","86","SewingPin_Single.jpg","36","1","933"
"6","6","retrieval","old_objects","87","SmokingPipe.jpg","36","1","799"
"6","6","retrieval","old_objects","88","Brooch_Fish.jpg","36","1","1005"
"6","6","retrieval","new_objects","89","DoorHandle.jpg","37","1","804"
"6","6","retrieval","old_objects","90","Seal_Toy.jpg","36","1","826"
"6","6","retrieval","old_objects","91","Calculator.jpg","36","1","1064"
"6","6","retrieval","old_objects","92","Mousetrap.jpg","36","1","812"
"6","6","retrieval","new_objects","93","SeatBuckle.jpg","37","1","834"
"6","6","retrieval","old_objects","94","Exercise_Machine.jpg","36","1","783"
"6","6","retrieval","old_objects","95","DonaldDuck_Toy.jpg","36","1","654"
"6","6","retrieval","old_objects","96","Radio_Modern.jpg","36","1","755"
"6","6","retrieval","new_objects","97","Tractor_Orange.jpg","37","1","939"
