"group","subject","blockcode","trialcode","trialnum","values.stimulus","response","correct","latency"
"1","1","encoding","encoding","1","SafetyPin.jpg","0","0","2001"
"1","1","encoding","encoding","2","ToothPaste.jpg","0","0","2001"
"1","1","encoding","encoding","3","Jar_Cookie.jpg","0","0","2001"
"1","1","encoding","encoding","4","KeyHook_Empty.jpg","0","0","2001"
"1","1","encoding","encoding","5","Crutches.jpg","0","0","2001"
"1","1","encoding","encoding","6","Shoes_Pumps.jpg","Ctrl+'B'","0","0"
"1","1","retrieval","old_objects","1","Shoes_Pumps.jpg","0","0","2001"
"1","1","retrieval","old_objects","2","Toy_DonkeyPlastic.jpg","0","0","2001"
"1","1","retrieval","old_objects","3","Mop.jpg","0","0","2001"
"1","1","retrieval","old_objects","4","Bird_Falcon.jpg","Ctrl+'Q'","0","0"
"2","2","encoding","encoding","1","Cake_Wedding.jpg","0","0","2001"
"2","2","encoding","encoding","2","Bird_CanadianGoose.jpg","Ctrl+'B'","0","0"
"2","2","retrieval","old_objects","1","Man.jpg","0","0","2001"
"2","2","retrieval","old_objects","2","Lollipop_Grape.jpg","Ctrl+'B'","1","951"
"2","2","demographics_block","gender","1","Lollipop_Grape.jpg","","1","1965"
"2","2","demographics_block","age","1","Lollipop_Grape.jpg","","1","1965"
"2","2","demographics_block","education","1","Lollipop_Grape.jpg","","1","1965"
"3","3","encoding","encoding","1","Dice.jpg","0","0","2001"
"3","3","encoding","encoding","2","Lollipop_Grape.jpg","0","0","2001"
"3","3","encoding","encoding","3","Dog_ChowChow.jpg","36","0","1123"
"3","3","encoding","encoding","4","HoseNozzle.jpg","37","0","1907"
"3","3","encoding","encoding","5","Harmonica.jpg","0","0","2001"
"3","3","encoding","encoding","6","Lock_Combination.jpg","37","0","1231"
"3","3","encoding","encoding","7","SpiderWeb.jpg","0","0","2001"
"3","3","encoding","encoding","8","Fan_Ceiling.jpg","36","0","1561"
"3","3","encoding","encoding","9","PictureFrame.jpg","36","0","1508"
"3","3","encoding","encoding","10","Barbecue_Gas.jpg","36","0","762"
"3","3","encoding","encoding","11","Nutcracker.jpg","37","0","1699"
"3","3","encoding","encoding","12","Statue_Head.jpg","36","0","1311"
"3","3","encoding","encoding","13","Bagel.jpg","37","0","1584"
"3","3","encoding","encoding","14","PaintSprayer.jpg","37","0","1540"
"3","3","encoding","encoding","15","Star.jpg","36","0","1486"
"3","3","encoding","encoding","16","Film_Single.jpg","36","0","1724"
"3","3","encoding","encoding","17","WashRack.jpg","36","0","1107"
"3","3","encoding","encoding","18","Toy_Slinky.jpg","37","0","1332"
"3","3","encoding","encoding","19","Toy_DonkeyPlastic.jpg","36","0","1678"
"3","3","encoding","encoding","20","Sheep.jpg","36","0","995"
"3","3","encoding","encoding","21","DrainPlug.jpg","37","0","1120"
"3","3","encoding","encoding","22","Barrel_Upright.jpg","36","0","895"
"3","3","encoding","encoding","23","Ball_Bowling.jpg","36","0","1232"
"3","3","encoding","encoding","24","Can_OilSpout.jpg","36","0","1089"
"3","3","encoding","encoding","25","NailFiles.jpg","37","0","756"
"3","3","encoding","encoding","26","Condom.jpg","37","0","1968"
"3","3","encoding","encoding","27","Cheeseburger.jpg","37","0","1311"
"3","3","encoding","encoding","28","Lens_Camera.jpg","37","0","1355"
"3","3","encoding","encoding","29","GranolaBar.jpg","37","0","895"
"3","3","encoding","encoding","30","Bird_CanadianGoose.jpg","36","0","1418"
"3","3","encoding","encoding","31","DryRack_Clothes.jpg","36","0","1004"
"3","3","encoding","encoding","32","Hotdog_WithBun.jpg","37","0","1478"
"3","3","encoding","encoding","33","MilkPitcher.jpg","36","0","988"
"3","3","encoding","encoding","34","Tray_Medical.jpg","37","0","1157"
"3","3","encoding","encoding","35","Chime.jpg","36","0","1028"
"3","3","encoding","encoding","36","Pajamas.jpg","37","0","1578"
"3","3","encoding","encoding","37","Jar_Honey.jpg","36","0","1287"
"3","3","encoding","encoding","38","Kazoo.jpg","37","0","842"
"3","3","encoding","encoding","39","Leaf_Yellow.jpg","37","0","1072"
"3","3","encoding","encoding","40","Seashell_AlternateTellin.jpg","37","0","1628"
"3","3","encoding","encoding","41","Pyramid.jpg","36","0","1222"
"3","3","encoding","encoding","42","Perfume.jpg","37","0","1091"
"3","3","encoding","encoding","43","Sign_SlipperyRoad.jpg","36","0","936"
"3","3","encoding","encoding","44","Spatula_1.jpg","37","0","1068"
"3","3","encoding","encoding","45","Stool_Metal.jpg","36","0","677"
"3","3","encoding","encoding","46","Basket_Firewood.jpg","36","0","944"
"3","3","encoding","encoding","47","PizzaCutter.jpg","37","0","776"
"3","3","encoding","encoding","48","Bottle_Plastic.jpg","37","0","1158"
"3","3","encoding","encoding","49","Clippers_Glass.jpg","36","0","949"
"3","3","encoding","encoding","50","Gun_Bazooka.jpg","36","0","849"
"3","3","encoding","encoding","51","Bird_Falcon.jpg","36","0","760"
"3","3","encoding","encoding","52","Thermometer_Room.jpg","37","0","1324"
"3","3","encoding","encoding","53","ToothPaste.jpg","37","0","824"
"3","3","encoding","encoding","54","Golf_Bag.jpg","36","0","703"
"3","3","encoding","encoding","55","Book_Leather.jpg","36","0","1182"
"3","3","encoding","encoding","56","ThreeHolePunch.jpg","37","0","1285"
"3","3","encoding","encoding","57","Jug_GallonWhite.jpg","36","0","1290"
"3","3","encoding","encoding","58","Spoons_MeasuringAttached.jpg","37","0","1102"
"3","3","encoding","encoding","59","Bag_Grains.jpg","36","0","814"
"3","3","encoding","encoding","60","Toy_Babydoll.jpg","36","0","1179"
"3","3","encoding","encoding","62","Box_Package.jpg","36","0","905"
"3","3","encoding","encoding","63","SmokeDetector.jpg","36","0","1731"
"3","3","encoding","encoding","64","Swan.jpg","36","0","1127"
"3","3","encoding","encoding","65","Pipe_Drain.jpg","37","0","1012"
"3","3","encoding","encoding","66","Lens_ColourFilter.jpg","37","0","1698"
"3","3","encoding","encoding","67","Bowl_Pasta.jpg","36","0","1082"
"3","3","encoding","encoding","68","Canister_Tea.jpg","36","0","476"
"3","3","encoding","encoding","69","Clamp_Screw.jpg","36","0","717"
"3","3","encoding","encoding","70","Jar_Cookie.jpg","36","0","788"
"3","3","encoding","encoding","71","Elephant.jpg","36","0","830"
"3","3","encoding","encoding","72","Camera_Security.jpg","36","0","1171"
"3","3","encoding","encoding","73","NailClipper.jpg","37","0","806"
"3","3","encoding","encoding","74","Bucket_Ice.jpg","36","0","1248"
"3","3","encoding","encoding","75","Soap.jpg","37","0","1361"
"3","3","encoding","encoding","76","Box_Chocolate.jpg","36","0","1402"
"3","3","encoding","encoding","77","Blueprints.jpg","37","0","1673"
"3","3","encoding","encoding","78","Bomb.jpg","36","0","1485"
"3","3","encoding","encoding","79","Car_Totalled.jpg","37","0","1306"
"3","3","encoding","encoding","80","Sink_Bathroom.jpg","36","0","980"
"3","3","encoding","encoding","81","Bib.jpg","36","0","1134"
"3","3","encoding","encoding","82","Toy_ElephantPlastic.jpg","0","0","2001"
"3","3","encoding","encoding","83","SpinalCord.jpg","36","0","1297"
"3","3","encoding","encoding","84","PaperTowel_Brown.jpg","37","0","992"
"3","3","encoding","encoding","85","ToothBrush.jpg","37","0","817"
"3","3","encoding","encoding","86","Box_FirstAidOpen.jpg","37","0","1835"
"3","3","encoding","encoding","87","Bottle_Blue.jpg","36","0","1385"
"3","3","encoding","encoding","88","Garlic_Whole.jpg","37","0","1143"
"3","3","encoding","encoding","89","Kangaroo_WithJoey.jpg","36","0","753"
"3","3","encoding","encoding","90","FlintIgniter.jpg","36","0","1185"
"3","3","encoding","encoding","91","Bowl_Glass.jpg","36","0","860"
"3","3","encoding","encoding","92","Butterfly.jpg","37","0","694"
"3","3","encoding","encoding","93","MemoPaperSpike.jpg","37","0","880"
"3","3","encoding","encoding","94","Backhoe.jpg","36","0","688"
"3","3","encoding","encoding","95","Flower_Hibiscus.jpg","37","0","673"
"3","3","encoding","encoding","96","Key_Car.jpg","37","0","788"
"3","3","encoding","encoding","97","Cable_JumpStart.jpg","36","0","1709"
"3","3","encoding","encoding","98","Bird_Tern.jpg","37","0","1107"
"3","3","encoding","encoding","99","Crutches.jpg","36","0","961"
"3","3","encoding","encoding","100","Ferret.jpg","36","0","1236"
"3","3","encoding","encoding","101","Toy_ModelMolecule.jpg","36","0","1794"
"3","3","encoding","encoding","102","Bus_School.jpg","36","0","882"
"3","3","encoding","encoding","103","Decoration_ChristmasWhite.jpg","37","0","1152"
"3","3","encoding","encoding","104","Kettle.jpg","36","0","1418"
"3","3","encoding","encoding","105","PylonTraffic.jpg","36","0","1082"
"3","3","encoding","encoding","106","Fan_Blades.jpg","36","0","1782"
"3","3","encoding","encoding","107","Carrot.jpg","37","0","571"
"3","3","encoding","encoding","108","SafetyPin.jpg","37","0","689"
"3","3","encoding","encoding","109","JoustingSpear.jpg","36","0","1270"
"3","3","encoding","encoding","110","MixingGlass.jpg","36","0","696"
"3","3","encoding","encoding","111","Bucket_Champagne.jpg","36","0","722"
"3","3","encoding","encoding","112","Mop.jpg","36","0","734"
"3","3","encoding","encoding","113","Fossil.jpg","36","0","1110"
"3","3","encoding","encoding","114","BicycleBrake.jpg","36","0","1416"
"3","3","encoding","encoding","115","CartonEggs.jpg","37","0","1511"
"3","3","encoding","encoding","116","Lacrosse_Stick.jpg","36","0","850"
"3","3","encoding","encoding","117","PlantPotted.jpg","36","0","1275"
"3","3","encoding","encoding","118","Brace_Neck.jpg","36","0","1142"
"3","3","encoding","encoding","119","Glove_Baseball.jpg","36","0","1223"
"3","3","encoding","encoding","120","Mask_Gas.jpg","36","0","966"
"3","3","encoding","encoding","121","Toy_Shapesorter.jpg","37","0","1533"
"3","3","encoding","encoding","123","HandMixer.jpg","36","0","1017"
"3","3","encoding","encoding","124","Lemon.jpg","37","0","713"
"3","3","encoding","encoding","125","Toy_BlocksMultiShape.jpg","37","0","916"
"3","3","encoding","encoding","126","ShearsGarden.jpg","36","0","992"
"3","3","encoding","encoding","127","Eraser.jpg","37","0","1422"
"3","3","encoding","encoding","128","Flowers_DryBouquet.jpg","37","0","1897"
"3","3","encoding","encoding","129","Socks_Winter.jpg","37","0","841"
"3","3","encoding","encoding","130","Hook_Ceiling.jpg","36","0","1101"
"3","3","encoding","encoding","131","Mask_Buddhist.jpg","36","0","1156"
"3","3","encoding","encoding","132","Sword.jpg","36","0","761"
"3","3","encoding","encoding","133","Car_Vintage.jpg","36","0","813"
"3","3","encoding","encoding","134","Hat_Explorer.jpg","37","0","1424"
"3","3","encoding","encoding","135","Man.jpg","36","0","914"
"3","3","encoding","encoding","136","Bolt.jpg","37","0","1254"
"3","3","encoding","encoding","137","Gun_Revolver.jpg","36","0","1632"
"3","3","encoding","encoding","138","Envelope_Letter.jpg","37","0","1285"
"3","3","encoding","encoding","139","Machine_Arm.jpg","36","0","787"
"3","3","encoding","encoding","140","Missile.jpg","36","0","1601"
"3","3","encoding","encoding","141","DogHouse.jpg","36","0","1657"
"3","3","encoding","encoding","142","Skirt_Long.jpg","37","0","1366"
"3","3","encoding","encoding","143","Fireplace_Outdoor.jpg","36","0","792"
"3","3","encoding","encoding","144","Castle_Sand.jpg","36","0","1813"
"3","3","encoding","encoding","145","FlipFlop_SingleRed.jpg","37","0","1542"
"3","3","encoding","encoding","146","Fruit_Cactus.jpg","37","0","1101"
"3","3","encoding","encoding","147","Shoes_Pumps.jpg","37","0","1728"
"3","3","encoding","encoding","148","Chicken_Raw.jpg","37","0","1724"
"3","3","encoding","encoding","149","Knee.jpg","0","0","2001"
"3","3","encoding","encoding","150","Leek.jpg","37","0","907"
"3","3","encoding","encoding","151","TeethModel.jpg","36","0","643"
"3","3","encoding","encoding","152","Coral.jpg","37","0","1248"
"3","3","encoding","encoding","153","Basket_Plastic.jpg","36","0","848"
"3","3","encoding","encoding","154","Gameboy.jpg","37","0","1325"
"3","3","encoding","encoding","155","WaterHeater.jpg","36","0","1015"
"3","3","encoding","encoding","156","Cake_Wedding.jpg","37","0","1056"
"3","3","encoding","encoding","157","Garlic_Clove.jpg","37","0","712"
"3","3","encoding","encoding","158","Coatrack.jpg","36","0","959"
"3","3","encoding","encoding","159","Keychain_Metal.jpg","37","0","1373"
"3","3","encoding","encoding","160","Spool_Thread.jpg","37","0","775"
"3","3","encoding","encoding","161","Fish_Rockbass.jpg","37","0","1440"
"3","3","encoding","encoding","162","Earrings_Dangling.jpg","37","0","823"
"3","3","encoding","encoding","163","RugRoled.jpg","36","0","861"
"3","3","encoding","encoding","164","PillBottle_Closed.jpg","37","0","1001"
"3","3","encoding","encoding","165","ChocolateBar_Unwrapped.jpg","37","0","1501"
"3","3","encoding","encoding","166","LaundryHamper.jpg","36","0","863"
"3","3","encoding","encoding","167","BottleOpener.jpg","37","0","1067"
"3","3","encoding","encoding","168","PillBottle_Spilled.jpg","37","0","877"
"3","3","encoding","encoding","169","Basket_Bread.jpg","36","0","828"
"3","3","encoding","encoding","170","SetSquare.jpg","36","0","853"
"3","3","encoding","encoding","171","Ladder.jpg","36","0","731"
"3","3","encoding","encoding","172","KeyHook_Empty.jpg","37","0","1078"
"3","3","encoding","encoding","173","Quartz.jpg","37","0","1314"
"3","3","encoding","encoding","174","Mask_VenetianCat.jpg","36","0","1073"
"3","3","encoding","encoding","175","Shoes_Snow.jpg","36","0","1124"
"3","3","encoding","encoding","176","Lighter_Yellow.jpg","37","0","750"
"3","3","encoding","encoding","177","Cactus.jpg","36","0","775"
"3","3","retrieval","old_objects","1","Lens_ColourFilter.jpg","37","0","1496"
"3","3","retrieval","new_objects","2","Blade_Tablesaw.jpg","36","0","1205"
"3","3","retrieval","old_objects","3","Barbecue_Gas.jpg","36","1","1385"
"3","3","retrieval","old_objects","4","ThreeHolePunch.jpg","37","0","1305"
"3","3","retrieval","old_objects","5","Spool_Thread.jpg","36","1","1173"
"3","3","retrieval","new_objects","6","Waffle.jpg","37","1","1764"
"3","3","retrieval","old_objects","7","PillBottle_Spilled.jpg","36","1","1337"
"3","3","retrieval","old_objects","8","Camera_Security.jpg","36","1","1087"
"3","3","retrieval","new_objects","9","Catheter.jpg","37","1","1488"
"3","3","retrieval","old_objects","10","PlantPotted.jpg","37","0","1139"
"3","3","retrieval","old_objects","11","Perfume.jpg","36","1","1296"
"3","3","retrieval","new_objects","12","Spoons_Musical.jpg","37","1","1419"
"3","3","retrieval","old_objects","13","Bottle_Blue.jpg","37","0","1629"
"3","3","retrieval","old_objects","14","Knee.jpg","36","1","1603"
"3","3","retrieval","new_objects","15","Toy_Truck.jpg","36","0","1590"
"3","3","retrieval","new_objects","16","Nuts_PeanutsPeeled.jpg","37","1","1234"
"3","3","retrieval","new_objects","17","Mat_Car.jpg","36","0","1472"
"3","3","retrieval","old_objects","18","Bucket_Champagne.jpg","37","0","1433"
"3","3","retrieval","new_objects","19","Knife_Kitchen.jpg","36","0","1205"
"3","3","retrieval","new_objects","20","Toolbox_BlackOpen.jpg","37","1","1306"
"3","3","retrieval","new_objects","21","Toy_Rooster.jpg","36","0","1230"
"3","3","retrieval","new_objects","22","Colosseum.jpg","36","0","904"
"3","3","retrieval","new_objects","23","VialLab.jpg","36","0","1084"
"3","3","retrieval","new_objects","24","Bell_Hand.jpg","37","1","1401"
"3","3","retrieval","old_objects","25","Barrel_Upright.jpg","37","0","1390"
"3","3","retrieval","old_objects","26","Bucket_Ice.jpg","36","1","1453"
"3","3","retrieval","new_objects","27","LumiereBeautyBeast.jpg","36","0","1641"
"3","3","retrieval","old_objects","28","Box_Package.jpg","37","0","1278"
"3","3","retrieval","old_objects","29","MilkPitcher.jpg","37","0","1520"
"3","3","retrieval","new_objects","30","Hammock.jpg","37","1","1457"
"3","3","retrieval","new_objects","31","RecorderCassette.jpg","36","0","1413"
"3","3","retrieval","old_objects","32","Ball_Bowling.jpg","36","1","1525"
"3","3","retrieval","old_objects","33","Cable_JumpStart.jpg","36","1","1229"
"3","3","retrieval","new_objects","34","Mask_Viking.jpg","36","0","1032"
"3","3","retrieval","old_objects","35","Fruit_Cactus.jpg","37","0","996"
"3","3","retrieval","old_objects","36","Decoration_ChristmasWhite.jpg","36","1","1347"
"3","3","retrieval","new_objects","37","DogSled.jpg","0","0","2001"
"3","3","retrieval","old_objects","38","Lollipop_Grape.jpg","37","0","988"
"3","3","retrieval","new_objects","39","Decoration_WallOrnament.jpg","37","1","1282"
"3","3","retrieval","new_objects","40","Binoculars.jpg","36","0","1420"
"3","3","retrieval","new_objects","41","SolderingWire.jpg","36","0","1642"
"3","3","retrieval","old_objects","42","Star.jpg","36","1","1183"
"3","3","retrieval","old_objects","43","PylonTraffic.jpg","36","1","1271"
"3","3","retrieval","old_objects","44","Toy_DonkeyPlastic.jpg","37","0","1378"
"3","3","retrieval","old_objects","45","Sword.jpg","36","1","1278"
"3","3","retrieval","old_objects","46","Gun_Revolver.jpg","37","0","1501"
"3","3","retrieval","old_objects","47","Toy_ModelMolecule.jpg","37","0","969"
"3","3","retrieval","new_objects","48","DVDPlayer.jpg","36","0","1123"
"3","3","retrieval","new_objects","49","ShinPads.jpg","37","1","1332"
"3","3","retrieval","new_objects","50","Tie.jpg","37","1","1266"
"3","3","retrieval","new_objects","51","Organ.jpg","36","0","1311"
"3","3","retrieval","new_objects","52","Shield_Antique.jpg","36","0","1077"
"3","3","retrieval","new_objects","53","Altar.jpg","37","1","1278"
"3","3","retrieval","old_objects","54","Man.jpg","36","1","1371"
"3","3","retrieval","new_objects","55","Glasses_Reading.jpg","36","0","1442"
"3","3","retrieval","old_objects","56","Toy_Shapesorter.jpg","37","0","1216"
"3","3","retrieval","new_objects","57","Hippopotamus.jpg","36","0","1226"
"3","3","retrieval","old_objects","58","Jar_Cookie.jpg","37","0","968"
"3","3","retrieval","old_objects","59","Lemon.jpg","37","0","1188"
"3","3","retrieval","new_objects","60","Statue_Jesus.jpg","36","0","761"
"3","3","retrieval","new_objects","62","SandBagThrowGame.jpg","36","0","1219"
"3","3","retrieval","new_objects","63","Clam.jpg","37","1","1492"
"3","3","retrieval","new_objects","64","ShakerShekere.jpg","37","1","1346"
"3","3","retrieval","old_objects","65","Crutches.jpg","36","1","886"
"3","3","retrieval","old_objects","66","Garlic_Whole.jpg","37","0","922"
"3","3","retrieval","old_objects","67","Soap.jpg","36","1","1314"
"3","3","retrieval","new_objects","68","Kneepad.jpg","37","1","1493"
"3","3","retrieval","new_objects","69","SaltShaker.jpg","36","0","1215"
"3","3","retrieval","new_objects","70","Pottery.jpg","37","1","1612"
"3","3","retrieval","old_objects","71","Cactus.jpg","37","0","1516"
"3","3","retrieval","old_objects","72","RugRoled.jpg","36","1","819"
"3","3","retrieval","old_objects","73","Fish_Rockbass.jpg","36","1","1266"
"3","3","retrieval","new_objects","74","Bowl_Wooden.jpg","37","1","1273"
"3","3","retrieval","new_objects","75","Hose_Garden.jpg","36","0","1244"
"3","3","retrieval","new_objects","76","StockingChristmas.jpg","36","0","1507"
"3","3","retrieval","old_objects","77","Car_Vintage.jpg","37","0","1175"
"3","3","retrieval","old_objects","78","Blueprints.jpg","37","0","1360"
"3","3","retrieval","new_objects","79","Toy_WinnieThePooh.jpg","36","0","1424"
"3","3","retrieval","new_objects","80","Knife_Hunting.jpg","37","1","1147"
"3","3","retrieval","new_objects","81","Shark_Hammerhead.jpg","37","1","1372"
"3","3","retrieval","new_objects","82","Chimpanzee.jpg","36","0","1230"
"3","3","retrieval","old_objects","83","Bottle_Plastic.jpg","36","1","1171"
"3","3","retrieval","old_objects","84","Socks_Winter.jpg","37","0","982"
"3","3","retrieval","new_objects","85","TomatoSauce.jpg","37","1","1116"
"3","3","retrieval","old_objects","86","Toy_ElephantPlastic.jpg","36","1","971"
"3","3","retrieval","old_objects","87","Mop.jpg","37","0","1162"
"3","3","retrieval","new_objects","88","Swing_Porch.jpg","37","1","1097"
"3","3","retrieval","new_objects","89","FloorTile.jpg","36","0","775"
"3","3","retrieval","old_objects","90","Spoons_MeasuringAttached.jpg","37","0","1337"
"3","3","retrieval","old_objects","91","HandMixer.jpg","36","1","1367"
"3","3","retrieval","new_objects","92","Torpedo.jpg","36","0","1585"
"3","3","retrieval","old_objects","93","Box_Chocolate.jpg","37","0","867"
"3","3","retrieval","new_objects","94","Candy_Cane.jpg","37","1","1056"
"3","3","retrieval","new_objects","95","Dragonfly.jpg","36","0","1522"
"3","3","retrieval","old_objects","96","Fireplace_Outdoor.jpg","36","1","918"
"3","3","retrieval","new_objects","97","Toy_PandaPlushie.jpg","37","1","1313"
"3","3","retrieval","old_objects","98","Flowers_DryBouquet.jpg","36","1","1184"
"3","3","retrieval","new_objects","99","Box_FirstAid.jpg","37","1","822"
"3","3","retrieval","new_objects","100","Chest_Toys.jpg","37","1","1460"
"3","3","retrieval","old_objects","101","Key_Car.jpg","36","1","1250"
"3","3","retrieval","old_objects","102","GranolaBar.jpg","37","0","983"
"3","3","retrieval","old_objects","103","Basket_Bread.jpg","37","0","1023"
"3","3","retrieval","old_objects","104","Kazoo.jpg","36","1","1322"
"3","3","retrieval","new_objects","105","AllTerrain.jpg","37","1","1233"
"3","3","retrieval","new_objects","106","Compressor.jpg","36","0","1628"
"3","3","retrieval","old_objects","107","TeethModel.jpg","37","0","870"
"3","3","retrieval","old_objects","108","MemoPaperSpike.jpg","36","1","1560"
"3","3","retrieval","old_objects","109","Box_FirstAidOpen.jpg","36","1","1607"
"3","3","retrieval","old_objects","110","Fan_Ceiling.jpg","36","1","1209"
"3","3","retrieval","new_objects","111","Bottle_Baby.jpg","36","0","996"
"3","3","retrieval","new_objects","112","Hammer_Reflex.jpg","36","0","1500"
"3","3","retrieval","old_objects","113","HoseNozzle.jpg","36","1","1595"
"3","3","retrieval","new_objects","114","Telephone_Dial.jpg","36","0","934"
"3","3","retrieval","new_objects","115","Hook_Fish.jpg","36","0","1924"
"3","3","retrieval","old_objects","116","Bag_Grains.jpg","37","0","1595"
"3","3","retrieval","old_objects","117","Butterfly.jpg","37","0","785"
"3","3","retrieval","new_objects","118","DogToy.jpg","36","0","1312"
"3","3","retrieval","old_objects","119","Toy_BlocksMultiShape.jpg","37","0","1249"
"3","3","retrieval","new_objects","120","BicycleWheel.jpg","36","0","1373"
"3","3","retrieval","old_objects","121","Golf_Bag.jpg","36","1","1270"
"3","3","retrieval","new_objects","123","Blueberry.jpg","37","1","1052"
"3","3","retrieval","old_objects","124","CartonEggs.jpg","37","0","868"
"3","3","retrieval","old_objects","125","Toy_Slinky.jpg","37","0","1435"
"3","3","retrieval","old_objects","126","Gun_Bazooka.jpg","36","1","896"
"3","3","retrieval","new_objects","127","Helicopter.jpg","36","0","656"
"3","3","retrieval","old_objects","128","Statue_Head.jpg","36","1","665"
"3","3","retrieval","old_objects","129","SmokeDetector.jpg","36","1","841"
"3","3","retrieval","new_objects","130","Stapler_Gun.jpg","36","0","1131"
"3","3","retrieval","new_objects","131","DrawingCompass.jpg","37","1","1297"
"3","3","retrieval","old_objects","132","Bolt.jpg","37","0","922"
"3","3","retrieval","new_objects","133","Bench_Concrete.jpg","36","0","1497"
"3","3","retrieval","new_objects","134","Scoop_IceCream.jpg","36","0","1096"
"3","3","retrieval","new_objects","135","SlideViewer.jpg","37","1","1373"
"3","3","retrieval","old_objects","136","Canister_Tea.jpg","36","1","1581"
"3","3","retrieval","old_objects","137","Castle_Sand.jpg","37","0","1466"
"3","3","retrieval","old_objects","138","Can_OilSpout.jpg","36","1","788"
"3","3","retrieval","old_objects","139","Coral.jpg","36","1","1583"
"3","3","retrieval","new_objects","140","AirVent.jpg","36","0","1100"
"3","3","retrieval","new_objects","141","Radio_Antique.jpg","36","0","1215"
"3","3","retrieval","new_objects","142","Cougar.jpg","36","0","1782"
"3","3","retrieval","new_objects","143","Drum_Ramadan.jpg","36","0","1427"
"3","3","retrieval","new_objects","144","ClothRed.jpg","37","1","1917"
"3","3","retrieval","old_objects","145","Pyramid.jpg","36","1","1082"
"3","3","retrieval","new_objects","146","Umbrella_Retractable.jpg","36","0","1433"
"3","3","retrieval","old_objects","147","Tray_Medical.jpg","37","0","1414"
"3","3","retrieval","new_objects","148","WaterCooler.jpg","36","0","1317"
"3","3","retrieval","new_objects","149","Table_AntiqueWooden.jpg","36","0","947"
"3","3","retrieval","new_objects","150","Hawk.jpg","37","1","1874"
"3","3","retrieval","new_objects","151","Brush_Nail.jpg","36","0","1029"
"3","3","retrieval","old_objects","152","BicycleBrake.jpg","36","1","739"
"3","3","retrieval","old_objects","153","NailFiles.jpg","36","1","1497"
"3","3","retrieval","new_objects","154","Book_Paper.jpg","36","0","1267"
"3","3","retrieval","old_objects","155","Machine_Arm.jpg","36","1","1301"
"3","3","retrieval","old_objects","156","Seashell_AlternateTellin.jpg","36","1","798"
"3","3","retrieval","old_objects","157","Book_Leather.jpg","36","1","926"
"3","3","retrieval","new_objects","158","Grill_Electric.jpg","36","0","1213"
"3","3","retrieval","new_objects","159","Brace_Leg.jpg","36","0","1415"
"3","3","retrieval","new_objects","160","Mailbox_Community.jpg","37","1","1503"
"3","3","retrieval","new_objects","161","Honeycomb.jpg","37","1","1702"
"3","3","retrieval","new_objects","162","Briefcase_Leather.jpg","37","1","1732"
"3","3","retrieval","old_objects","163","Swan.jpg","37","0","1438"
"3","3","retrieval","new_objects","164","Fork_Regular.jpg","36","0","1252"
"3","3","retrieval","old_objects","165","DogHouse.jpg","37","0","1094"
"3","3","retrieval","old_objects","166","Bowl_Pasta.jpg","37","0","1354"
"3","3","retrieval","new_objects","167","Sign_NoParking.jpg","36","0","1368"
"3","3","retrieval","old_objects","168","Lock_Combination.jpg","36","1","1431"
"3","3","retrieval","old_objects","169","Pajamas.jpg","0","0","2001"
"3","3","retrieval","old_objects","170","Mask_Gas.jpg","36","1","847"
"3","3","retrieval","old_objects","171","DrainPlug.jpg","37","0","1017"
"3","3","retrieval","old_objects","172","Nutcracker.jpg","37","0","1336"
"3","3","retrieval","old_objects","173","SetSquare.jpg","36","1","944"
"3","3","retrieval","old_objects","174","MixingGlass.jpg","36","1","712"
"3","3","retrieval","old_objects","175","Shoes_Pumps.jpg","37","0","1322"
"3","3","retrieval","old_objects","176","Bird_Tern.jpg","37","0","956"
"3","3","retrieval","new_objects","177","Sandwich_Egg.jpg","37","1","1251"
"3","3","retrieval","new_objects","178","ColoringSet.jpg","36","0","1661"
"3","3","retrieval","new_objects","179","CinderBlock.jpg","36","0","796"
"3","3","retrieval","old_objects","180","FlipFlop_SingleRed.jpg","37","0","1088"
"3","3","retrieval","new_objects","181","Shorts_Sports.jpg","37","1","833"
"3","3","retrieval","old_objects","182","Missile.jpg","36","1","963"
"3","3","retrieval","old_objects","184","Jug_GallonWhite.jpg","36","1","1445"
"3","3","retrieval","new_objects","185","Instrument_African.jpg","36","0","972"
"3","3","retrieval","old_objects","186","Kangaroo_WithJoey.jpg","36","1","1374"
"3","3","retrieval","new_objects","187","Lips_Real.jpg","36","0","1254"
"3","3","retrieval","new_objects","188","Chest.jpg","36","0","1290"
"3","3","retrieval","new_objects","189","Toy_LambPlushie.jpg","37","1","1089"
"3","3","retrieval","new_objects","190","Hookah.jpg","36","0","1037"
"3","3","retrieval","old_objects","191","Jar_Honey.jpg","36","1","1177"
"3","3","retrieval","old_objects","192","Harmonica.jpg","36","1","865"
"3","3","retrieval","old_objects","193","PillBottle_Closed.jpg","36","1","911"
"3","3","retrieval","new_objects","194","Toy_RockingHorseBlack.jpg","37","1","1217"
"3","3","retrieval","new_objects","195","Van.jpg","37","1","1108"
"3","3","retrieval","new_objects","196","Scythe.jpg","36","0","929"
"3","3","retrieval","old_objects","197","Bib.jpg","37","0","993"
"3","3","retrieval","new_objects","198","Light_Siren.jpg","37","1","1372"
"3","3","retrieval","new_objects","199","Jug_GallonRed.jpg","37","1","1119"
"3","3","retrieval","new_objects","200","MetalDetector.jpg","36","0","1233"
"3","3","retrieval","new_objects","201","EyeChart.jpg","37","1","1046"
"3","3","retrieval","new_objects","202","Shampoo.jpg","37","1","1468"
"3","3","retrieval","old_objects","203","PaperTowel_Brown.jpg","36","1","1073"
"3","3","retrieval","old_objects","204","Condom.jpg","36","1","1213"
"3","3","retrieval","old_objects","205","Coatrack.jpg","36","1","1355"
"3","3","retrieval","old_objects","206","Flower_Hibiscus.jpg","37","0","1025"
"3","3","retrieval","old_objects","207","NailClipper.jpg","37","0","1014"
"3","3","retrieval","new_objects","208","Speaker_OnStand.jpg","36","0","878"
"3","3","retrieval","old_objects","209","Stool_Metal.jpg","36","1","1219"
"3","3","retrieval","old_objects","210","Hotdog_WithBun.jpg","37","0","973"
"3","3","retrieval","new_objects","211","Toy_BeadMaze.jpg","37","1","930"
"3","3","retrieval","new_objects","212","Toy_Chicken.jpg","36","0","942"
"3","3","retrieval","new_objects","213","Bird_Parrot.jpg","37","1","985"
"3","3","retrieval","old_objects","214","Pipe_Drain.jpg","36","1","1256"
"3","3","retrieval","new_objects","215","IceCubes copy.jpg","36","0","1226"
"3","3","retrieval","new_objects","216","TrapAnimal.jpg","36","0","828"
"3","3","retrieval","old_objects","217","Lighter_Yellow.jpg","36","1","1050"
"3","3","retrieval","new_objects","218","Toy_Wooden rings.jpg","37","1","990"
"3","3","retrieval","old_objects","219","Skirt_Long.jpg","37","0","1114"
"3","3","retrieval","new_objects","220","VinylRecord.jpg","36","0","800"
"3","3","retrieval","new_objects","221","Steeple.jpg","36","0","973"
"3","3","retrieval","old_objects","222","Ladder.jpg","36","1","1126"
"3","3","retrieval","old_objects","223","Eraser.jpg","36","1","1194"
"3","3","retrieval","new_objects","224","Dress_Party.jpg","37","1","994"
"3","3","retrieval","old_objects","225","Clippers_Glass.jpg","37","0","1647"
"3","3","retrieval","old_objects","226","Bus_School.jpg","36","1","1394"
"3","3","retrieval","old_objects","227","Glove_Baseball.jpg","37","0","1043"
"3","3","retrieval","new_objects","228","Drum_Brazilan.jpg","37","1","1683"
"3","3","retrieval","new_objects","229","LightBulb_Christmas.jpg","36","0","1085"
"3","3","retrieval","old_objects","230","Shoes_Snow.jpg","37","0","1613"
"3","3","retrieval","new_objects","231","Jack.jpg","37","1","1208"
"3","3","retrieval","old_objects","232","Mask_Buddhist.jpg","36","1","1302"
"3","3","retrieval","old_objects","233","Hat_Explorer.jpg","36","1","918"
"3","3","retrieval","old_objects","234","Leaf_Yellow.jpg","36","1","1210"
"3","3","retrieval","old_objects","235","Film_Single.jpg","36","1","1266"
"3","3","retrieval","new_objects","236","Table_Picnic.jpg","36","0","1153"
"3","3","retrieval","old_objects","237","Sink_Bathroom.jpg","37","0","1035"
"3","3","retrieval","new_objects","238","MetalChain.jpg","37","1","1253"
"3","3","retrieval","new_objects","239","Corn_Kernels.jpg","37","1","905"
"3","3","retrieval","old_objects","240","Bird_Falcon.jpg","37","0","824"
"3","3","retrieval","new_objects","241","Toy_FigurineSwing.jpg","36","0","801"
"3","3","retrieval","new_objects","242","Sign_HumpBridgeAhead.jpg","36","0","814"
"3","3","retrieval","old_objects","243","Bowl_Glass.jpg","37","0","1138"
"3","3","retrieval","new_objects","245","GPS.jpg","36","0","1099"
"3","3","retrieval","new_objects","246","ButterDish.jpg","37","1","1303"
"3","3","retrieval","new_objects","247","Hat_Sheriff.jpg","37","1","1029"
"3","3","retrieval","new_objects","248","Giraffe.jpg","37","1","1391"
"3","3","retrieval","new_objects","249","LightBulb_Blue.jpg","37","1","979"
"3","3","retrieval","new_objects","250","Truck_Tanker.jpg","37","1","1756"
"3","3","retrieval","new_objects","251","Baster.jpg","37","1","1918"
"3","3","retrieval","old_objects","252","KeyHook_Empty.jpg","37","0","1539"
"3","3","retrieval","old_objects","253","Quartz.jpg","37","0","919"
"3","3","retrieval","old_objects","254","Dog_ChowChow.jpg","37","0","858"
"3","3","retrieval","old_objects","255","Lens_Camera.jpg","37","0","949"
"3","3","retrieval","old_objects","256","Bomb.jpg","37","0","1387"
"3","3","retrieval","old_objects","257","Cake_Wedding.jpg","37","0","1065"
"3","3","retrieval","new_objects","258","Garbage_Can.jpg","36","0","842"
"3","3","retrieval","old_objects","259","DryRack_Clothes.jpg","36","1","972"
"3","3","retrieval","new_objects","260","Clip_Paper.jpg","37","1","1569"
"3","3","retrieval","new_objects","261","Bag_Camera.jpg","37","1","1377"
"3","3","retrieval","new_objects","262","Tickets_PrintWords.jpg","37","1","826"
"3","3","retrieval","new_objects","263","Steamer.jpg","37","1","1352"
"3","3","retrieval","old_objects","264","ToothPaste.jpg","36","1","995"
"3","3","retrieval","new_objects","265","OvenElement.jpg","36","0","1356"
"3","3","retrieval","old_objects","266","Envelope_Letter.jpg","37","0","1535"
"3","3","retrieval","new_objects","267","ShoppingCart.jpg","37","1","1641"
"3","3","retrieval","old_objects","268","Brace_Neck.jpg","36","1","1443"
"3","3","retrieval","old_objects","269","Backhoe.jpg","36","1","1526"
"3","3","retrieval","old_objects","270","Mask_VenetianCat.jpg","36","1","1088"
"3","3","retrieval","old_objects","271","Cheeseburger.jpg","37","0","1082"
"3","3","retrieval","old_objects","272","ShearsGarden.jpg","36","1","1132"
"3","3","retrieval","old_objects","273","Lacrosse_Stick.jpg","36","1","1185"
"3","3","retrieval","old_objects","274","Toy_Babydoll.jpg","36","1","1282"
"3","3","retrieval","old_objects","275","ToothBrush.jpg","36","1","1583"
"3","3","retrieval","old_objects","276","PaintSprayer.jpg","37","0","785"
"3","3","retrieval","old_objects","277","Leek.jpg","37","0","1515"
"3","3","retrieval","old_objects","278","Bagel.jpg","37","0","917"
"3","3","retrieval","old_objects","279","Fossil.jpg","36","1","1212"
"3","3","retrieval","new_objects","280","Belt.jpg","36","0","1177"
"3","3","retrieval","old_objects","281","BottleOpener.jpg","36","1","1446"
"3","3","retrieval","new_objects","282","CuttingBoard.jpg","36","0","999"
"3","3","retrieval","old_objects","283","Basket_Plastic.jpg","36","1","828"
"3","3","retrieval","old_objects","284","Carrot.jpg","37","0","1132"
"3","3","retrieval","old_objects","285","WaterHeater.jpg","36","1","856"
"3","3","retrieval","old_objects","286","PizzaCutter.jpg","37","0","809"
"3","3","retrieval","old_objects","287","Kettle.jpg","37","0","1437"
"3","3","retrieval","new_objects","288","Toy_WoodenPlainSingle.jpg","37","1","1358"
"3","3","retrieval","old_objects","289","Sheep.jpg","37","0","1102"
"3","3","retrieval","new_objects","290","Tickets_Blank.jpg","37","1","816"
"3","3","retrieval","new_objects","291","Pliers_ViceGrip.jpg","36","0","1012"
"3","3","retrieval","new_objects","292","Candle_Blue.jpg","36","0","926"
"3","3","retrieval","new_objects","293","AlcoholBar.jpg","36","0","905"
"3","3","retrieval","new_objects","294","Briefcase_Open.jpg","36","0","1361"
"3","3","retrieval","new_objects","295","Maraca.jpg","37","1","1390"
"3","3","retrieval","old_objects","296","Keychain_Metal.jpg","37","0","704"
"3","3","retrieval","new_objects","297","Phone_Military.jpg","36","0","878"
"3","3","retrieval","new_objects","298","Corn.jpg","37","1","872"
"3","3","retrieval","new_objects","299","Boat_Colourful.jpg","36","0","1098"
"3","3","retrieval","new_objects","300","Truck_Army.jpg","36","0","1529"
"3","3","retrieval","new_objects","301","Box_GiftTopView.jpg","37","1","935"
"3","3","retrieval","new_objects","302","Bindings_Snowboard.jpg","36","0","1257"
"3","3","retrieval","new_objects","303","Tree_Fir.jpg","37","1","926"
"3","3","retrieval","new_objects","304","Squash_Butternut.jpg","37","1","840"
"3","3","retrieval","old_objects","306","Earrings_Dangling.jpg","37","0","1086"
"3","3","retrieval","new_objects","307","Candy_Cotton.jpg","37","1","1316"
"3","3","retrieval","new_objects","308","House_Wooden.jpg","36","0","1281"
"3","3","retrieval","old_objects","309","SpinalCord.jpg","36","1","1204"
"3","3","retrieval","old_objects","310","Bird_CanadianGoose.jpg","37","0","799"
"3","3","retrieval","new_objects","311","Toy_Motorcycle.jpg","37","1","1296"
"3","3","retrieval","old_objects","312","Chicken_Raw.jpg","37","0","1605"
"3","3","retrieval","old_objects","313","Clamp_Screw.jpg","36","1","1273"
"3","3","retrieval","new_objects","314","PotatoMasher_Zigzag.jpg","37","1","1160"
"3","3","retrieval","new_objects","315","Tetrahedron.jpg","36","0","1164"
"3","3","retrieval","new_objects","316","Balalaika.jpg","36","0","1448"
"3","3","retrieval","new_objects","317","Taco.jpg","37","1","1041"
"3","3","retrieval","old_objects","318","Sign_SlipperyRoad.jpg","37","0","933"
"3","3","retrieval","new_objects","319","Fortress.jpg","36","0","823"
"3","3","retrieval","old_objects","320","PictureFrame.jpg","36","1","1181"
"3","3","retrieval","old_objects","321","Gameboy.jpg","36","1","1125"
"3","3","retrieval","old_objects","322","Hook_Ceiling.jpg","36","1","1338"
"3","3","retrieval","old_objects","323","Spatula_1.jpg","37","0","1130"
"3","3","retrieval","new_objects","324","Shrub_Cedar.jpg","37","1","746"
"3","3","retrieval","new_objects","325","Fish_Swordfish.jpg","37","1","928"
"3","3","retrieval","old_objects","326","JoustingSpear.jpg","37","0","1580"
"3","3","retrieval","new_objects","327","Accordion.jpg","36","0","800"
"3","3","retrieval","new_objects","328","Projector_Film.jpg","36","0","761"
"3","3","retrieval","new_objects","329","FileFolder.jpg","36","0","898"
"3","3","retrieval","old_objects","330","Garlic_Clove.jpg","37","0","872"
"3","3","retrieval","new_objects","331","PyramidWooden.jpg","36","0","856"
"3","3","retrieval","new_objects","332","Camel_Bactrian.jpg","36","0","1114"
"3","3","retrieval","new_objects","333","Scrabble.jpg","36","0","1392"
"3","3","retrieval","old_objects","334","SafetyPin.jpg","37","0","1482"
"3","3","retrieval","new_objects","335","Bag_Satchel.jpg","36","0","890"
"3","3","retrieval","old_objects","336","SpiderWeb.jpg","37","0","1427"
"3","3","retrieval","new_objects","337","Coin.jpg","36","0","1255"
"3","3","retrieval","new_objects","338","Booth_Carnival.jpg","37","1","1119"
"3","3","retrieval","old_objects","339","Elephant.jpg","37","0","719"
"3","3","retrieval","old_objects","340","Chime.jpg","36","1","1118"
"3","3","retrieval","new_objects","341","HairScrunchie.jpg","37","1","882"
"3","3","retrieval","old_objects","342","WashRack.jpg","37","0","1229"
"3","3","retrieval","old_objects","343","Car_Totalled.jpg","36","1","717"
"3","3","retrieval","old_objects","344","Basket_Firewood.jpg","37","0","1180"
"3","3","retrieval","old_objects","345","Thermometer_Room.jpg","36","1","1324"
"3","3","retrieval","old_objects","346","Ferret.jpg","37","0","1078"
"3","3","retrieval","old_objects","347","Dice.jpg","36","1","858"
"3","3","retrieval","new_objects","348","Dress_Cocktail.jpg","36","0","1104"
"3","3","retrieval","old_objects","349","Fan_Blades.jpg","36","1","964"
"3","3","retrieval","old_objects","350","ChocolateBar_Unwrapped.jpg","37","0","904"
"3","3","retrieval","old_objects","351","FlintIgniter.jpg","36","1","1159"
"3","3","retrieval","new_objects","352","Branches_Campfire.jpg","0","0","2001"
"3","3","retrieval","new_objects","353","Box_WoodenOpen.jpg","37","1","1201"
"3","3","retrieval","old_objects","354","LaundryHamper.jpg","36","1","1117"
"3","3","retrieval","new_objects","355","CertificateFramed.jpg","36","0","1550"
"3","3","demographics_block","gender","1","CertificateFramed.jpg","FEMALE","1","9895"
"3","3","demographics_block","age","1","CertificateFramed.jpg","62","1","9895"
"3","3","demographics_block","education","1","CertificateFramed.jpg","16","1","9895"
"3","3","demographics_block","left_right_handed","2","CertificateFramed.jpg","Right","1","6169"
"3","3","demographics_block","raceoption1","2","CertificateFramed.jpg","0","1","6169"
"3","3","demographics_block","raceoption2","2","CertificateFramed.jpg","","1","6169"
"3","3","demographics_block","raceoption3","2","CertificateFramed.jpg","","1","6169"
"3","3","demographics_block","raceoption4","2","CertificateFramed.jpg","","1","6169"
"3","3","demographics_block","raceoption5","2","CertificateFramed.jpg","","1","6169"
"3","3","demographics_block","raceoption6","2","CertificateFramed.jpg","","1","6169"
"3","3","demographics_block","raceoption7","2","CertificateFramed.jpg","","1","6169"
"3","3","demographics_block","raceoption8","2","CertificateFramed.jpg","","1","6169"
"3","3","demographics_block","raceoption9","2","CertificateFramed.jpg","","1","6169"
"3","3","demographics_block","raceother","2","CertificateFramed.jpg","","1","6169"
"3","3","demographics_block","raceother","2","CertificateFramed.jpg","","1","6169"
"3","3","demographics_block","english_language","2","CertificateFramed.jpg","Yes","1","6169"
"3","3","demographics_block","english_languageother","2","CertificateFramed.jpg","","1","6169"
"3","3","demographics_block","eyesight","3","CertificateFramed.jpg","Yes","1","7948"
"3","3","demographics_block","colorblind","3","CertificateFramed.jpg","No","1","7948"
"3","3","worker_id_block","worker_id_textbox","1","CertificateFramed.jpg","A1P2RQ166VS5BT","1","9818"
"6","6","encoding","encoding","1","SpiderWeb.jpg","0","0","2000"
"6","6","encoding","encoding","2","Keychain_Metal.jpg","37","0","1190"
"6","6","encoding","encoding","3","Jug_GallonWhite.jpg","37","0","1367"
"6","6","encoding","encoding","4","Coral.jpg","37","0","1590"
"6","6","encoding","encoding","5","Golf_Bag.jpg","36","0","707"
"6","6","encoding","encoding","6","Bag_Grains.jpg","36","0","1020"
"6","6","encoding","encoding","7","Hat_Explorer.jpg","37","0","1485"
"6","6","encoding","encoding","8","JoustingSpear.jpg","36","0","1252"
"6","6","encoding","encoding","9","Man.jpg","36","0","985"
"6","6","encoding","encoding","10","Eraser.jpg","0","0","2000"
"6","6","encoding","encoding","11","Bib.jpg","37","0","1157"
"6","6","encoding","encoding","12","Coatrack.jpg","36","0","653"
"6","6","encoding","encoding","13","Stool_Metal.jpg","36","0","980"
"6","6","encoding","encoding","14","Gun_Bazooka.jpg","36","0","1024"
"6","6","encoding","encoding","15","Bucket_Champagne.jpg","37","0","1135"
"6","6","encoding","encoding","16","Condom.jpg","36","0","930"
"6","6","encoding","encoding","17","Can_OilSpout.jpg","36","0","1044"
"6","6","encoding","encoding","18","Shoes_Pumps.jpg","37","0","1425"
"6","6","encoding","encoding","19","Crutches.jpg","36","0","1667"
"6","6","encoding","encoding","20","Kazoo.jpg","37","0","1036"
"6","6","encoding","encoding","21","HoseNozzle.jpg","37","0","1086"
"6","6","encoding","encoding","22","Cable_JumpStart.jpg","36","0","1274"
"6","6","encoding","encoding","23","Socks_Winter.jpg","37","0","947"
"6","6","encoding","encoding","24","Pajamas.jpg","36","0","1372"
"6","6","encoding","encoding","25","Toy_DonkeyPlastic.jpg","36","0","730"
"6","6","encoding","encoding","26","Basket_Firewood.jpg","36","0","1031"
"6","6","encoding","encoding","27","Envelope_Letter.jpg","37","0","765"
"6","6","encoding","encoding","28","CartonEggs.jpg","37","0","851"
"6","6","encoding","encoding","29","Fan_Blades.jpg","36","0","1405"
"6","6","encoding","encoding","30","SafetyPin.jpg","37","0","967"
"6","6","encoding","encoding","31","Butterfly.jpg","37","0","930"
"6","6","encoding","encoding","32","MemoPaperSpike.jpg","37","0","1488"
"6","6","encoding","encoding","33","Bus_School.jpg","36","0","972"
"6","6","encoding","encoding","34","Bolt.jpg","37","0","747"
"6","6","encoding","encoding","35","Car_Vintage.jpg","36","0","1017"
"6","6","encoding","encoding","36","FlintIgniter.jpg","37","0","1324"
"6","6","encoding","encoding","37","Book_Leather.jpg","37","0","1568"
"6","6","encoding","encoding","38","GranolaBar.jpg","37","0","1062"
"6","6","encoding","encoding","39","Skirt_Long.jpg","36","0","941"
"6","6","encoding","encoding","40","Knee.jpg","36","0","1105"
"6","6","encoding","encoding","41","Flower_Hibiscus.jpg","37","0","996"
"6","6","encoding","encoding","42","NailFiles.jpg","37","0","1192"
"6","6","encoding","encoding","43","ToothBrush.jpg","37","0","777"
"6","6","encoding","encoding","44","WashRack.jpg","36","0","1240"
"6","6","encoding","encoding","45","Sign_SlipperyRoad.jpg","37","0","811"
"6","6","encoding","encoding","46","Dice.jpg","37","0","1333"
"6","6","encoding","encoding","47","Car_Totalled.jpg","36","0","1276"
"6","6","encoding","encoding","48","Lollipop_Grape.jpg","37","0","668"
"6","6","encoding","encoding","49","Jar_Cookie.jpg","36","0","810"
"6","6","encoding","encoding","50","Bird_Falcon.jpg","36","0","1027"
"6","6","encoding","encoding","51","Sink_Bathroom.jpg","36","0","766"
"6","6","encoding","encoding","52","BicycleBrake.jpg","36","0","921"
"6","6","encoding","encoding","53","Lens_Camera.jpg","37","0","1103"
"6","6","encoding","encoding","54","Chicken_Raw.jpg","36","0","1149"
"6","6","encoding","encoding","55","Spatula_1.jpg","37","0","732"
"6","6","encoding","encoding","56","Carrot.jpg","37","0","844"
"6","6","encoding","encoding","57","Toy_Shapesorter.jpg","37","0","1347"
"6","6","encoding","encoding","58","Hotdog_WithBun.jpg","37","0","1077"
"6","6","encoding","encoding","59","SpinalCord.jpg","37","0","1637"
"6","6","encoding","encoding","60","Toy_ElephantPlastic.jpg","37","0","940"
"6","6","encoding","encoding","62","MilkPitcher.jpg","36","0","1629"
"6","6","encoding","encoding","63","SetSquare.jpg","37","0","955"
"6","6","encoding","encoding","64","Bottle_Blue.jpg","37","0","959"
"6","6","encoding","encoding","65","Harmonica.jpg","37","0","1195"
"6","6","encoding","encoding","66","Film_Single.jpg","0","0","2000"
"6","6","encoding","encoding","67","Fish_Rockbass.jpg","36","0","1067"
"6","6","encoding","encoding","68","Clamp_Screw.jpg","37","0","908"
"6","6","encoding","encoding","69","Decoration_ChristmasWhite.jpg","37","0","1537"
"6","6","encoding","encoding","70","Cheeseburger.jpg","37","0","1128"
"6","6","encoding","encoding","71","Earrings_Dangling.jpg","37","0","1202"
"6","6","encoding","encoding","72","Gun_Revolver.jpg","37","0","1032"
"6","6","encoding","encoding","73","PillBottle_Closed.jpg","37","0","926"
"6","6","encoding","encoding","74","Toy_BlocksMultiShape.jpg","37","0","1296"
"6","6","encoding","encoding","75","DrainPlug.jpg","37","0","792"
"6","6","encoding","encoding","76","Basket_Bread.jpg","36","0","1035"
"6","6","encoding","encoding","77","Shoes_Snow.jpg","36","0","879"
"6","6","encoding","encoding","78","Kettle.jpg","36","0","1297"
"6","6","encoding","encoding","79","TeethModel.jpg","37","0","812"
"6","6","encoding","encoding","80","Machine_Arm.jpg","36","0","1004"
"6","6","encoding","encoding","81","DogHouse.jpg","36","0","1194"
"6","6","encoding","encoding","82","Ladder.jpg","36","0","1008"
"6","6","encoding","encoding","83","Fossil.jpg","37","0","940"
"6","6","encoding","encoding","84","Bucket_Ice.jpg","36","0","886"
"6","6","encoding","encoding","85","Box_Chocolate.jpg","37","0","805"
"6","6","encoding","encoding","86","Flowers_DryBouquet.jpg","37","0","985"
"6","6","encoding","encoding","87","PaperTowel_Brown.jpg","36","0","1255"
"6","6","encoding","encoding","88","Star.jpg","37","0","718"
"6","6","encoding","encoding","89","ToothPaste.jpg","37","0","627"
"6","6","encoding","encoding","90","Leaf_Yellow.jpg","37","0","1185"
"6","6","encoding","encoding","91","Sword.jpg","36","0","704"
"6","6","encoding","encoding","92","Lighter_Yellow.jpg","37","0","923"
"6","6","encoding","encoding","93","Jar_Honey.jpg","36","0","1393"
"6","6","encoding","encoding","94","RugRoled.jpg","36","0","1522"
"6","6","encoding","encoding","95","Fruit_Cactus.jpg","37","0","1070"
"6","6","encoding","encoding","96","Blueprints.jpg","37","0","1323"
"6","6","encoding","encoding","97","Gameboy.jpg","37","0","1160"
"6","6","encoding","encoding","98","Lacrosse_Stick.jpg","36","0","1025"
"6","6","encoding","encoding","99","Bagel.jpg","37","0","667"
"6","6","encoding","encoding","100","Bird_Tern.jpg","37","0","843"
"6","6","encoding","encoding","101","Missile.jpg","36","0","1062"
"6","6","encoding","encoding","102","Lock_Combination.jpg","37","0","755"
"6","6","encoding","encoding","103","Clippers_Glass.jpg","36","0","974"
"6","6","encoding","encoding","104","Hook_Ceiling.jpg","37","0","913"
"6","6","encoding","encoding","105","Swan.jpg","36","0","1097"
"6","6","encoding","encoding","106","Mask_Gas.jpg","36","0","818"
"6","6","encoding","encoding","107","DryRack_Clothes.jpg","36","0","988"
"6","6","encoding","encoding","108","Dog_ChowChow.jpg","36","0","700"
"6","6","encoding","encoding","109","FlipFlop_SingleRed.jpg","37","0","801"
"6","6","encoding","encoding","110","LaundryHamper.jpg","36","0","968"
"6","6","encoding","encoding","111","WaterHeater.jpg","36","0","931"
"6","6","encoding","encoding","112","MixingGlass.jpg","37","0","967"
"6","6","encoding","encoding","113","Barrel_Upright.jpg","36","0","789"
"6","6","encoding","encoding","114","Ferret.jpg","37","0","1504"
"6","6","encoding","encoding","115","Box_Package.jpg","37","0","1264"
"6","6","encoding","encoding","116","Garlic_Clove.jpg","37","0","860"
"6","6","encoding","encoding","117","Kangaroo_WithJoey.jpg","36","0","787"
"6","6","encoding","encoding","118","Mask_Buddhist.jpg","36","0","1140"
"6","6","encoding","encoding","119","Statue_Head.jpg","36","0","872"
"6","6","encoding","encoding","120","PlantPotted.jpg","36","0","1148"
"6","6","encoding","encoding","121","Tray_Medical.jpg","36","0","1856"
"6","6","encoding","encoding","123","Perfume.jpg","37","0","1099"
"6","6","encoding","encoding","124","Mop.jpg","36","0","981"
"6","6","encoding","encoding","125","BottleOpener.jpg","37","0","1008"
"6","6","encoding","encoding","126","Toy_Babydoll.jpg","37","0","1111"
"6","6","encoding","encoding","127","Leek.jpg","36","0","1667"
"6","6","encoding","encoding","128","Quartz.jpg","36","0","1224"
"6","6","encoding","encoding","129","Key_Car.jpg","37","0","764"
"6","6","encoding","encoding","130","PizzaCutter.jpg","37","0","1445"
"6","6","encoding","encoding","131","KeyHook_Empty.jpg","36","0","1357"
"6","6","encoding","encoding","132","Sheep.jpg","36","0","704"
"6","6","encoding","encoding","133","Barbecue_Gas.jpg","36","0","668"
"6","6","encoding","encoding","134","Lens_ColourFilter.jpg","37","0","1244"
"6","6","encoding","encoding","135","Cactus.jpg","36","0","1147"
"6","6","encoding","encoding","136","Camera_Security.jpg","36","0","1271"
"6","6","encoding","encoding","137","Basket_Plastic.jpg","37","0","1015"
"6","6","encoding","encoding","138","Bottle_Plastic.jpg","37","0","990"
"6","6","encoding","encoding","139","Nutcracker.jpg","37","0","1007"
"6","6","encoding","encoding","140","PillBottle_Spilled.jpg","37","0","1007"
"6","6","encoding","encoding","141","Mask_VenetianCat.jpg","37","0","1731"
"6","6","encoding","encoding","142","Thermometer_Room.jpg","37","0","1295"
"6","6","encoding","encoding","143","PaintSprayer.jpg","37","0","1776"
"6","6","encoding","encoding","144","NailClipper.jpg","37","0","726"
"6","6","encoding","encoding","145","HandMixer.jpg","36","0","846"
"6","6","encoding","encoding","146","Seashell_AlternateTellin.jpg","37","0","817"
"6","6","encoding","encoding","147","Spool_Thread.jpg","37","0","1045"
"6","6","encoding","encoding","148","Pipe_Drain.jpg","36","0","1093"
"6","6","encoding","encoding","149","ThreeHolePunch.jpg","37","0","1407"
"6","6","encoding","encoding","150","Box_FirstAidOpen.jpg","37","0","800"
"6","6","encoding","encoding","151","SmokeDetector.jpg","37","0","872"
"6","6","encoding","encoding","152","Bowl_Pasta.jpg","36","0","1155"
"6","6","encoding","encoding","153","Cake_Wedding.jpg","36","0","829"
"6","6","encoding","encoding","154","Lemon.jpg","37","0","875"
"6","6","encoding","encoding","155","Toy_Slinky.jpg","37","0","772"
"6","6","encoding","encoding","156","Fan_Ceiling.jpg","36","0","891"
"6","6","encoding","encoding","157","Pyramid.jpg","36","0","766"
"6","6","encoding","encoding","158","Backhoe.jpg","36","0","719"
"6","6","encoding","encoding","159","Chime.jpg","36","0","1106"
"6","6","encoding","encoding","160","ChocolateBar_Unwrapped.jpg","37","0","839"
"6","6","encoding","encoding","161","Fireplace_Outdoor.jpg","36","0","968"
"6","6","encoding","encoding","162","Bomb.jpg","37","0","1069"
"6","6","encoding","encoding","163","Soap.jpg","37","0","1093"
"6","6","encoding","encoding","164","PictureFrame.jpg","37","0","949"
"6","6","encoding","encoding","165","Spoons_MeasuringAttached.jpg","37","0","1337"
"6","6","encoding","encoding","166","Garlic_Whole.jpg","37","0","1364"
"6","6","encoding","encoding","167","PylonTraffic.jpg","36","0","1435"
"6","6","encoding","encoding","168","Canister_Tea.jpg","37","0","965"
"6","6","encoding","encoding","169","Elephant.jpg","36","0","651"
"6","6","encoding","encoding","170","Castle_Sand.jpg","37","0","1001"
"6","6","encoding","encoding","171","Toy_ModelMolecule.jpg","37","0","1088"
"6","6","encoding","encoding","172","ShearsGarden.jpg","36","0","892"
"6","6","encoding","encoding","173","Ball_Bowling.jpg","36","0","1458"
"6","6","encoding","encoding","174","Bowl_Glass.jpg","36","0","1222"
"6","6","encoding","encoding","175","Brace_Neck.jpg","37","0","1504"
"6","6","encoding","encoding","176","Bird_CanadianGoose.jpg","36","0","750"
"6","6","encoding","encoding","177","Glove_Baseball.jpg","36","0","1634"
"6","6","retrieval","new_objects","1","Candle_Blue.jpg","37","1","1022"
"6","6","retrieval","old_objects","2","Bolt.jpg","37","0","1125"
"6","6","retrieval","new_objects","3","HairScrunchie.jpg","37","1","1022"
"6","6","retrieval","new_objects","4","Tree_Fir.jpg","37","1","773"
"6","6","retrieval","old_objects","5","CartonEggs.jpg","36","1","790"
"6","6","retrieval","old_objects","6","Envelope_Letter.jpg","36","1","903"
"6","6","retrieval","old_objects","7","Cable_JumpStart.jpg","36","1","771"
"6","6","retrieval","old_objects","8","Toy_ModelMolecule.jpg","37","0","689"
"6","6","retrieval","new_objects","9","Waffle.jpg","37","1","726"
"6","6","retrieval","new_objects","10","Toy_RockingHorseBlack.jpg","37","1","789"
"6","6","retrieval","old_objects","11","Machine_Arm.jpg","36","1","782"
"6","6","retrieval","old_objects","12","Sword.jpg","36","1","675"
"6","6","retrieval","new_objects","13","Chest_Toys.jpg","37","1","757"
"6","6","retrieval","old_objects","14","Castle_Sand.jpg","36","1","786"
"6","6","retrieval","new_objects","15","Shorts_Sports.jpg","37","1","754"
"6","6","retrieval","new_objects","16","Blueberry.jpg","37","1","737"
"6","6","retrieval","new_objects","17","Shield_Antique.jpg","37","1","801"
"6","6","retrieval","new_objects","18","DrawingCompass.jpg","37","1","679"
"6","6","retrieval","old_objects","19","Flower_Hibiscus.jpg","36","1","809"
"6","6","retrieval","old_objects","20","Fireplace_Outdoor.jpg","36","1","685"
"6","6","retrieval","new_objects","21","Bindings_Snowboard.jpg","37","1","578"
"6","6","retrieval","new_objects","22","Toy_Wooden rings.jpg","37","1","628"
"6","6","retrieval","old_objects","23","Basket_Firewood.jpg","36","1","752"
"6","6","retrieval","old_objects","24","ShearsGarden.jpg","36","1","517"
"6","6","retrieval","old_objects","25","Cactus.jpg","36","1","745"
"6","6","retrieval","old_objects","26","Basket_Bread.jpg","37","0","693"
"6","6","retrieval","old_objects","27","Golf_Bag.jpg","36","1","729"
"6","6","retrieval","old_objects","28","Condom.jpg","36","1","706"
"6","6","retrieval","new_objects","29","AirVent.jpg","37","1","966"
"6","6","retrieval","old_objects","30","Mop.jpg","37","0","834"
"6","6","retrieval","old_objects","31","BicycleBrake.jpg","36","1","698"
"6","6","retrieval","new_objects","32","Coin.jpg","37","1","857"
"6","6","retrieval","new_objects","33","OvenElement.jpg","37","1","764"
"6","6","retrieval","new_objects","34","RecorderCassette.jpg","37","1","755"
"6","6","retrieval","old_objects","35","SafetyPin.jpg","36","1","736"
"6","6","retrieval","new_objects","36","CertificateFramed.jpg","37","1","845"
"6","6","retrieval","old_objects","37","NailFiles.jpg","37","0","923"
"6","6","retrieval","old_objects","38","Ladder.jpg","36","1","855"
"6","6","retrieval","old_objects","39","Spatula_1.jpg","36","1","586"
"6","6","retrieval","new_objects","40","TomatoSauce.jpg","37","1","814"
"6","6","retrieval","new_objects","41","Projector_Film.jpg","37","1","673"
"6","6","retrieval","new_objects","42","IceCubes copy.jpg","37","1","591"
"6","6","retrieval","old_objects","43","Bag_Grains.jpg","36","1","755"
"6","6","retrieval","old_objects","44","Lollipop_Grape.jpg","36","1","776"
"6","6","retrieval","old_objects","45","Toy_Babydoll.jpg","36","1","741"
"6","6","retrieval","old_objects","46","Toy_Slinky.jpg","36","1","712"
"6","6","retrieval","new_objects","47","ShakerShekere.jpg","37","1","855"
"6","6","retrieval","old_objects","48","Bowl_Glass.jpg","36","1","718"
"6","6","retrieval","new_objects","49","Toy_Rooster.jpg","37","1","650"
"6","6","retrieval","new_objects","50","Colosseum.jpg","37","1","925"
"6","6","retrieval","old_objects","51","JoustingSpear.jpg","36","1","783"
"6","6","retrieval","old_objects","52","Mask_VenetianCat.jpg","36","1","744"
"6","6","retrieval","old_objects","53","Leaf_Yellow.jpg","36","1","778"
"6","6","retrieval","old_objects","54","Elephant.jpg","36","1","712"
"6","6","retrieval","old_objects","55","Shoes_Snow.jpg","36","1","600"
"6","6","retrieval","old_objects","56","HandMixer.jpg","36","1","770"
"6","6","retrieval","old_objects","57","Tray_Medical.jpg","37","0","866"
"6","6","retrieval","old_objects","58","Chime.jpg","36","1","867"
"6","6","retrieval","new_objects","59","Brace_Leg.jpg","37","1","946"
"6","6","retrieval","new_objects","60","Sandwich_Egg.jpg","37","1","691"
"6","6","retrieval","new_objects","62","Toy_LambPlushie.jpg","37","1","896"
"6","6","retrieval","old_objects","63","Kettle.jpg","36","1","834"
"6","6","retrieval","new_objects","64","LumiereBeautyBeast.jpg","37","1","549"
"6","6","retrieval","old_objects","65","Gameboy.jpg","36","1","784"
"6","6","retrieval","old_objects","66","Ferret.jpg","36","1","724"
"6","6","retrieval","new_objects","67","TrapAnimal.jpg","37","1","669"
"6","6","retrieval","new_objects","68","Nuts_PeanutsPeeled.jpg","37","1","888"
"6","6","retrieval","old_objects","69","Lemon.jpg","36","1","661"
"6","6","retrieval","old_objects","70","MemoPaperSpike.jpg","36","1","676"
"6","6","retrieval","new_objects","71","Tetrahedron.jpg","37","1","617"
"6","6","retrieval","old_objects","72","Earrings_Dangling.jpg","36","1","768"
"6","6","retrieval","new_objects","73","Stapler_Gun.jpg","37","1","770"
"6","6","retrieval","old_objects","74","Soap.jpg","36","1","777"
"6","6","retrieval","new_objects","75","FileFolder.jpg","37","1","795"
"6","6","retrieval","new_objects","76","VinylRecord.jpg","37","1","823"
"6","6","retrieval","old_objects","77","Bus_School.jpg","36","1","681"
"6","6","retrieval","new_objects","78","SolderingWire.jpg","37","1","814"
"6","6","retrieval","old_objects","79","SpiderWeb.jpg","36","1","869"
"6","6","retrieval","old_objects","80","Swan.jpg","36","1","769"
"6","6","retrieval","old_objects","81","ChocolateBar_Unwrapped.jpg","36","1","528"
"6","6","retrieval","new_objects","82","Bell_Hand.jpg","37","1","811"
"6","6","retrieval","new_objects","83","Hammock.jpg","36","0","741"
"6","6","retrieval","old_objects","84","LaundryHamper.jpg","36","1","818"
"6","6","retrieval","old_objects","85","Seashell_AlternateTellin.jpg","36","1","774"
"6","6","retrieval","old_objects","86","Clippers_Glass.jpg","36","1","569"
"6","6","retrieval","old_objects","87","Toy_BlocksMultiShape.jpg","36","1","821"
"6","6","retrieval","new_objects","88","LightBulb_Blue.jpg","36","0","917"
"6","6","retrieval","new_objects","89","LightBulb_Christmas.jpg","37","1","764"
"6","6","retrieval","old_objects","90","ToothPaste.jpg","36","1","861"
"6","6","retrieval","old_objects","91","Coatrack.jpg","36","1","675"
"6","6","retrieval","new_objects","92","Hat_Sheriff.jpg","37","1","677"
"6","6","retrieval","old_objects","93","Gun_Revolver.jpg","36","1","832"
"6","6","retrieval","old_objects","94","Brace_Neck.jpg","36","1","796"
"6","6","retrieval","old_objects","95","Car_Vintage.jpg","36","1","738"
"6","6","retrieval","old_objects","96","SetSquare.jpg","36","1","835"
"6","6","retrieval","new_objects","97","Tickets_PrintWords.jpg","37","1","747"
"6","6","retrieval","new_objects","98","Toy_Motorcycle.jpg","37","1","828"
"6","6","retrieval","new_objects","99","ButterDish.jpg","37","1","693"
"6","6","retrieval","old_objects","100","PaperTowel_Brown.jpg","36","1","827"
"6","6","retrieval","new_objects","101","AllTerrain.jpg","37","1","784"
"6","6","retrieval","new_objects","102","Boat_Colourful.jpg","37","1","672"
"6","6","retrieval","old_objects","103","PillBottle_Spilled.jpg","36","1","626"
"6","6","retrieval","old_objects","104","Spool_Thread.jpg","37","0","931"
"6","6","retrieval","new_objects","105","ColoringSet.jpg","37","1","881"
"6","6","retrieval","old_objects","106","Canister_Tea.jpg","36","1","686"
"6","6","retrieval","new_objects","107","Altar.jpg","37","1","737"
"6","6","retrieval","new_objects","108","Chest.jpg","36","0","1108"
"6","6","retrieval","new_objects","109","Van.jpg","37","1","806"
"6","6","retrieval","new_objects","110","Bag_Camera.jpg","37","1","928"
"6","6","retrieval","new_objects","111","Mat_Car.jpg","37","1","812"
"6","6","retrieval","new_objects","112","Dragonfly.jpg","37","1","594"
"6","6","retrieval","old_objects","113","Sign_SlipperyRoad.jpg","36","1","721"
"6","6","retrieval","old_objects","114","MixingGlass.jpg","36","1","1089"
"6","6","retrieval","old_objects","115","Ball_Bowling.jpg","36","1","708"
"6","6","retrieval","new_objects","116","Squash_Butternut.jpg","37","1","677"
"6","6","retrieval","new_objects","117","Tie.jpg","37","1","631"
"6","6","retrieval","new_objects","118","AlcoholBar.jpg","37","1","723"
"6","6","retrieval","old_objects","119","PlantPotted.jpg","37","0","818"
"6","6","retrieval","old_objects","120","Fan_Ceiling.jpg","36","1","674"
"6","6","retrieval","old_objects","121","SmokeDetector.jpg","36","1","690"
"6","6","retrieval","new_objects","123","Giraffe.jpg","37","1","916"
"6","6","retrieval","new_objects","124","Decoration_WallOrnament.jpg","37","1","716"
"6","6","retrieval","new_objects","125","EyeChart.jpg","37","1","841"
"6","6","retrieval","new_objects","126","ShinPads.jpg","37","1","545"
"6","6","retrieval","new_objects","127","GPS.jpg","37","1","770"
"6","6","retrieval","old_objects","128","Bottle_Plastic.jpg","36","1","699"
"6","6","retrieval","new_objects","129","Knife_Hunting.jpg","37","1","785"
"6","6","retrieval","old_objects","130","Bucket_Ice.jpg","36","1","852"
"6","6","retrieval","old_objects","131","Bomb.jpg","36","1","623"
"6","6","retrieval","new_objects","132","MetalDetector.jpg","37","1","927"
"6","6","retrieval","old_objects","133","Chicken_Raw.jpg","36","1","845"
"6","6","retrieval","new_objects","134","VialLab.jpg","36","0","1033"
"6","6","retrieval","old_objects","135","Jar_Cookie.jpg","36","1","885"
"6","6","retrieval","old_objects","136","NailClipper.jpg","36","1","713"
"6","6","retrieval","old_objects","137","Perfume.jpg","36","1","784"
"6","6","retrieval","new_objects","138","Bench_Concrete.jpg","37","1","642"
"6","6","retrieval","old_objects","139","Lighter_Yellow.jpg","36","1","698"
"6","6","retrieval","old_objects","140","BottleOpener.jpg","36","1","737"
"6","6","retrieval","old_objects","141","Sink_Bathroom.jpg","36","1","759"
"6","6","retrieval","new_objects","142","Hook_Fish.jpg","37","1","886"
"6","6","retrieval","old_objects","143","Hotdog_WithBun.jpg","36","1","717"
"6","6","retrieval","old_objects","144","Fan_Blades.jpg","37","0","934"
"6","6","retrieval","old_objects","145","Thermometer_Room.jpg","36","1","659"
"6","6","retrieval","new_objects","146","Hose_Garden.jpg","37","1","837"
"6","6","retrieval","new_objects","147","Clam.jpg","36","0","1232"
"6","6","retrieval","new_objects","148","FloorTile.jpg","37","1","764"
"6","6","retrieval","old_objects","149","WashRack.jpg","36","1","754"
"6","6","retrieval","new_objects","150","Bowl_Wooden.jpg","36","0","1269"
"6","6","retrieval","new_objects","151","Toy_Chicken.jpg","37","1","902"
"6","6","retrieval","old_objects","152","TeethModel.jpg","36","1","813"
"6","6","retrieval","new_objects","153","Light_Siren.jpg","37","1","719"
"6","6","retrieval","old_objects","154","Basket_Plastic.jpg","36","1","781"
"6","6","retrieval","old_objects","155","Bottle_Blue.jpg","36","1","696"
"6","6","retrieval","new_objects","156","Hippopotamus.jpg","36","0","818"
"6","6","retrieval","new_objects","157","Jack.jpg","37","1","858"
"6","6","retrieval","new_objects","158","Fork_Regular.jpg","37","1","954"
"6","6","retrieval","new_objects","159","Tickets_Blank.jpg","36","0","730"
"6","6","retrieval","old_objects","160","SpinalCord.jpg","36","1","675"
"6","6","retrieval","new_objects","161","Torpedo.jpg","37","1","1181"
"6","6","retrieval","old_objects","162","Film_Single.jpg","36","1","902"
"6","6","retrieval","new_objects","163","Branches_Campfire.jpg","37","1","1061"
"6","6","retrieval","new_objects","164","Toy_Truck.jpg","37","1","685"
"6","6","retrieval","new_objects","165","WaterCooler.jpg","37","1","886"
"6","6","retrieval","old_objects","166","Fossil.jpg","36","1","591"
"6","6","retrieval","new_objects","167","Table_AntiqueWooden.jpg","37","1","675"
"6","6","retrieval","new_objects","168","Sign_NoParking.jpg","37","1","836"
"6","6","retrieval","old_objects","169","KeyHook_Empty.jpg","36","1","720"
"6","6","retrieval","new_objects","170","Table_Picnic.jpg","37","1","801"
"6","6","retrieval","new_objects","171","Toy_BeadMaze.jpg","36","0","926"
"6","6","retrieval","new_objects","172","Binoculars.jpg","37","1","862"
"6","6","retrieval","old_objects","173","Gun_Bazooka.jpg","36","1","838"
"6","6","retrieval","new_objects","174","PotatoMasher_Zigzag.jpg","36","0","699"
"6","6","retrieval","old_objects","175","Camera_Security.jpg","36","1","680"
"6","6","retrieval","new_objects","176","Baster.jpg","37","1","899"
"6","6","retrieval","new_objects","177","CuttingBoard.jpg","36","0","858"
"6","6","retrieval","old_objects","178","MilkPitcher.jpg","36","1","755"
"6","6","retrieval","new_objects","179","Corn.jpg","37","1","681"
"6","6","retrieval","old_objects","180","Lacrosse_Stick.jpg","36","1","824"
"6","6","retrieval","old_objects","181","Shoes_Pumps.jpg","36","1","806"
"6","6","retrieval","new_objects","182","Bag_Satchel.jpg","37","1","909"
"6","6","retrieval","new_objects","184","SandBagThrowGame.jpg","37","1","876"
"6","6","retrieval","old_objects","185","Bowl_Pasta.jpg","36","1","718"
"6","6","retrieval","old_objects","186","Cake_Wedding.jpg","36","1","762"
"6","6","retrieval","old_objects","187","WaterHeater.jpg","36","1","790"
"6","6","retrieval","old_objects","188","Man.jpg","36","1","897"
"6","6","retrieval","old_objects","189","Barrel_Upright.jpg","36","1","603"
"6","6","retrieval","old_objects","190","Flowers_DryBouquet.jpg","36","1","785"
"6","6","retrieval","new_objects","191","Belt.jpg","37","1","763"
"6","6","retrieval","new_objects","192","Grill_Electric.jpg","37","1","797"
"6","6","retrieval","new_objects","193","Spoons_Musical.jpg","37","1","1004"
"6","6","retrieval","new_objects","194","MetalChain.jpg","37","1","1002"
"6","6","retrieval","old_objects","195","Cheeseburger.jpg","36","1","702"
"6","6","retrieval","old_objects","196","Skirt_Long.jpg","36","1","661"
"6","6","retrieval","new_objects","197","Hammer_Reflex.jpg","37","1","834"
"6","6","retrieval","old_objects","198","Jug_GallonWhite.jpg","37","0","1075"
"6","6","retrieval","old_objects","199","Jar_Honey.jpg","36","1","768"
"6","6","retrieval","old_objects","200","Star.jpg","36","1","765"
"6","6","retrieval","old_objects","201","Pyramid.jpg","36","1","663"
"6","6","retrieval","old_objects","202","PizzaCutter.jpg","36","1","559"
"6","6","retrieval","old_objects","203","Kangaroo_WithJoey.jpg","36","1","573"
"6","6","retrieval","old_objects","204","Garlic_Whole.jpg","36","1","727"
"6","6","retrieval","old_objects","205","Bird_CanadianGoose.jpg","36","1","623"
"6","6","retrieval","old_objects","206","Keychain_Metal.jpg","37","0","976"
"6","6","retrieval","new_objects","207","House_Wooden.jpg","37","1","869"
"6","6","retrieval","old_objects","208","Mask_Buddhist.jpg","36","1","727"
"6","6","retrieval","new_objects","209","Book_Paper.jpg","37","1","1012"
"6","6","retrieval","new_objects","210","Camel_Bactrian.jpg","37","1","999"
"6","6","retrieval","new_objects","211","Hawk.jpg","36","0","804"
"6","6","retrieval","new_objects","212","Shark_Hammerhead.jpg","37","1","780"
"6","6","retrieval","new_objects","213","Steamer.jpg","37","1","727"
"6","6","retrieval","old_objects","214","Book_Leather.jpg","36","1","750"
"6","6","retrieval","old_objects","215","PictureFrame.jpg","36","1","838"
"6","6","retrieval","new_objects","216","Candy_Cotton.jpg","37","1","719"
"6","6","retrieval","old_objects","217","Spoons_MeasuringAttached.jpg","36","1","784"
"6","6","retrieval","old_objects","218","DryRack_Clothes.jpg","36","1","749"
"6","6","retrieval","old_objects","219","PillBottle_Closed.jpg","37","0","866"
"6","6","retrieval","old_objects","220","Decoration_ChristmasWhite.jpg","36","1","677"
"6","6","retrieval","old_objects","221","Box_FirstAidOpen.jpg","36","1","944"
"6","6","retrieval","old_objects","222","Quartz.jpg","36","1","729"
"6","6","retrieval","new_objects","223","Briefcase_Open.jpg","37","1","716"
"6","6","retrieval","new_objects","224","Maraca.jpg","37","1","778"
"6","6","retrieval","old_objects","225","Barbecue_Gas.jpg","36","1","778"
"6","6","retrieval","old_objects","226","Garlic_Clove.jpg","36","1","628"
"6","6","retrieval","new_objects","227","Speaker_OnStand.jpg","37","1","793"
"6","6","retrieval","new_objects","228","Taco.jpg","36","0","766"
"6","6","retrieval","old_objects","229","Stool_Metal.jpg","37","0","874"
"6","6","retrieval","old_objects","230","Dog_ChowChow.jpg","36","1","617"
"6","6","retrieval","old_objects","231","Lens_ColourFilter.jpg","36","1","666"
"6","6","retrieval","old_objects","232","Sheep.jpg","36","1","865"
"6","6","retrieval","new_objects","233","StockingChristmas.jpg","37","1","723"
"6","6","retrieval","new_objects","234","DogToy.jpg","37","1","802"
"6","6","retrieval","new_objects","235","Sign_HumpBridgeAhead.jpg","37","1","657"
"6","6","retrieval","old_objects","236","Bird_Falcon.jpg","37","0","939"
"6","6","retrieval","new_objects","237","Toy_WoodenPlainSingle.jpg","37","1","989"
"6","6","retrieval","old_objects","238","Harmonica.jpg","36","1","804"
"6","6","retrieval","new_objects","239","Cougar.jpg","37","1","739"
"6","6","retrieval","new_objects","240","Balalaika.jpg","37","1","685"
"6","6","retrieval","new_objects","241","Chimpanzee.jpg","37","1","831"
"6","6","retrieval","new_objects","242","Shampoo.jpg","37","1","615"
"6","6","retrieval","new_objects","243","DVDPlayer.jpg","37","1","1076"
"6","6","retrieval","new_objects","245","Drum_Ramadan.jpg","37","1","799"
"6","6","retrieval","old_objects","246","Bucket_Champagne.jpg","36","1","771"
"6","6","retrieval","old_objects","247","Mask_Gas.jpg","36","1","719"
"6","6","retrieval","new_objects","248","Briefcase_Leather.jpg","37","1","909"
"6","6","retrieval","old_objects","249","Carrot.jpg","36","1","676"
"6","6","retrieval","old_objects","250","RugRoled.jpg","36","1","763"
"6","6","retrieval","old_objects","251","Glove_Baseball.jpg","36","1","544"
"6","6","retrieval","new_objects","252","Compressor.jpg","37","1","896"
"6","6","retrieval","new_objects","253","Truck_Army.jpg","36","0","634"
"6","6","retrieval","new_objects","254","Instrument_African.jpg","37","1","916"
"6","6","retrieval","new_objects","255","Scoop_IceCream.jpg","36","0","768"
"6","6","retrieval","new_objects","256","Brush_Nail.jpg","37","1","828"
"6","6","retrieval","new_objects","257","Lips_Real.jpg","37","1","917"
"6","6","retrieval","new_objects","258","ShoppingCart.jpg","36","0","775"
"6","6","retrieval","new_objects","259","Fortress.jpg","36","0","957"
"6","6","retrieval","new_objects","260","Jug_GallonRed.jpg","36","0","1421"
"6","6","retrieval","new_objects","261","Bird_Parrot.jpg","37","1","964"
"6","6","retrieval","old_objects","262","Socks_Winter.jpg","37","0","1312"
"6","6","retrieval","old_objects","263","Pipe_Drain.jpg","36","1","805"
"6","6","retrieval","new_objects","264","Corn_Kernels.jpg","37","1","927"
"6","6","retrieval","old_objects","265","FlintIgniter.jpg","36","1","783"
"6","6","retrieval","new_objects","266","Toy_PandaPlushie.jpg","37","1","781"
"6","6","retrieval","new_objects","267","Knife_Kitchen.jpg","37","1","825"
"6","6","retrieval","new_objects","268","ClothRed.jpg","37","1","918"
"6","6","retrieval","old_objects","269","Fish_Rockbass.jpg","36","1","637"
"6","6","retrieval","old_objects","270","PylonTraffic.jpg","36","1","761"
"6","6","retrieval","new_objects","271","Glasses_Reading.jpg","37","1","799"
"6","6","retrieval","new_objects","272","Booth_Carnival.jpg","37","1","941"
"6","6","retrieval","old_objects","273","Crutches.jpg","36","1","676"
"6","6","retrieval","new_objects","274","Box_GiftTopView.jpg","37","1","939"
"6","6","retrieval","new_objects","275","Candy_Cane.jpg","37","1","649"
"6","6","retrieval","new_objects","276","Toolbox_BlackOpen.jpg","36","0","1062"
"6","6","retrieval","new_objects","277","Pottery.jpg","37","1","1130"
"6","6","retrieval","new_objects","278","DogSled.jpg","37","1","971"
"6","6","retrieval","new_objects","279","Fish_Swordfish.jpg","37","1","1094"
"6","6","retrieval","old_objects","280","Knee.jpg","36","1","906"
"6","6","retrieval","new_objects","281","Mask_Viking.jpg","37","1","762"
"6","6","retrieval","new_objects","282","Helicopter.jpg","36","0","923"
"6","6","retrieval","new_objects","283","Phone_Military.jpg","37","1","790"
"6","6","retrieval","new_objects","284","Toy_FigurineSwing.jpg","37","1","757"
"6","6","retrieval","old_objects","285","Bib.jpg","36","1","723"
"6","6","retrieval","old_objects","286","Lens_Camera.jpg","36","1","606"
"6","6","retrieval","new_objects","287","Pliers_ViceGrip.jpg","37","1","1005"
"6","6","retrieval","old_objects","288","ThreeHolePunch.jpg","36","1","820"
"6","6","retrieval","new_objects","289","Box_WoodenOpen.jpg","37","1","722"
"6","6","retrieval","new_objects","290","Steeple.jpg","37","1","1140"
"6","6","retrieval","old_objects","291","Toy_Shapesorter.jpg","36","1","823"
"6","6","retrieval","new_objects","292","Dress_Party.jpg","37","1","1020"
"6","6","retrieval","new_objects","293","Box_FirstAid.jpg","37","1","760"
"6","6","retrieval","old_objects","294","Toy_ElephantPlastic.jpg","36","1","984"
"6","6","retrieval","old_objects","295","Leek.jpg","36","1","950"
"6","6","retrieval","new_objects","296","SaltShaker.jpg","36","0","1246"
"6","6","retrieval","new_objects","297","Swing_Porch.jpg","37","1","827"
"6","6","retrieval","old_objects","298","Can_OilSpout.jpg","36","1","715"
"6","6","retrieval","new_objects","299","Clip_Paper.jpg","36","0","962"
"6","6","retrieval","old_objects","300","Bagel.jpg","36","1","686"
"6","6","retrieval","old_objects","301","Eraser.jpg","36","1","734"
"6","6","retrieval","old_objects","302","FlipFlop_SingleRed.jpg","36","1","896"
"6","6","retrieval","new_objects","303","CinderBlock.jpg","37","1","772"
"6","6","retrieval","old_objects","304","DogHouse.jpg","36","1","868"
"6","6","retrieval","new_objects","306","Radio_Antique.jpg","37","1","760"
"6","6","retrieval","new_objects","307","Bottle_Baby.jpg","37","1","997"
"6","6","retrieval","old_objects","308","Toy_DonkeyPlastic.jpg","36","1","715"
"6","6","retrieval","old_objects","309","Bird_Tern.jpg","37","0","1378"
"6","6","retrieval","new_objects","310","Organ.jpg","37","1","1107"
"6","6","retrieval","old_objects","311","Dice.jpg","36","1","743"
"6","6","retrieval","new_objects","312","Dress_Cocktail.jpg","36","0","1045"
"6","6","retrieval","old_objects","313","Box_Package.jpg","36","1","948"
"6","6","retrieval","old_objects","314","Fruit_Cactus.jpg","36","1","709"
"6","6","retrieval","old_objects","315","Lock_Combination.jpg","36","1","677"
"6","6","retrieval","new_objects","316","Shrub_Cedar.jpg","37","1","1037"
"6","6","retrieval","old_objects","317","GranolaBar.jpg","36","1","780"
"6","6","retrieval","old_objects","318","Clamp_Screw.jpg","36","1","1005"
"6","6","retrieval","old_objects","319","Box_Chocolate.jpg","36","1","702"
"6","6","retrieval","old_objects","320","PaintSprayer.jpg","36","1","1136"
"6","6","retrieval","old_objects","321","Hat_Explorer.jpg","36","1","769"
"6","6","retrieval","old_objects","322","Car_Totalled.jpg","36","1","788"
"6","6","retrieval","old_objects","323","Statue_Head.jpg","36","1","830"
"6","6","retrieval","new_objects","324","Accordion.jpg","37","1","927"
"6","6","retrieval","new_objects","325","Hookah.jpg","37","1","847"
"6","6","retrieval","new_objects","326","Telephone_Dial.jpg","37","1","713"
"6","6","retrieval","new_objects","327","Catheter.jpg","37","1","893"
"6","6","retrieval","old_objects","328","Hook_Ceiling.jpg","36","1","774"
"6","6","retrieval","old_objects","329","Missile.jpg","36","1","671"
"6","6","retrieval","new_objects","330","Garbage_Can.jpg","36","0","1092"
"6","6","retrieval","old_objects","331","Pajamas.jpg","36","1","802"
"6","6","retrieval","old_objects","332","Coral.jpg","36","1","858"
"6","6","retrieval","old_objects","333","Nutcracker.jpg","36","1","749"
"6","6","retrieval","old_objects","334","Blueprints.jpg","36","1","1041"
"6","6","retrieval","old_objects","335","Key_Car.jpg","36","1","703"
"6","6","retrieval","new_objects","336","Statue_Jesus.jpg","37","1","925"
"6","6","retrieval","new_objects","337","Drum_Brazilan.jpg","37","1","819"
"6","6","retrieval","new_objects","338","Scythe.jpg","37","1","1682"
"6","6","retrieval","old_objects","339","DrainPlug.jpg","36","1","604"
"6","6","retrieval","old_objects","340","HoseNozzle.jpg","36","1","602"
"6","6","retrieval","new_objects","341","Truck_Tanker.jpg","37","1","999"
"6","6","retrieval","new_objects","342","Scrabble.jpg","37","1","716"
"6","6","retrieval","old_objects","343","Backhoe.jpg","36","1","751"
"6","6","retrieval","new_objects","344","Blade_Tablesaw.jpg","37","1","1249"
"6","6","retrieval","new_objects","345","Mailbox_Community.jpg","37","1","931"
"6","6","retrieval","new_objects","346","Toy_WinnieThePooh.jpg","37","1","817"
"6","6","retrieval","old_objects","347","ToothBrush.jpg","37","0","1278"
"6","6","retrieval","new_objects","348","SlideViewer.jpg","37","1","973"
"6","6","retrieval","old_objects","349","Butterfly.jpg","37","0","875"
"6","6","retrieval","new_objects","350","PyramidWooden.jpg","36","0","672"
"6","6","retrieval","new_objects","351","BicycleWheel.jpg","37","1","812"
"6","6","retrieval","old_objects","352","Kazoo.jpg","36","1","780"
"6","6","retrieval","new_objects","353","Kneepad.jpg","37","1","838"
"6","6","retrieval","new_objects","354","Honeycomb.jpg","37","1","1024"
"6","6","retrieval","new_objects","355","Umbrella_Retractable.jpg","37","1","754"
"6","6","demographics_block","gender","1","Umbrella_Retractable.jpg","Female","1","15835"
"6","6","demographics_block","age","1","Umbrella_Retractable.jpg","45","1","15835"
"6","6","demographics_block","education","1","Umbrella_Retractable.jpg","14","1","15835"
"6","6","demographics_block","left_right_handed","2","Umbrella_Retractable.jpg","Left","1","13786"
"6","6","demographics_block","raceoption1","2","Umbrella_Retractable.jpg","0","1","13786"
"6","6","demographics_block","raceoption2","2","Umbrella_Retractable.jpg","","1","13786"
"6","6","demographics_block","raceoption3","2","Umbrella_Retractable.jpg","","1","13786"
"6","6","demographics_block","raceoption4","2","Umbrella_Retractable.jpg","","1","13786"
"6","6","demographics_block","raceoption5","2","Umbrella_Retractable.jpg","","1","13786"
"6","6","demographics_block","raceoption6","2","Umbrella_Retractable.jpg","","1","13786"
"6","6","demographics_block","raceoption7","2","Umbrella_Retractable.jpg","","1","13786"
"6","6","demographics_block","raceoption8","2","Umbrella_Retractable.jpg","","1","13786"
"6","6","demographics_block","raceoption9","2","Umbrella_Retractable.jpg","","1","13786"
"6","6","demographics_block","raceother","2","Umbrella_Retractable.jpg","","1","13786"
"6","6","demographics_block","raceother","2","Umbrella_Retractable.jpg","","1","13786"
"6","6","demographics_block","english_language","2","Umbrella_Retractable.jpg","Yes","1","13786"
"6","6","demographics_block","english_languageother","2","Umbrella_Retractable.jpg","","1","13786"
"6","6","demographics_block","eyesight","3","Umbrella_Retractable.jpg","Yes","1","4916"
"6","6","demographics_block","colorblind","3","Umbrella_Retractable.jpg","No","1","4916"
"6","6","worker_id_block","worker_id_textbox","1","Umbrella_Retractable.jpg","A1LRJ4U04532TM","1","6325"
"5","5","encoding","encoding","1","ShearsGarden.jpg","36","0","937"
"5","5","encoding","encoding","2","PlantPotted.jpg","36","0","1265"
"5","5","encoding","encoding","3","Brace_Neck.jpg","36","0","1387"
"5","5","encoding","encoding","4","Bag_Grains.jpg","36","0","1097"
"5","5","encoding","encoding","5","Canister_Tea.jpg","37","0","1071"
"5","5","encoding","encoding","6","Book_Leather.jpg","37","0","1230"
"5","5","encoding","encoding","7","Earrings_Dangling.jpg","37","0","1023"
"5","5","encoding","encoding","8","Lens_Camera.jpg","37","0","1501"
"5","5","encoding","encoding","9","Bolt.jpg","37","0","930"
"5","5","encoding","encoding","10","Envelope_Letter.jpg","37","0","1421"
"5","5","encoding","encoding","11","SpiderWeb.jpg","36","0","1854"
"5","5","encoding","encoding","12","Fan_Blades.jpg","0","0","2000"
"5","5","encoding","encoding","13","Clamp_Screw.jpg","36","0","1023"
"5","5","encoding","encoding","14","Shoes_Pumps.jpg","37","0","1207"
"5","5","encoding","encoding","15","MemoPaperSpike.jpg","37","0","1264"
"5","5","encoding","encoding","16","Lock_Combination.jpg","37","0","976"
"5","5","encoding","encoding","17","Seashell_AlternateTellin.jpg","37","0","910"
"5","5","encoding","encoding","18","Elephant.jpg","36","0","798"
"5","5","encoding","encoding","19","Missile.jpg","36","0","1249"
"5","5","encoding","encoding","20","Quartz.jpg","37","0","1400"
"5","5","encoding","encoding","21","Jug_GallonWhite.jpg","36","0","1206"
"5","5","encoding","encoding","22","ToothBrush.jpg","37","0","987"
"5","5","encoding","encoding","23","PillBottle_Spilled.jpg","37","0","1075"
"5","5","encoding","encoding","24","Gun_Bazooka.jpg","36","0","927"
"5","5","encoding","encoding","25","Shoes_Snow.jpg","36","0","1060"
"5","5","encoding","encoding","26","Toy_Babydoll.jpg","37","0","1238"
"5","5","encoding","encoding","27","Gameboy.jpg","37","0","859"
"5","5","encoding","encoding","28","Garlic_Clove.jpg","37","0","912"
"5","5","encoding","encoding","29","Lacrosse_Stick.jpg","36","0","840"
"5","5","encoding","encoding","30","Bottle_Blue.jpg","37","0","897"
"5","5","encoding","encoding","31","KeyHook_Empty.jpg","36","0","1331"
"5","5","encoding","encoding","32","Ladder.jpg","36","0","747"
"5","5","encoding","encoding","33","Box_Chocolate.jpg","37","0","921"
"5","5","encoding","encoding","34","Box_FirstAidOpen.jpg","37","0","989"
"5","5","encoding","encoding","35","HoseNozzle.jpg","37","0","832"
"5","5","encoding","encoding","36","ChocolateBar_Unwrapped.jpg","37","0","849"
"5","5","encoding","encoding","37","Gun_Revolver.jpg","37","0","1025"
"5","5","encoding","encoding","38","Chime.jpg","36","0","1576"
"5","5","encoding","encoding","39","BicycleBrake.jpg","36","0","1915"
"5","5","encoding","encoding","40","Hook_Ceiling.jpg","0","0","2000"
"5","5","encoding","encoding","41","JoustingSpear.jpg","36","0","843"
"5","5","encoding","encoding","42","Bucket_Ice.jpg","37","0","1251"
"5","5","encoding","encoding","43","Tray_Medical.jpg","37","0","805"
"5","5","encoding","encoding","44","Skirt_Long.jpg","36","0","895"
"5","5","encoding","encoding","45","CartonEggs.jpg","37","0","756"
"5","5","encoding","encoding","46","Pipe_Drain.jpg","37","0","900"
"5","5","encoding","encoding","47","Thermometer_Room.jpg","37","0","827"
"5","5","encoding","encoding","48","Basket_Plastic.jpg","37","0","850"
"5","5","encoding","encoding","49","Leaf_Yellow.jpg","37","0","919"
"5","5","encoding","encoding","50","Film_Single.jpg","37","0","1181"
"5","5","encoding","encoding","51","Crutches.jpg","36","0","829"
"5","5","encoding","encoding","52","DogHouse.jpg","36","0","826"
"5","5","encoding","encoding","53","PictureFrame.jpg","37","0","1130"
"5","5","encoding","encoding","54","Mask_Buddhist.jpg","36","0","1034"
"5","5","encoding","encoding","55","LaundryHamper.jpg","36","0","996"
"5","5","encoding","encoding","56","Bottle_Plastic.jpg","37","0","1030"
"5","5","encoding","encoding","57","Ferret.jpg","37","0","1148"
"5","5","encoding","encoding","58","Bird_Tern.jpg","37","0","1030"
"5","5","encoding","encoding","59","Ball_Bowling.jpg","36","0","1349"
"5","5","encoding","encoding","60","Bucket_Champagne.jpg","36","0","1483"
"5","5","encoding","encoding","62","NailFiles.jpg","37","0","867"
"5","5","encoding","encoding","63","Car_Totalled.jpg","36","0","1155"
"5","5","encoding","encoding","64","Carrot.jpg","37","0","973"
"5","5","encoding","encoding","65","Knee.jpg","36","0","1607"
"5","5","encoding","encoding","66","Pyramid.jpg","36","0","893"
"5","5","encoding","encoding","67","SafetyPin.jpg","37","0","840"
"5","5","encoding","encoding","68","MilkPitcher.jpg","36","0","823"
"5","5","encoding","encoding","69","Man.jpg","36","0","706"
"5","5","encoding","encoding","70","FlintIgniter.jpg","37","0","805"
"5","5","encoding","encoding","71","Spatula_1.jpg","37","0","1197"
"5","5","encoding","encoding","72","Fossil.jpg","37","0","1106"
"5","5","encoding","encoding","73","Mop.jpg","36","0","1238"
"5","5","encoding","encoding","74","Condom.jpg","36","0","1323"
"5","5","encoding","encoding","75","Lighter_Yellow.jpg","37","0","980"
"5","5","encoding","encoding","76","RugRoled.jpg","36","0","1289"
"5","5","encoding","encoding","77","Mask_Gas.jpg","36","0","851"
"5","5","encoding","encoding","78","Cake_Wedding.jpg","36","0","849"
"5","5","encoding","encoding","79","Toy_Shapesorter.jpg","37","0","1438"
"5","5","encoding","encoding","80","Barbecue_Gas.jpg","36","0","870"
"5","5","encoding","encoding","81","Dice.jpg","37","0","783"
"5","5","encoding","encoding","82","Pajamas.jpg","36","0","1222"
"5","5","encoding","encoding","83","Basket_Firewood.jpg","36","0","1234"
"5","5","encoding","encoding","84","SetSquare.jpg","36","0","1775"
"5","5","encoding","encoding","85","PaperTowel_Brown.jpg","37","0","1306"
"5","5","encoding","encoding","86","Bird_CanadianGoose.jpg","36","0","1032"
"5","5","encoding","encoding","87","Flower_Hibiscus.jpg","37","0","883"
"5","5","encoding","encoding","88","Machine_Arm.jpg","36","0","901"
"5","5","encoding","encoding","89","Leek.jpg","37","0","1406"
"5","5","encoding","encoding","90","Box_Package.jpg","36","0","1591"
"5","5","encoding","encoding","91","Backhoe.jpg","36","0","947"
"5","5","encoding","encoding","92","BottleOpener.jpg","37","0","1276"
"5","5","encoding","encoding","93","Fish_Rockbass.jpg","36","0","1424"
"5","5","encoding","encoding","94","Coatrack.jpg","36","0","991"
"5","5","encoding","encoding","95","Barrel_Upright.jpg","36","0","1005"
"5","5","encoding","encoding","96","FlipFlop_SingleRed.jpg","37","0","1162"
"5","5","encoding","encoding","97","Bowl_Glass.jpg","37","0","1461"
"5","5","encoding","encoding","98","Fruit_Cactus.jpg","37","0","1124"
"5","5","encoding","encoding","99","Hat_Explorer.jpg","37","0","1352"
"5","5","encoding","encoding","100","Flowers_DryBouquet.jpg","37","0","970"
"5","5","encoding","encoding","101","Garlic_Whole.jpg","37","0","1029"
"5","5","encoding","encoding","102","ThreeHolePunch.jpg","37","0","857"
"5","5","encoding","encoding","103","SpinalCord.jpg","36","0","1612"
"5","5","encoding","encoding","104","Socks_Winter.jpg","37","0","1050"
"5","5","encoding","encoding","105","DrainPlug.jpg","37","0","1128"
"5","5","encoding","encoding","106","PizzaCutter.jpg","37","0","830"
"5","5","encoding","encoding","107","Star.jpg","36","0","1525"
"5","5","encoding","encoding","108","Bird_Falcon.jpg","36","0","976"
"5","5","encoding","encoding","109","Spoons_MeasuringAttached.jpg","37","0","1005"
"5","5","encoding","encoding","110","Spool_Thread.jpg","37","0","866"
"5","5","encoding","encoding","111","SmokeDetector.jpg","37","0","1241"
"5","5","encoding","encoding","112","Toy_ModelMolecule.jpg","36","0","1773"
"5","5","encoding","encoding","113","PylonTraffic.jpg","36","0","1640"
"5","5","encoding","encoding","114","Sword.jpg","36","0","989"
"5","5","encoding","encoding","115","Clippers_Glass.jpg","36","0","1058"
"5","5","encoding","encoding","116","Hotdog_WithBun.jpg","37","0","959"
"5","5","encoding","encoding","117","Toy_ElephantPlastic.jpg","37","0","1002"
"5","5","encoding","encoding","118","Harmonica.jpg","37","0","1100"
"5","5","encoding","encoding","119","Bomb.jpg","37","0","1139"
"5","5","encoding","encoding","120","Kazoo.jpg","37","0","891"
"5","5","encoding","encoding","121","WaterHeater.jpg","36","0","926"
"5","5","encoding","encoding","123","Jar_Cookie.jpg","36","0","1250"
"5","5","encoding","encoding","124","Soap.jpg","36","0","1138"
"5","5","encoding","encoding","125","Fireplace_Outdoor.jpg","36","0","730"
"5","5","encoding","encoding","126","Basket_Bread.jpg","36","0","773"
"5","5","encoding","encoding","127","TeethModel.jpg","37","0","1026"
"5","5","encoding","encoding","128","Castle_Sand.jpg","36","0","1961"
"5","5","encoding","encoding","129","Chicken_Raw.jpg","36","0","1708"
"5","5","encoding","encoding","130","PillBottle_Closed.jpg","37","0","1196"
"5","5","encoding","encoding","131","Statue_Head.jpg","36","0","1193"
"5","5","encoding","encoding","132","Key_Car.jpg","37","0","1141"
"5","5","encoding","encoding","133","WashRack.jpg","36","0","1805"
"5","5","encoding","encoding","134","Nutcracker.jpg","37","0","1102"
"5","5","encoding","encoding","135","Jar_Honey.jpg","37","0","964"
"5","5","encoding","encoding","136","HandMixer.jpg","37","0","1424"
"5","5","encoding","encoding","137","Cable_JumpStart.jpg","37","0","1326"
"5","5","encoding","encoding","138","Toy_DonkeyPlastic.jpg","36","0","1324"
"5","5","encoding","encoding","139","Kangaroo_WithJoey.jpg","36","0","826"
"5","5","encoding","encoding","140","Can_OilSpout.jpg","37","0","1225"
"5","5","encoding","encoding","141","Toy_BlocksMultiShape.jpg","37","0","1068"
"5","5","encoding","encoding","142","Bowl_Pasta.jpg","37","0","940"
"5","5","encoding","encoding","143","NailClipper.jpg","37","0","1244"
"5","5","encoding","encoding","144","Lens_ColourFilter.jpg","37","0","1703"
"5","5","encoding","encoding","145","DryRack_Clothes.jpg","36","0","1887"
"5","5","encoding","encoding","146","GranolaBar.jpg","37","0","1053"
"5","5","encoding","encoding","147","Keychain_Metal.jpg","37","0","959"
"5","5","encoding","encoding","148","Toy_Slinky.jpg","37","0","869"
"5","5","encoding","encoding","149","MixingGlass.jpg","37","0","1095"
"5","5","encoding","encoding","150","Bagel.jpg","37","0","829"
"5","5","encoding","encoding","151","Car_Vintage.jpg","36","0","1023"
"5","5","encoding","encoding","152","Stool_Metal.jpg","36","0","1118"
"5","5","encoding","encoding","153","Dog_ChowChow.jpg","36","0","1120"
"5","5","encoding","encoding","154","Fan_Ceiling.jpg","36","0","1023"
"5","5","encoding","encoding","155","Bib.jpg","37","0","1140"
"5","5","encoding","encoding","156","Eraser.jpg","37","0","1305"
"5","5","encoding","encoding","157","Decoration_ChristmasWhite.jpg","37","0","1453"
"5","5","encoding","encoding","158","Camera_Security.jpg","36","0","1362"
"5","5","encoding","encoding","159","Mask_VenetianCat.jpg","37","0","1349"
"5","5","encoding","encoding","160","Swan.jpg","36","0","1147"
"5","5","encoding","encoding","161","PaintSprayer.jpg","36","0","1235"
"5","5","encoding","encoding","162","Kettle.jpg","36","0","1184"
"5","5","encoding","encoding","163","Golf_Bag.jpg","36","0","1022"
"5","5","encoding","encoding","164","Lemon.jpg","37","0","1068"
"5","5","encoding","encoding","165","Glove_Baseball.jpg","37","0","907"
"5","5","encoding","encoding","166","ToothPaste.jpg","37","0","1030"
"5","5","encoding","encoding","167","Coral.jpg","36","0","1331"
"5","5","encoding","encoding","168","Lollipop_Grape.jpg","37","0","1097"
"5","5","encoding","encoding","169","Perfume.jpg","37","0","774"
"5","5","encoding","encoding","170","Cheeseburger.jpg","37","0","1285"
"5","5","encoding","encoding","171","Sheep.jpg","36","0","935"
"5","5","encoding","encoding","172","Cactus.jpg","36","0","1150"
"5","5","encoding","encoding","173","Sign_SlipperyRoad.jpg","36","0","871"
"5","5","encoding","encoding","174","Sink_Bathroom.jpg","36","0","885"
"5","5","encoding","encoding","175","Bus_School.jpg","36","0","765"
"5","5","encoding","encoding","176","Butterfly.jpg","37","0","1046"
"5","5","encoding","encoding","177","Blueprints.jpg","36","0","1294"
"5","5","retrieval","old_objects","1","Camera_Security.jpg","36","1","1264"
"5","5","retrieval","new_objects","2","Truck_Army.jpg","37","1","911"
"5","5","retrieval","old_objects","3","Socks_Winter.jpg","36","1","1181"
"5","5","retrieval","new_objects","4","Toy_Motorcycle.jpg","37","1","959"
"5","5","retrieval","old_objects","5","Garlic_Whole.jpg","36","1","1018"
"5","5","retrieval","old_objects","6","Gameboy.jpg","36","1","892"
"5","5","retrieval","new_objects","7","Booth_Carnival.jpg","37","1","953"
"5","5","retrieval","old_objects","8","Key_Car.jpg","36","1","1049"
"5","5","retrieval","new_objects","9","Bag_Satchel.jpg","37","1","1096"
"5","5","retrieval","new_objects","10","Box_GiftTopView.jpg","37","1","1003"
"5","5","retrieval","old_objects","11","Shoes_Pumps.jpg","36","1","1058"
"5","5","retrieval","new_objects","12","Glasses_Reading.jpg","37","1","1057"
"5","5","retrieval","new_objects","13","SaltShaker.jpg","37","1","1052"
"5","5","retrieval","new_objects","14","Toy_PandaPlushie.jpg","37","1","1073"
"5","5","retrieval","old_objects","15","PizzaCutter.jpg","36","1","972"
"5","5","retrieval","new_objects","16","Honeycomb.jpg","36","0","922"
"5","5","retrieval","new_objects","17","Helicopter.jpg","37","1","1025"
"5","5","retrieval","old_objects","18","Leaf_Yellow.jpg","36","1","1913"
"5","5","retrieval","old_objects","19","Quartz.jpg","36","1","923"
"5","5","retrieval","new_objects","20","Mat_Car.jpg","37","1","996"
"5","5","retrieval","new_objects","21","House_Wooden.jpg","37","1","1388"
"5","5","retrieval","old_objects","22","SafetyPin.jpg","36","1","1009"
"5","5","retrieval","new_objects","23","Hawk.jpg","36","0","1114"
"5","5","retrieval","new_objects","24","Candy_Cane.jpg","37","1","1313"
"5","5","retrieval","new_objects","25","Dress_Party.jpg","37","1","1438"
"5","5","retrieval","new_objects","26","OvenElement.jpg","37","1","949"
"5","5","retrieval","new_objects","27","Brace_Leg.jpg","37","1","1392"
"5","5","retrieval","new_objects","28","WaterCooler.jpg","36","0","1268"
"5","5","retrieval","new_objects","29","Van.jpg","0","0","2000"
"5","5","retrieval","new_objects","30","Giraffe.jpg","37","1","949"
"5","5","retrieval","old_objects","31","Cable_JumpStart.jpg","36","1","906"
"5","5","retrieval","new_objects","32","DVDPlayer.jpg","37","1","1311"
"5","5","retrieval","old_objects","33","Clippers_Glass.jpg","36","1","1196"
"5","5","retrieval","new_objects","34","Scoop_IceCream.jpg","37","1","1407"
"5","5","retrieval","new_objects","35","Garbage_Can.jpg","37","1","1298"
"5","5","retrieval","old_objects","36","Box_Chocolate.jpg","36","1","1013"
"5","5","retrieval","old_objects","37","Toy_DonkeyPlastic.jpg","36","1","897"
"5","5","retrieval","new_objects","38","Squash_Butternut.jpg","37","1","1104"
"5","5","retrieval","old_objects","39","Perfume.jpg","36","1","919"
"5","5","retrieval","old_objects","40","Ferret.jpg","36","1","1004"
"5","5","retrieval","old_objects","41","Toy_BlocksMultiShape.jpg","36","1","900"
"5","5","retrieval","new_objects","42","Shrub_Cedar.jpg","37","1","1136"
"5","5","retrieval","new_objects","43","Table_AntiqueWooden.jpg","37","1","979"
"5","5","retrieval","old_objects","44","Car_Vintage.jpg","36","1","925"
"5","5","retrieval","new_objects","45","Hammer_Reflex.jpg","37","1","1169"
"5","5","retrieval","old_objects","46","Spatula_1.jpg","36","1","1073"
"5","5","retrieval","old_objects","47","SpinalCord.jpg","37","0","1157"
"5","5","retrieval","new_objects","48","Colosseum.jpg","37","1","1065"
"5","5","retrieval","old_objects","49","Man.jpg","36","1","800"
"5","5","retrieval","old_objects","50","DryRack_Clothes.jpg","36","1","840"
"5","5","retrieval","old_objects","51","Dog_ChowChow.jpg","36","1","936"
"5","5","retrieval","old_objects","52","Bagel.jpg","36","1","808"
"5","5","retrieval","old_objects","53","Thermometer_Room.jpg","36","1","867"
"5","5","retrieval","new_objects","54","Maraca.jpg","37","1","1062"
"5","5","retrieval","new_objects","55","Toy_BeadMaze.jpg","37","1","1092"
"5","5","retrieval","old_objects","56","Hotdog_WithBun.jpg","36","1","912"
"5","5","retrieval","old_objects","57","DrainPlug.jpg","36","1","952"
"5","5","retrieval","new_objects","58","Toolbox_BlackOpen.jpg","36","0","1064"
"5","5","retrieval","new_objects","59","Corn_Kernels.jpg","37","1","1090"
"5","5","retrieval","old_objects","60","NailFiles.jpg","37","0","1373"
"5","5","retrieval","old_objects","62","WashRack.jpg","36","1","785"
"5","5","retrieval","old_objects","63","Fan_Blades.jpg","36","1","783"
"5","5","retrieval","new_objects","64","AlcoholBar.jpg","37","1","760"
"5","5","retrieval","old_objects","65","Shoes_Snow.jpg","36","1","834"
"5","5","retrieval","new_objects","66","Bird_Parrot.jpg","37","1","1063"
"5","5","retrieval","new_objects","67","Jack.jpg","37","1","911"
"5","5","retrieval","new_objects","68","Briefcase_Leather.jpg","37","1","826"
"5","5","retrieval","old_objects","69","PictureFrame.jpg","36","1","817"
"5","5","retrieval","old_objects","70","Toy_Babydoll.jpg","36","1","806"
"5","5","retrieval","old_objects","71","PlantPotted.jpg","36","1","910"
"5","5","retrieval","old_objects","72","Book_Leather.jpg","36","1","874"
"5","5","retrieval","new_objects","73","Altar.jpg","37","1","867"
"5","5","retrieval","old_objects","74","Dice.jpg","36","1","981"
"5","5","retrieval","new_objects","75","EyeChart.jpg","37","1","1189"
"5","5","retrieval","old_objects","76","Toy_Slinky.jpg","36","1","805"
"5","5","retrieval","old_objects","77","Ball_Bowling.jpg","36","1","886"
"5","5","retrieval","new_objects","78","Hammock.jpg","37","1","1087"
"5","5","retrieval","new_objects","79","Drum_Brazilan.jpg","36","0","1083"
"5","5","retrieval","new_objects","80","Projector_Film.jpg","37","1","941"
"5","5","retrieval","new_objects","81","Branches_Campfire.jpg","37","1","867"
"5","5","retrieval","new_objects","82","HairScrunchie.jpg","37","1","1006"
"5","5","retrieval","old_objects","83","Butterfly.jpg","36","1","972"
"5","5","retrieval","old_objects","84","BottleOpener.jpg","36","1","828"
"5","5","retrieval","new_objects","85","Blade_Tablesaw.jpg","37","1","1042"
