"","participant","batch","trialnum","stimulus","old_object_condition","response","correct","latency","condition"
"1",1,1,1,"MouthGuard.jpg","3","new",0,709,"random"
"2",1,1,3,"Mango.jpg","1","old",1,576,"random"
"3",1,1,6,"Toy_Shapesorter.jpg","1","new",0,692,"random"
"4",1,1,7,"PaintRollTray.jpg","3","old",1,662,"random"
"5",1,1,8,"Hawk.jpg",".","old",0,514,"random"
"6",1,1,11,"CuttingBoard.jpg",".","new",1,807,"random"
"7",1,1,12,"RibbonSpool.jpg",".","new",1,720,"random"
"8",1,1,13,"Jar_JellyBeans.jpg","3","new",0,910,"random"
"9",1,1,14,"Candy_Heart.jpg","3","new",0,680,"random"
"10",1,1,15,"Fish_Rockbass.jpg","1","old",1,1401,"random"
"11",1,1,16,"Shield_Antique.jpg",".","new",1,583,"random"
"12",1,1,17,"Pot_Cooking.jpg",".","new",1,768,"random"
"13",1,1,18,"SmokeDetector.jpg","1","new",0,646,"random"
"14",1,1,19,"Bottle_Blue.jpg","3","new",0,487,"random"
"15",1,1,20,"Keg.jpg","1","new",0,881,"random"
"16",1,1,21,"Car_Sedan.jpg","3","new",0,1234,"random"
"17",1,1,22,"BoogieBoard.jpg",".","new",1,504,"random"
"18",1,1,23,"Pasta_Spaghetti.jpg",".","new",1,1217,"random"
"19",1,1,24,"Saw.jpg","1","old",1,1207,"random"
"20",1,1,26,"Chair_BeanBag.jpg","3","new",0,914,"random"
"21",1,1,27,"BicycleOdometer.jpg",".","0",0,1500,"random"
"22",1,1,30,"Chopsticks.jpg",".","new",1,572,"random"
"23",1,1,31,"Beater_Electric.jpg","3","new",0,578,"random"
"24",1,1,32,"Dress_Party.jpg","1","new",0,795,"random"
"25",1,1,33,"DentistOverheadLight.jpg","1","new",0,597,"random"
"26",1,1,34,"ButterDish.jpg","1","new",0,670,"random"
"27",1,1,35,"PaintBrushAndPallette.jpg","3","old",1,776,"random"
"28",1,1,36,"PaintRoller.jpg",".","new",1,853,"random"
"29",1,1,39,"Teabag.jpg","3","old",1,710,"random"
"30",1,1,40,"Toy_PoliceCar.jpg",".","new",1,763,"random"
"31",1,1,42,"Candy_Chocolate.jpg","1","new",0,634,"random"
"32",1,1,44,"BusStop.jpg","1","new",0,517,"random"
"33",1,1,46,"Broom_Long.jpg",".","new",1,668,"random"
"34",1,1,49,"TinChristmas.jpg","1","new",0,1165,"random"
"35",1,1,50,"Autocreeper.jpg","1","new",0,990,"random"
"36",1,1,51,"Pants_Jeans.jpg","1","new",0,1231,"random"
"37",1,1,52,"GPS.jpg","3","new",0,737,"random"
"38",1,1,54,"Toolbox_RedOpen.jpg",".","new",1,352,"random"
"39",1,1,55,"Mitt_Oven.jpg","1","new",0,462,"random"
"40",1,1,56,"Toy_Moose.jpg","3","new",0,1031,"random"
"41",1,1,57,"Tire_Hollow.jpg",".","new",1,565,"random"
"42",1,1,58,"Stove_Camping.jpg","3","new",0,450,"random"
"43",1,1,59,"CookieCutter_Bell.jpg","1","new",0,516,"random"
"44",1,1,62,"DoorBell.jpg","1","new",0,616,"random"
"45",1,1,63,"Crib_Basket.jpg",".","new",1,446,"random"
"46",1,1,67,"Trophy.jpg","3","new",0,1086,"random"
"47",1,1,68,"Drum_Brazilan.jpg",".","new",1,660,"random"
"48",1,1,69,"SculptureMetalFish.jpg","1","new",0,728,"random"
"49",1,1,70,"Almond.jpg","1","new",0,938,"random"
"50",1,1,72,"Wheel_Steering.jpg",".","new",1,473,"random"
"51",1,1,74,"MonkeyPuppet.jpg","3","new",0,592,"random"
"52",1,1,75,"FireExtinguisher.jpg","1","new",0,698,"random"
"53",1,1,76,"Cross.jpg",".","old",0,703,"random"
"54",1,1,77,"Flower_Hibiscus.jpg",".","old",0,473,"random"
"55",1,1,78,"Pig.jpg",".","new",1,722,"random"
"56",1,1,80,"LeatherPuncherTool.jpg","3","new",0,641,"random"
"57",1,1,81,"Sign_Parking.jpg","3","new",0,979,"random"
"58",1,1,83,"Carbiner_Ascender.jpg",".","new",1,570,"random"
"59",1,1,84,"Bowl_Chinese.jpg","3","new",0,695,"random"
"60",1,1,85,"Cabinet_Office.jpg",".","old",0,533,"random"
"61",1,1,89,"DoorKnob.jpg","3","new",0,663,"random"
"62",1,1,90,"Pipe_Drain.jpg","1","new",0,761,"random"
"63",1,1,91,"Chipmunk.jpg",".","new",1,462,"random"
"64",1,1,92,"HairDryer.jpg","1","new",0,684,"random"
"65",1,1,93,"Chest.jpg","1","new",0,765,"random"
"66",1,1,94,"SundaeBanana.jpg",".","new",1,715,"random"
"67",1,1,95,"Table_Poker.jpg","1","new",0,760,"random"
"68",1,1,96,"WindowBlinds.jpg","3","new",0,594,"random"
"69",1,1,97,"Toy_Witch.jpg","3","new",0,516,"random"
"70",1,1,98,"Pineapple.jpg","3","old",1,1021,"random"
"71",1,1,100,"Thermostat_Digital.jpg","1","new",0,695,"random"
"72",1,1,101,"BottleOpener.jpg","1","new",0,761,"random"
"73",1,1,102,"CandyDispenser.jpg","1","new",0,786,"random"
"74",1,1,103,"Bird_Cardinal.jpg","3","new",0,916,"random"
"75",1,1,104,"Gorilla.jpg",".","new",1,417,"random"
"76",1,1,105,"GranolaBar.jpg",".","new",1,835,"random"
"77",1,1,106,"Phone_Wireless.jpg","3","old",1,1240,"random"
"78",1,1,107,"SmokingPipe.jpg",".","old",0,446,"random"
"79",1,1,108,"Flamingo_Cartoon.jpg","1","new",0,1147,"random"
"80",1,1,109,"Cassette_Audio.jpg","3","new",0,1149,"random"
"81",1,1,110,"Telescope.jpg",".","old",0,354,"random"
"82",1,1,111,"Flower_Orchid.jpg",".","new",1,380,"random"
"83",1,1,112,"DogTreat.jpg","1","new",0,1290,"random"
"84",1,1,113,"IceCrusher.jpg","3","new",0,771,"random"
"85",1,1,114,"Toy_Lighthouse.jpg",".","new",1,353,"random"
"86",1,1,116,"Lollipop_Grape.jpg","1","new",0,968,"random"
"87",1,1,117,"Cake_Wedding.jpg","1","new",0,785,"random"
"88",1,1,118,"MonaLisa.jpg","1","old",1,859,"random"
"89",1,1,120,"Speaker_OnStand.jpg","3","new",0,998,"random"
"90",1,1,121,"Box_Present.jpg",".","new",1,403,"random"
"91",1,1,122,"Tweezers.jpg",".","old",0,605,"random"
"92",1,1,125,"Generator.jpg","3","new",0,774,"random"
"93",1,1,126,"FlipFlop_PairBlue.jpg",".","old",0,403,"random"
"94",1,1,127,"Flute_Wooden.jpg","1","old",1,1065,"random"
"95",1,1,128,"Shoe_Pink.jpg",".","new",1,582,"random"
"96",1,1,129,"Hockey_Equipment.jpg",".","new",1,912,"random"
"97",1,1,130,"Hourglass.jpg","3","new",0,909,"random"
"98",1,1,131,"PotatoMasher_Zigzag.jpg","3","new",0,1286,"random"
"99",1,1,133,"Tofu.jpg",".","new",1,584,"random"
"100",1,1,134,"Clip_Paper.jpg","3","new",0,1069,"random"
"101",1,1,135,"Balalaika.jpg","3","new",0,791,"random"
"102",1,1,137,"BicycleBrake.jpg","1","new",0,586,"random"
"103",1,1,138,"Bellows.jpg","3","new",0,555,"random"
"104",1,1,139,"Sushi.jpg","1","new",0,701,"random"
"105",1,1,140,"DryRack_Dishes.jpg","3","new",0,503,"random"
"106",1,1,142,"Knife_Hunting.jpg","3","new",0,578,"random"
"107",1,1,143,"BicycleHandleGrip.jpg","1","old",1,1403,"random"
"108",1,1,144,"Guitarcase.jpg","3","old",1,1525,"random"
"109",1,1,145,"Lilypad.jpg","3","old",1,1606,"random"
"110",1,1,146,"Outhouse.jpg",".","old",0,428,"random"
"111",1,1,147,"Sign_TrafficArrow.jpg",".","new",1,645,"random"
"112",1,1,149,"BicyclePedal.jpg","3","new",0,588,"random"
"113",1,1,150,"Bathtub.jpg","1","new",0,958,"random"
"114",1,1,151,"Trumpet.jpg","3","new",0,599,"random"
"115",1,1,152,"Caterpillar.jpg",".","new",1,532,"random"
"116",1,1,153,"Toy_StackingRing.jpg","3","new",0,570,"random"
"117",1,1,154,"Nyala.jpg","3","old",1,1243,"random"
"118",1,1,156,"Bottle_Wine.jpg","1","new",0,1190,"random"
"119",1,1,157,"SafetyPin.jpg",".","old",0,452,"random"
"120",1,1,158,"BicycleGear.jpg",".","old",0,349,"random"
"121",1,1,159,"Candle_Blue.jpg","1","old",1,995,"random"
"122",1,1,160,"Brooch_Fish.jpg",".","old",0,760,"random"
"123",1,1,161,"Brace_Back.jpg",".","new",1,586,"random"
"124",1,1,162,"Switch_LightWhite.jpg",".","new",1,1083,"random"
"125",1,1,163,"WashRack.jpg","1","new",0,1401,"random"
"126",1,1,164,"Hook_Fish.jpg","3","new",0,1691,"random"
"127",1,1,165,"Chinchilla.jpg",".","old",0,1232,"random"
"128",1,1,166,"Pipe.jpg",".","new",1,1290,"random"
"129",1,1,167,"Drink_Green.jpg","3","old",1,1343,"random"
"130",1,1,168,"Ball_8.jpg",".","old",0,549,"random"
"131",1,1,169,"Mat_Door.jpg","3","new",0,746,"random"
"132",1,1,170,"Statue_SouthAmerican.jpg",".","old",0,368,"random"
"133",1,1,171,"CookieCutter_Tree.jpg",".","new",1,369,"random"
"134",1,1,172,"Cherry.jpg","3","old",1,1543,"random"
"135",1,1,175,"ChessPiece_Knight.jpg",".","old",0,320,"random"
"136",1,1,176,"PaperStack.jpg",".","old",0,673,"random"
"137",1,1,177,"BloodpPresureCuff.jpg",".","old",0,619,"random"
"138",1,1,178,"StringBean.jpg","3","old",1,952,"random"
"139",1,1,179,"Waffle.jpg",".","new",1,533,"random"
"140",1,1,180,"NailPolish.jpg","3","new",0,706,"random"
"141",1,1,181,"Chest_Toys.jpg","3","new",0,868,"random"
"142",1,1,182,"NintendoWii.jpg","3","new",0,613,"random"
"143",1,1,183,"Currants.jpg",".","new",1,419,"random"
"144",1,1,185,"Megaphone.jpg","3","new",0,986,"random"
"145",1,1,186,"Skates.jpg","3","new",0,1019,"random"
"146",1,1,187,"Goose_Canadian.jpg","3","old",1,933,"random"
"147",1,1,190,"Gun_Glue.jpg",".","old",0,310,"random"
"148",1,1,191,"Clock_Radio.jpg",".","new",1,551,"random"
"149",1,1,192,"Apple_RedAndGreen.jpg","1","old",1,925,"random"
"150",1,1,196,"Pitcher.jpg","1","old",1,643,"random"
"151",1,1,197,"OnionRed.jpg",".","new",1,776,"random"
"152",1,1,199,"Bomb.jpg",".","old",0,1001,"random"
"153",1,1,200,"Cup_Styrofoam.jpg","3","new",0,750,"random"
"154",1,1,203,"PassionFruit.jpg","3","old",1,1131,"random"
"155",1,1,204,"ShearsGarden.jpg",".","old",0,305,"random"
"156",1,1,205,"Hazelnut.jpg",".","old",0,538,"random"
"157",1,1,206,"Knee.jpg","3","old",1,1000,"random"
"158",1,1,207,"Shoes_DutchClogs.jpg","1","new",0,649,"random"
"159",1,1,209,"Jug_Milk.jpg",".","old",0,712,"random"
"160",1,1,210,"Toy_BlocksPlastic Colourful.jpg","1","new",0,669,"random"
"161",1,1,211,"CameoPortrait.jpg","1","old",1,798,"random"
"162",1,1,212,"Mattress.jpg","3","new",0,680,"random"
"163",1,1,213,"Desk_School.jpg","3","old",1,761,"random"
"164",1,1,214,"PedestalGreek.jpg",".","old",0,431,"random"
"165",1,1,215,"Fruit_Cactus.jpg","1","old",1,1605,"random"
"166",1,1,216,"SaxophoneSoprano.jpg",".","old",0,666,"random"
"167",1,1,217,"ToothPaste.jpg",".","new",1,388,"random"
"168",1,1,218,"Bullet.jpg","3","old",1,1481,"random"
"169",1,1,219,"Sink_Bathroom.jpg",".","new",1,687,"random"
"170",1,1,220,"Sign_Wetfloor.jpg","3","new",0,844,"random"
"171",1,1,222,"Mop.jpg","1","new",0,783,"random"
"172",1,1,224,"Boardgame_Checkers.jpg",".","new",1,822,"random"
"173",1,1,225,"Tortilla.jpg","3","new",0,1100,"random"
"174",1,1,226,"JukeboxAntique.jpg","3","new",0,510,"random"
"175",1,1,227,"Chair_MedicalToilet.jpg","1","old",1,799,"random"
"176",1,1,230,"Toy_DollOffice.jpg",".","old",0,904,"random"
"177",1,1,231,"Light_Siren.jpg","1","new",0,733,"random"
"178",1,1,234,"Fortress.jpg","1","old",1,786,"random"
"179",1,1,235,"Toy_GasPump.jpg","3","new",0,795,"random"
"180",1,1,236,"Bindings_Snowboard.jpg",".","new",1,641,"random"
"181",1,1,237,"Ashtray_Empty.jpg","3","old",1,1214,"random"
"182",1,1,238,"BadgeSpecialAgent.jpg","3","new",0,992,"random"
"183",1,1,239,"Hippopotamus.jpg","3","old",1,873,"random"
"184",1,1,240,"Paddle_Beach.jpg",".","old",0,311,"random"
"185",1,1,242,"Arch.jpg",".","new",1,889,"random"
"186",1,1,243,"Mask_Happy.jpg","1","new",0,1007,"random"
"187",1,1,244,"GasBurner.jpg","1","new",0,1480,"random"
"188",1,1,245,"Dolphine.jpg",".","old",0,942,"random"
"189",1,1,246,"Glass_Martini.jpg",".","old",0,351,"random"
"190",1,1,247,"Oyster.jpg","3","old",1,621,"random"
"191",1,1,249,"Spoon_Wooden.jpg","3","old",1,760,"random"
"192",1,1,250,"Spatula_1.jpg",".","new",1,717,"random"
"193",1,1,251,"Tickets_Blank.jpg","3","new",0,1019,"random"
"194",1,1,252,"TartStrawberry.jpg","3","new",0,765,"random"
"195",1,1,253,"Syrup_Maple.jpg",".","new",1,418,"random"
"196",1,1,254,"Helmet_Construction.jpg","1","new",0,784,"random"
"197",1,1,255,"Helmet_Soldier.jpg","1","old",1,641,"random"
"198",1,1,258,"Colander.jpg","1","old",1,1086,"random"
"199",1,1,261,"Peppermill.jpg","1","old",1,1122,"random"
"200",1,1,262,"Steeple.jpg","3","old",1,652,"random"
"201",1,1,263,"MixingGlass.jpg","1","old",1,757,"random"
"202",1,1,265,"Lighter_Yellow.jpg",".","0",0,1500,"random"
"203",1,1,266,"Hottub.jpg",".","0",0,1500,"random"
"204",1,1,269,"Beaker.jpg",".","0",0,1500,"random"
"205",1,1,272,"CrepeMaker.jpg",".","new",1,629,"random"
"206",1,1,273,"Toy_BearBlackPlastic.jpg",".","old",0,646,"random"
"207",1,1,275,"Lock_Combination.jpg","1","new",0,533,"random"
"208",1,1,276,"Toys_Lego.jpg","1","new",0,623,"random"
"209",1,1,277,"Tripod.jpg","1","new",0,552,"random"
"210",1,1,278,"Box_Jewellery.jpg","1","old",1,1193,"random"
"211",1,1,279,"Baster.jpg",".","new",1,311,"random"
"212",1,1,280,"Toy_RockingHorseBlack.jpg","1","new",0,884,"random"
"213",1,1,281,"LampPost_OneBulb.jpg",".","new",1,322,"random"
"214",1,1,282,"RemoteControl.jpg","3","new",0,663,"random"
"215",1,1,283,"Microphone.jpg",".","new",1,1045,"random"
"216",1,1,284,"Truck_Dump.jpg",".","new",1,774,"random"
"217",1,1,285,"Shampoo.jpg","3","new",0,876,"random"
"218",1,1,286,"Cabinet_Display.jpg",".","new",1,665,"random"
"219",1,1,287,"ShoulderPads.jpg","1","old",1,863,"random"
"220",1,1,289,"Hammer_Reflex.jpg","1","new",0,538,"random"
"221",1,1,290,"PuppetTheatre_WhiteGold.jpg","3","old",1,1660,"random"
"222",1,1,291,"Guitar_Acoustic.jpg","1","new",0,589,"random"
"223",1,1,292,"ReindeerHeadband.jpg",".","new",1,499,"random"
"224",1,1,293,"fries.jpg","1","new",0,1112,"random"
"225",1,1,294,"Fuse.jpg","3","old",1,1050,"random"
"226",1,1,295,"Cantaloupe.jpg","1","old",1,835,"random"
"227",1,1,297,"AmpMeter.jpg","3","new",0,1062,"random"
"228",1,1,298,"FlashlightHeadBand.jpg","1","new",0,1000,"random"
"229",1,1,299,"Pen_Ballpoint.jpg",".","old",0,605,"random"
"230",1,1,300,"TurkeyDinner.jpg",".","new",1,1063,"random"
"231",1,1,301,"TeethMould.jpg","3","old",1,1132,"random"
"232",1,1,302,"Leaf_Clover.jpg","1","new",0,1150,"random"
"233",1,1,303,"Exercise_Stretch.jpg","1","new",0,592,"random"
"234",1,1,304,"Lantern_TeaBox.jpg","1","old",1,721,"random"
"235",1,1,306,"Paratrooper.jpg","3","new",0,596,"random"
"236",1,1,307,"SkullDeer.jpg",".","old",0,602,"random"
"237",1,1,308,"Loofa.jpg",".","new",1,578,"random"
"238",1,1,309,"Bottle_Specimen.jpg",".","new",1,541,"random"
"239",1,1,310,"DrinkingFountain.jpg","1","new",0,578,"random"
"240",1,1,311,"Wheelbarrow_Green.jpg","1","new",0,547,"random"
"241",1,1,313,"Notebook.jpg","1","old",1,1334,"random"
"242",1,1,314,"Exercise_Machine.jpg",".","new",1,499,"random"
"243",1,1,315,"Socks_Winter.jpg",".","old",0,309,"random"
"244",1,1,316,"Glove_Rubber.jpg","3","new",0,803,"random"
"245",1,1,318,"NeedlesAcupuncture.jpg","3","new",0,1190,"random"
"246",1,1,319,"SkiPoles.jpg",".","new",1,387,"random"
"247",1,1,321,"CartonEggs.jpg",".","new",1,806,"random"
"248",1,1,322,"Golf_Bag.jpg","1","new",0,908,"random"
"249",1,1,324,"WireStripper.jpg","1","new",0,607,"random"
"250",1,1,325,"Mug_Beer.jpg","1","old",1,1504,"random"
"251",2,1,1,"MouthGuard.jpg","3","old",1,545,"random"
"252",2,1,5,"Jar_JellyBeans.jpg","3","new",0,341,"random"
"253",2,1,7,"Fridge.jpg",".","0",0,1500,"random"
"254",2,1,8,"Case_DVD.jpg",".","new",1,769,"random"
"255",2,1,9,"Toy_DollOffice.jpg",".","new",1,387,"random"
"256",2,1,12,"Dolphine.jpg",".","0",0,1500,"random"
"257",2,1,13,"Bottle_Blue.jpg","3","new",0,1061,"random"
"258",2,1,15,"Socks_Winter.jpg",".","new",1,1145,"random"
"259",2,1,18,"SkullDeer.jpg",".","0",0,1500,"random"
"260",2,1,19,"Drum_Brazilan.jpg",".","0",0,1500,"random"
"261",2,1,20,"Chair_BeanBag.jpg","3","new",0,705,"random"
"262",2,1,25,"ButterDish.jpg","1","new",0,701,"random"
"263",2,1,26,"Pen_Ballpoint.jpg",".","new",1,357,"random"
"264",2,1,27,"RibbonSpool.jpg",".","0",0,1500,"random"
"265",2,1,28,"CrepeMaker.jpg",".","0",0,1500,"random"
"266",2,1,29,"SmokingPipe.jpg",".","new",1,973,"random"
"267",2,1,30,"PaintBrushAndPallette.jpg","3","new",0,1885,"random"
"268",2,1,32,"BloodpPresureCuff.jpg",".","new",1,340,"random"
"269",2,1,35,"BusStop.jpg","1","new",0,1755,"random"
"270",2,1,38,"Autocreeper.jpg","1","new",0,1921,"random"
"271",2,1,42,"Paddle_Beach.jpg",".","new",1,520,"random"
"272",2,1,48,"Crib_Basket.jpg",".","0",0,1500,"random"
"273",2,1,49,"DoorBell.jpg","1","new",0,1731,"random"
"274",2,1,52,"ChessPiece_Knight.jpg",".","new",1,976,"random"
"275",2,1,53,"Shield_Antique.jpg",".","0",0,1500,"random"
"276",2,1,56,"ContactLens.jpg",".","new",1,1362,"random"
"277",2,1,57,"Bugle.jpg",".","new",1,1041,"random"
"278",2,1,58,"FireExtinguisher.jpg","1","new",0,632,"random"
"279",2,1,59,"LeatherPuncherTool.jpg","3","new",0,1961,"random"
"280",2,1,63,"Pipe_Drain.jpg","1","new",0,929,"random"
"281",2,1,64,"Tofu.jpg",".","0",0,1500,"random"
"282",2,1,65,"Hat_Baseball.jpg",".","0",0,1500,"random"
"283",2,1,68,"Toy_SeeSaw.jpg",".","new",1,398,"random"
"284",2,1,69,"DrillBit.jpg",".","old",0,700,"random"
"285",2,1,70,"Can_OilSpout.jpg",".","0",0,1500,"random"
"286",2,1,71,"Flower_Hibiscus.jpg",".","0",0,1500,"random"
"287",2,1,79,"KitchenTools.jpg",".","0",0,1500,"random"
"288",2,1,80,"Knife_Butter.jpg",".","0",0,1500,"random"
"289",2,1,81,"SkiPoles.jpg",".","0",0,1500,"random"
"290",2,1,87,"Pickaxe.jpg",".","0",0,1500,"random"
"291",2,1,88,"Bomb.jpg",".","0",0,1500,"random"
"292",2,1,91,"Wheel_Steering.jpg",".","0",0,1500,"random"
"293",2,1,92,"Ball_8.jpg",".","0",0,1500,"random"
"294",2,1,95,"CookieCutter_Tree.jpg",".","0",0,1500,"random"
"295",2,1,96,"BoogieBoard.jpg",".","0",0,1500,"random"
"296",2,1,98,"SafetyPin.jpg",".","0",0,1500,"random"
"297",2,1,99,"Fencing_HelmetSwords.jpg",".","0",0,1500,"random"
"298",2,1,100,"Box_FirstAidOpen.jpg",".","0",0,1500,"random"
"299",2,1,101,"Boots_KneeHigh.jpg",".","0",0,1500,"random"
"300",2,1,102,"House_Rural.jpg",".","0",0,1500,"random"
"301",2,1,109,"Telescope.jpg",".","0",0,1500,"random"
"302",2,1,110,"Toy_TableSet.jpg",".","0",0,1500,"random"
"303",2,1,111,"Hottub.jpg",".","0",0,1500,"random"
"304",2,1,112,"Statue_SouthAmerican.jpg",".","0",0,1500,"random"
"305",2,1,113,"Microphone.jpg",".","0",0,1500,"random"
"306",2,1,115,"Carbiner_Ascender.jpg",".","0",0,1500,"random"
"307",2,1,117,"Tribunal_Wooden.jpg",".","0",0,1500,"random"
"308",2,1,118,"Decoration_WallOrnament.jpg",".","0",0,1500,"random"
"309",2,1,120,"Comb.jpg",".","0",0,1500,"random"
"310",2,1,121,"CoffeeGrinder.jpg",".","0",0,1500,"random"
"311",2,1,125,"SundaeBanana.jpg",".","0",0,1500,"random"
"312",2,1,126,"Tape_Washi.jpg",".","0",0,1500,"random"
"313",2,1,127,"FlipFlop_PairBlue.jpg",".","0",0,1500,"random"
"314",2,1,129,"Glass_Cup.jpg",".","0",0,1500,"random"
"315",2,1,130,"PanCooking.jpg",".","0",0,1500,"random"
"316",2,1,131,"Hawk.jpg",".","0",0,1500,"random"
"317",2,1,133,"Truck_Dump.jpg",".","0",0,1500,"random"
"318",2,1,134,"BicycleChain.jpg",".","0",0,1500,"random"
"319",2,1,136,"Hammer.jpg",".","0",0,1500,"random"
"320",2,1,137,"ShoppingCart.jpg",".","0",0,1500,"random"
"321",2,1,138,"PaintRoller.jpg",".","0",0,1500,"random"
"322",2,1,140,"BicycleOdometer.jpg",".","0",0,1500,"random"
"323",2,1,141,"Pig.jpg",".","0",0,1500,"random"
"324",2,1,143,"Bottle_Specimen.jpg",".","0",0,1500,"random"
"325",2,1,144,"Bandage_Wrap.jpg",".","0",0,1500,"random"
"326",2,1,145,"Screw.jpg",".","0",0,1500,"random"
"327",2,1,146,"Currants.jpg",".","0",0,1500,"random"
"328",2,1,147,"Lamp_TableWhite.jpg",".","0",0,1500,"random"
"329",2,1,149,"Makeup_Foundation.jpg",".","0",0,1500,"random"
"330",2,1,152,"Toy_PoliceCar.jpg",".","0",0,1500,"random"
"331",2,1,153,"Seashell_AlternateTellin.jpg",".","0",0,1500,"random"
"332",2,1,154,"ReindeerHeadband.jpg",".","0",0,1500,"random"
"333",2,1,156,"Radio_Vintage.jpg",".","0",0,1500,"random"
"334",2,1,157,"Tire_Hollow.jpg",".","0",0,1500,"random"
"335",2,1,158,"Boxcutter.jpg",".","0",0,1500,"random"
"336",2,1,159,"Outhouse.jpg",".","0",0,1500,"random"
"337",2,1,161,"ElasticBand.jpg",".","0",0,1500,"random"
"338",2,1,166,"OnionRed.jpg",".","0",0,1500,"random"
"339",2,1,167,"Toolbox_Old.jpg",".","0",0,1500,"random"
"340",2,1,168,"Hockey_Equipment.jpg",".","0",0,1500,"random"
"341",2,1,170,"Sign_TrafficArrow.jpg",".","0",0,1500,"random"
"342",2,1,171,"Thermos_MetalSleek.jpg",".","0",0,1500,"random"
"343",2,1,172,"Pajamas.jpg",".","0",0,1500,"random"
"344",2,1,176,"PedestalGreek.jpg",".","0",0,1500,"random"
"345",2,1,178,"Cross.jpg",".","0",0,1500,"random"
"346",2,1,182,"Glass_Martini.jpg",".","0",0,1500,"random"
"347",2,1,183,"TurkeyDinner.jpg",".","0",0,1500,"random"
"348",2,1,185,"AnsweringMachine.jpg",".","0",0,1500,"random"
"349",2,1,186,"MobilityScooter.jpg",".","0",0,1500,"random"
"350",2,1,187,"Chopsticks.jpg",".","0",0,1500,"random"
"351",2,1,193,"Pipe.jpg",".","0",0,1500,"random"
"352",2,1,195,"Tweezers.jpg",".","0",0,1500,"random"
"353",2,1,196,"Playground.jpg",".","0",0,1500,"random"
"354",2,1,199,"Toy_BlocksPlastic Colourful.jpg","1","old",1,1961,"random"
"355",2,1,200,"Toy_BearBlackPlastic.jpg",".","old",0,1002,"random"
"356",2,1,202,"Exercise_Machine.jpg",".","new",1,1153,"random"
"357",2,1,204,"Mattress.jpg","3","new",0,1851,"random"
"358",2,1,205,"Thermostat.jpg",".","0",0,1500,"random"
"359",2,1,206,"Dress_Blue.jpg",".","0",0,1500,"random"
"360",2,1,208,"Statue_VirginMary.jpg",".","0",0,1500,"random"
"361",2,1,211,"Jug_Milk.jpg",".","0",0,1500,"random"
"362",2,1,212,"Bench_Wooden.jpg",".","0",0,1500,"random"
"363",2,1,213,"Chinchilla.jpg",".","0",0,1500,"random"
"364",2,1,214,"ToothPaste.jpg",".","0",0,1500,"random"
"365",2,1,215,"CuttingBoard.jpg",".","0",0,1500,"random"
"366",2,1,217,"Kite_Rainbow.jpg",".","0",0,1500,"random"
"367",2,1,218,"Gorilla.jpg",".","0",0,1500,"random"
"368",2,1,219,"DivingBoard.jpg",".","0",0,1500,"random"
"369",2,1,220,"Arch.jpg",".","0",0,1500,"random"
"370",2,1,221,"CartonEggs.jpg",".","0",0,1500,"random"
"371",2,1,223,"Bindings_Snowboard.jpg",".","0",0,1500,"random"
"372",2,1,224,"Sock_Ankle.jpg",".","0",0,1500,"random"
"373",2,1,225,"Brooch_Fish.jpg",".","0",0,1500,"random"
"374",2,1,226,"Loofa.jpg",".","0",0,1500,"random"
"375",2,1,230,"Hoverboard.jpg",".","0",0,1500,"random"
"376",2,1,232,"Icepick.jpg",".","0",0,1500,"random"
"377",2,1,234,"Baster.jpg",".","0",0,1500,"random"
"378",2,1,235,"Helmet_Knight.jpg",".","0",0,1500,"random"
"379",2,1,239,"Jar_Cotton.jpg",".","0",0,1500,"random"
"380",2,1,242,"PropellerFan.jpg",".","new",1,1167,"random"
"381",2,1,243,"KeyHook_Occupied.jpg",".","new",1,744,"random"
"382",2,1,248,"Oyster.jpg","3","old",1,573,"random"
"383",2,1,251,"Tickets_Blank.jpg","3","new",0,434,"random"
"384",2,1,253,"Helmet_Construction.jpg","1","old",1,1432,"random"
"385",2,1,254,"Helmet_Soldier.jpg","1","old",1,447,"random"
"386",2,1,257,"Lighter_Yellow.jpg",".","0",0,1500,"random"
"387",2,1,258,"LampPost_OneBulb.jpg",".","0",0,1500,"random"
"388",2,1,259,"TireRims.jpg",".","0",0,1500,"random"
"389",2,1,260,"PaperStack.jpg",".","0",0,1500,"random"
"390",2,1,262,"ShearsGarden.jpg",".","0",0,1500,"random"
"391",2,1,265,"Flower_Orchid.jpg",".","0",0,1500,"random"
"392",2,1,270,"Lock_Combination.jpg","1","old",1,1467,"random"
"393",2,1,273,"Iron_Antique.jpg",".","0",0,1500,"random"
"394",2,1,279,"Shampoo.jpg","3","new",0,349,"random"
"395",2,1,281,"Toolbox_RedOpen.jpg",".","0",0,1500,"random"
"396",2,1,282,"Pasta_Spaghetti.jpg",".","0",0,1500,"random"
"397",2,1,284,"Frame_Oval.jpg",".","0",0,1500,"random"
"398",2,1,285,"Hammer_Reflex.jpg","1","new",0,1849,"random"
"399",2,1,286,"PuppetTheatre_WhiteGold.jpg","3","old",1,1832,"random"
"400",2,1,289,"Cannister_Gas.jpg",".","old",0,502,"random"
"401",2,1,293,"Cantaloupe.jpg","1","old",1,523,"random"
"402",2,1,295,"Spatula_1.jpg",".","old",0,1197,"random"
"403",2,1,298,"Switch_LightWhite.jpg",".","0",0,1500,"random"
"404",2,1,301,"Leaf_Clover.jpg","1","new",0,562,"random"
"405",2,1,305,"Paratrooper.jpg","3","old",1,1076,"random"
"406",2,1,306,"Chipmunk.jpg",".","0",0,1500,"random"
"407",2,1,307,"Hazelnut.jpg",".","0",0,1500,"random"
"408",2,1,308,"Bell_Hand.jpg",".","0",0,1500,"random"
"409",2,1,310,"Cage_Bird.jpg",".","new",1,310,"random"
"410",2,1,313,"Waffle.jpg",".","old",0,926,"random"
"411",2,1,314,"Syrup_Maple.jpg",".","0",0,1500,"random"
"412",2,1,315,"Sink_Bathroom.jpg",".","new",1,1438,"random"
"413",2,1,318,"HumanSkeleton.jpg",".","old",0,667,"random"
"414",2,1,319,"BicycleGear.jpg",".","0",0,1500,"random"
"415",2,1,322,"WireStripper.jpg","1","new",0,345,"random"
"416",2,1,324,"Cabinet_Display.jpg",".","0",0,1500,"random"
"417",3,1,1,"Pig.jpg",".","old",0,693,"random"
"418",3,1,2,"MouthGuard.jpg","3","new",0,1082,"random"
"419",3,1,3,"Mango.jpg","1","old",1,786,"random"
"420",3,1,5,"Tofu.jpg",".","new",1,517,"random"
"421",3,1,7,"Hat_Baseball.jpg",".","new",1,1102,"random"
"422",3,1,8,"Chinchilla.jpg",".","old",0,1342,"random"
"423",3,1,9,"Playground.jpg",".","old",0,966,"random"
"424",3,1,10,"PaintRollTray.jpg","3","new",0,1802,"random"
"425",3,1,11,"HumanSkeleton.jpg",".","old",0,654,"random"
"426",3,1,12,"LampPost_OneBulb.jpg",".","old",0,470,"random"
"427",3,1,13,"Jar_JellyBeans.jpg","3","old",1,1266,"random"
"428",3,1,14,"AnsweringMachine.jpg",".","new",1,726,"random"
"429",3,1,15,"Candy_Heart.jpg","3","old",1,1418,"random"
"430",3,1,16,"Fish_Rockbass.jpg","1","old",1,1090,"random"
"431",3,1,17,"SkullDeer.jpg",".","old",0,390,"random"
"432",3,1,18,"Iron_Antique.jpg",".","old",0,566,"random"
"433",3,1,19,"SmokeDetector.jpg","1","new",0,939,"random"
"434",3,1,20,"Bottle_Blue.jpg","3","new",0,1987,"random"
"435",3,1,21,"Makeup_Foundation.jpg",".","new",1,886,"random"
"436",3,1,22,"Keg.jpg","1","old",1,1443,"random"
"437",3,1,23,"Sock_Ankle.jpg",".","new",1,1158,"random"
"438",3,1,24,"Car_Sedan.jpg","3","new",0,1075,"random"
"439",3,1,25,"Saw.jpg","1","old",1,1299,"random"
"440",3,1,26,"Flower_Hibiscus.jpg",".","old",0,407,"random"
"441",3,1,27,"Chair_BeanBag.jpg","3","new",0,1251,"random"
"442",3,1,28,"Beater_Electric.jpg","3","old",1,1363,"random"
"443",3,1,29,"Truck_Dump.jpg",".","new",1,831,"random"
"444",3,1,30,"BicycleChain.jpg",".","old",0,711,"random"
"445",3,1,31,"Dress_Party.jpg","1","new",0,1443,"random"
"446",3,1,32,"DentistOverheadLight.jpg","1","old",1,1915,"random"
"447",3,1,33,"ButterDish.jpg","1","old",1,1747,"random"
"448",3,1,34,"PaintBrushAndPallette.jpg","3","old",1,1131,"random"
"449",3,1,35,"Jar_Cotton.jpg",".","new",1,1023,"random"
"450",3,1,36,"Currants.jpg",".","old",0,703,"random"
"451",3,1,37,"Statue_SouthAmerican.jpg",".","old",0,815,"random"
"452",3,1,38,"PaintRoller.jpg",".","0",0,1500,"random"
"453",3,1,39,"Toy_DollOffice.jpg",".","new",1,1239,"random"
"454",3,1,40,"Hottub.jpg",".","new",1,631,"random"
"455",3,1,41,"Teabag.jpg","3","old",1,1156,"random"
"456",3,1,42,"Candy_Chocolate.jpg","1","old",1,1180,"random"
"457",3,1,43,"Bindings_Snowboard.jpg",".","new",1,1167,"random"
"458",3,1,44,"BusStop.jpg","1","new",0,1812,"random"
"459",3,1,45,"TinChristmas.jpg","1","old",1,1844,"random"
"460",3,1,46,"GranolaBar.jpg",".","new",1,1128,"random"
"461",3,1,47,"Autocreeper.jpg","1","new",0,1316,"random"
"462",3,1,48,"Pants_Jeans.jpg","1","old",1,1276,"random"
"463",3,1,49,"GPS.jpg","3","new",0,1476,"random"
"464",3,1,50,"Mitt_Oven.jpg","1","old",1,1684,"random"
"465",3,1,51,"Drum_Brazilan.jpg",".","new",1,1232,"random"
"466",3,1,52,"Decoration_WallOrnament.jpg",".","old",0,872,"random"
"467",3,1,53,"Boxcutter.jpg",".","new",1,1344,"random"
"468",3,1,54,"Toy_Moose.jpg","3","old",1,1324,"random"
"469",3,1,55,"Cabinet_Office.jpg",".","new",1,1336,"random"
"470",3,1,56,"Stove_Camping.jpg","3","new",0,949,"random"
"471",3,1,57,"CookieCutter_Bell.jpg","1","old",1,1645,"random"
"472",3,1,58,"DoorBell.jpg","1","new",0,1765,"random"
"473",3,1,59,"Toy_Lighthouse.jpg",".","old",0,1056,"random"
"474",3,1,60,"Trophy.jpg","3","old",1,1741,"random"
"475",3,1,61,"Bench_Wooden.jpg",".","old",0,752,"random"
"476",3,1,62,"SculptureMetalFish.jpg","1","new",0,1301,"random"
"477",3,1,63,"Almond.jpg","1","old",1,1109,"random"
"478",3,1,64,"MonkeyPuppet.jpg","3","old",1,1197,"random"
"479",3,1,65,"Glass_Martini.jpg",".","old",0,1193,"random"
"480",3,1,67,"Outhouse.jpg",".","0",0,1500,"random"
"481",3,1,68,"Screw.jpg",".","old",0,809,"random"
"482",3,1,69,"FireExtinguisher.jpg","1","old",1,1022,"random"
"483",3,1,70,"LeatherPuncherTool.jpg","3","new",0,1294,"random"
"484",3,1,71,"Sign_Parking.jpg","3","new",0,942,"random"
"485",3,1,72,"Bowl_Chinese.jpg","3","old",1,1078,"random"
"486",3,1,73,"DoorKnob.jpg","3","old",1,1534,"random"
"487",3,1,74,"Pipe_Drain.jpg","1","old",1,1110,"random"
"488",3,1,75,"HairDryer.jpg","1","new",0,1038,"random"
"489",3,1,76,"Chest.jpg","1","new",0,1174,"random"
"490",3,1,77,"ElasticBand.jpg",".","old",0,1290,"random"
"491",3,1,78,"Table_Poker.jpg","1","new",0,1542,"random"
"492",3,1,79,"Pot_Cooking.jpg",".","old",0,834,"random"
"493",3,1,80,"WindowBlinds.jpg","3","old",1,1191,"random"
"494",3,1,81,"Tweezers.jpg",".","old",0,498,"random"
"495",3,1,82,"PaperStack.jpg",".","new",1,1162,"random"
"496",3,1,83,"Carbiner_Ascender.jpg",".","new",1,1026,"random"
"497",3,1,84,"Toy_Witch.jpg","3","old",1,1215,"random"
"498",3,1,85,"Pineapple.jpg","3","old",1,1111,"random"
"499",3,1,86,"Thermostat_Digital.jpg","1","new",0,1119,"random"
"500",3,1,87,"BicycleGear.jpg",".","new",1,370,"random"
"501",3,1,88,"Beaker.jpg",".","new",1,419,"random"
"502",3,1,89,"BottleOpener.jpg","1","old",1,1439,"random"
"503",3,1,90,"Pasta_Spaghetti.jpg",".","old",0,739,"random"
"504",3,1,91,"Hawk.jpg",".","old",0,923,"random"
"505",3,1,92,"CandyDispenser.jpg","1","old",1,1151,"random"
"506",3,1,93,"CuttingBoard.jpg",".","old",0,1059,"random"
"507",3,1,94,"Bird_Cardinal.jpg","3","old",1,1023,"random"
"508",3,1,95,"Phone_Wireless.jpg","3","old",1,1655,"random"
"509",3,1,96,"Flamingo_Cartoon.jpg","1","old",1,1383,"random"
"510",3,1,97,"Thermos_MetalSleek.jpg",".","old",0,1267,"random"
"511",3,1,98,"Cassette_Audio.jpg","3","old",1,1128,"random"
"512",3,1,99,"DogTreat.jpg","1","old",1,1432,"random"
"513",3,1,100,"IceCrusher.jpg","3","new",0,1089,"random"
"514",3,1,101,"Dart.jpg",".","new",1,307,"random"
"515",3,1,102,"Waffle.jpg",".","old",0,1075,"random"
"516",3,1,103,"Lollipop_Grape.jpg","1","old",1,1112,"random"
"517",3,1,104,"Cake_Wedding.jpg","1","old",1,1200,"random"
"518",3,1,105,"Thermostat.jpg",".","new",1,1083,"random"
"519",3,1,106,"MonaLisa.jpg","1","old",1,1168,"random"
"520",3,1,107,"PropellerFan.jpg",".","old",0,803,"random"
"521",3,1,108,"Speaker_OnStand.jpg","3","old",1,1464,"random"
"522",3,1,109,"Tribunal_Wooden.jpg",".","old",0,948,"random"
"523",3,1,110,"Tape_Washi.jpg",".","new",1,804,"random"
"524",3,1,111,"Generator.jpg","3","new",0,736,"random"
"525",3,1,112,"SafetyPin.jpg",".","old",0,772,"random"
"526",3,1,113,"Flute_Wooden.jpg","1","old",1,1224,"random"
"527",3,1,114,"Hourglass.jpg","3","old",1,1032,"random"
"528",3,1,115,"PotatoMasher_Zigzag.jpg","3","old",1,1440,"random"
"529",3,1,116,"Lamp_TableWhite.jpg",".","new",1,1260,"random"
"530",3,1,117,"Bottle_Specimen.jpg",".","new",1,716,"random"
"531",3,1,118,"Socks_Winter.jpg",".","old",0,924,"random"
"532",3,1,119,"Clip_Paper.jpg","3","old",1,1217,"random"
"533",3,1,120,"Flower_Orchid.jpg",".","old",0,900,"random"
"534",3,1,121,"Cross.jpg",".","old",0,948,"random"
"535",3,1,122,"Caterpillar.jpg",".","old",0,892,"random"
"536",3,1,123,"Ball_Disco.jpg",".","new",1,596,"random"
"537",3,1,124,"CartonEggs.jpg",".","old",0,556,"random"
"538",3,1,125,"Helmet_Knight.jpg",".","old",0,685,"random"
"539",3,1,126,"Bomb.jpg",".","old",0,1053,"random"
"540",3,1,127,"Balalaika.jpg","3","old",1,1121,"random"
"541",3,1,128,"Fencing_HelmetSwords.jpg",".","old",0,445,"random"
"542",3,1,129,"BicycleBrake.jpg","1","old",1,1177,"random"
"543",3,1,130,"Crib_Basket.jpg",".","old",0,533,"random"
"544",3,1,131,"Case_DVD.jpg",".","new",1,301,"random"
"545",3,1,133,"Chopsticks.jpg",".","old",0,1481,"random"
"546",3,1,134,"Bellows.jpg","3","old",1,1126,"random"
"547",3,1,135,"CookieCutter_Tree.jpg",".","old",0,521,"random"
"548",3,1,136,"Switch_LightWhite.jpg",".","old",0,761,"random"
"549",3,1,137,"ContactLens.jpg",".","old",0,329,"random"
"550",3,1,138,"Sushi.jpg","1","old",1,910,"random"
"551",3,1,139,"DryRack_Dishes.jpg","3","new",0,1094,"random"
"552",3,1,140,"Knife_Hunting.jpg","3","old",1,1398,"random"
"553",3,1,141,"BicycleHandleGrip.jpg","1","new",0,1750,"random"
"554",3,1,142,"Strainer_Tea.jpg",".","new",1,898,"random"
"555",3,1,143,"FlipFlop_PairBlue.jpg",".","new",1,506,"random"
"556",3,1,144,"Guitarcase.jpg","3","new",0,1478,"random"
"557",3,1,145,"KeyHook_Occupied.jpg",".","new",1,666,"random"
"558",3,1,146,"Lilypad.jpg","3","old",1,1150,"random"
"559",3,1,147,"BicyclePedal.jpg","3","old",1,1182,"random"
"560",3,1,148,"Cabinet_Display.jpg",".","old",0,698,"random"
"561",3,1,149,"Icepick.jpg",".","old",0,1090,"random"
"562",3,1,150,"Bathtub.jpg","1","new",0,1623,"random"
"563",3,1,151,"Trumpet.jpg","3","old",1,1295,"random"
"564",3,1,152,"Fridge.jpg",".","new",1,786,"random"
"565",3,1,153,"PedestalGreek.jpg",".","old",0,626,"random"
"566",3,1,154,"BloodpPresureCuff.jpg",".","old",0,706,"random"
"567",3,1,156,"Toy_StackingRing.jpg","3","old",1,1495,"random"
"568",3,1,157,"Nyala.jpg","3","old",1,687,"random"
"569",3,1,158,"Toy_TableSet.jpg",".","old",0,923,"random"
"570",3,1,159,"Bottle_Wine.jpg","1","old",1,1279,"random"
"571",3,1,160,"ShearsGarden.jpg",".","new",1,931,"random"
"572",3,1,161,"Tire_Hollow.jpg",".","old",0,771,"random"
"573",3,1,162,"Box_Present.jpg",".","new",1,507,"random"
"574",3,1,163,"Jug_Milk.jpg",".","old",0,747,"random"
"575",3,1,164,"Candle_Blue.jpg","1","old",1,1295,"random"
"576",3,1,165,"Pickaxe.jpg",".","old",0,787,"random"
"577",3,1,166,"CoffeeGrinder.jpg",".","old",0,739,"random"
"578",3,1,167,"WashRack.jpg","1","new",0,1376,"random"
"579",3,1,168,"Hook_Fish.jpg","3","old",1,1680,"random"
"580",3,1,169,"Arch.jpg",".","new",1,755,"random"
"581",3,1,170,"Cage_Bird.jpg",".","old",0,971,"random"
"582",3,1,171,"Drink_Green.jpg","3","old",1,824,"random"
"583",3,1,172,"Mat_Door.jpg","3","old",1,1216,"random"
"584",3,1,173,"Shoe_Pink.jpg",".","new",1,579,"random"
"585",3,1,174,"MobilityScooter.jpg",".","new",1,619,"random"
"586",3,1,175,"Gun_Glue.jpg",".","new",1,435,"random"
"587",3,1,176,"Box_FirstAidOpen.jpg",".","new",1,1044,"random"
"588",3,1,177,"RibbonSpool.jpg",".","old",0,764,"random"
"589",3,1,178,"Cherry.jpg","3","old",1,1152,"random"
"590",3,1,179,"SaxophoneSoprano.jpg",".","old",0,1092,"random"
"591",3,1,180,"TireRims.jpg",".","new",1,716,"random"
"592",3,1,181,"IceCream_Chocolate.jpg","1","old",1,1600,"random"
"593",3,1,182,"SewingMachine.jpg",".","new",1,1028,"random"
"594",3,1,183,"Kite_Rainbow.jpg",".","old",0,612,"random"
"595",3,1,184,"StringBean.jpg","3","old",1,632,"random"
"596",3,1,185,"NailPolish.jpg","3","old",1,1040,"random"
"597",3,1,186,"Dress_Blue.jpg",".","new",1,452,"random"
"598",3,1,187,"Chest_Toys.jpg","3","old",1,1409,"random"
"599",3,1,188,"Spatula_1.jpg",".","old",0,788,"random"
"600",3,1,189,"NintendoWii.jpg","3","new",0,1281,"random"
"601",3,1,190,"Megaphone.jpg","3","new",0,737,"random"
"602",3,1,191,"Cannister_Gas.jpg",".","old",0,1268,"random"
"603",3,1,192,"Toy_SeeSaw.jpg",".","old",0,532,"random"
"604",3,1,193,"Skates.jpg","3","old",1,1001,"random"
"605",3,1,194,"Goose_Canadian.jpg","3","old",1,1105,"random"
"606",3,1,195,"Apple_RedAndGreen.jpg","1","old",1,665,"random"
"607",3,1,196,"Pitcher.jpg","1","old",1,1097,"random"
"608",3,1,197,"ToothPaste.jpg",".","old",0,933,"random"
"609",3,1,199,"Cup_Styrofoam.jpg","3","old",1,1477,"random"
"610",3,1,200,"Pipe.jpg",".","new",1,848,"random"
"611",3,1,201,"PassionFruit.jpg","3","old",1,749,"random"
"612",3,1,202,"Frame_Oval.jpg",".","old",0,889,"random"
"613",3,1,203,"Knee.jpg","3","old",1,1429,"random"
"614",3,1,204,"Shoes_DutchClogs.jpg","1","old",1,1173,"random"
"615",3,1,205,"ShoppingCart.jpg",".","new",1,713,"random"
"616",3,1,206,"Telescope.jpg",".","old",0,737,"random"
"617",3,1,207,"Toy_BlocksPlastic Colourful.jpg","1","old",1,1469,"random"
"618",3,1,208,"House_Rural.jpg",".","old",0,1097,"random"
"619",3,1,209,"Hoverboard.jpg",".","new",1,1009,"random"
"620",3,1,210,"Pajamas.jpg",".","new",1,601,"random"
"621",3,1,211,"Lighter_Yellow.jpg",".","new",1,641,"random"
"622",3,1,212,"CameoPortrait.jpg","1","old",1,1254,"random"
"623",3,1,213,"Mattress.jpg","3","new",0,1382,"random"
"624",3,1,214,"Desk_School.jpg","3","old",1,982,"random"
"625",3,1,215,"Bandage_Wrap.jpg",".","new",1,857,"random"
"626",3,1,216,"Fruit_Cactus.jpg","1","old",1,862,"random"
"627",3,1,217,"Bullet.jpg","3","old",1,1230,"random"
"628",3,1,218,"Microphone.jpg",".","old",0,601,"random"
"629",3,1,219,"Sign_Wetfloor.jpg","3","new",0,1486,"random"
"630",3,1,220,"Mop.jpg","1","old",1,1134,"random"
"631",3,1,221,"DrillBit.jpg",".","old",0,770,"random"
"632",3,1,222,"Pen_Ballpoint.jpg",".","old",0,1010,"random"
"633",3,1,223,"Can_OilSpout.jpg",".","new",1,1138,"random"
"634",3,1,224,"PanCooking.jpg",".","old",0,610,"random"
"635",3,1,225,"Glass_Cup.jpg",".","old",0,586,"random"
"636",3,1,226,"Tortilla.jpg","3","old",1,1414,"random"
"637",3,1,227,"Syrup_Maple.jpg",".","new",1,1050,"random"
"638",3,1,228,"JukeboxAntique.jpg","3","old",1,1670,"random"
"639",3,1,229,"Chair_MedicalToilet.jpg","1","old",1,1646,"random"
"640",3,1,230,"BoogieBoard.jpg",".","new",1,1378,"random"
"641",3,1,231,"Light_Siren.jpg","1","new",0,1367,"random"
"642",3,1,232,"Fortress.jpg","1","old",1,895,"random"
"643",3,1,233,"Broom_Long.jpg",".","old",0,410,"random"
"644",3,1,234,"Toy_GasPump.jpg","3","old",1,1159,"random"
"645",3,1,235,"Ashtray_Empty.jpg","3","old",1,1063,"random"
"646",3,1,236,"Toolbox_RedOpen.jpg",".","old",0,730,"random"
"647",3,1,237,"Ball_8.jpg",".","old",0,882,"random"
"648",3,1,238,"Exercise_Machine.jpg",".","new",1,714,"random"
"649",3,1,239,"BadgeSpecialAgent.jpg","3","new",0,1063,"random"
"650",3,1,240,"Hippopotamus.jpg","3","old",1,799,"random"
"651",3,1,241,"Mask_Happy.jpg","1","old",1,1415,"random"
"652",3,1,242,"GasBurner.jpg","1","new",0,1415,"random"
"653",3,1,244,"Oyster.jpg","3","old",1,703,"random"
"654",3,1,245,"Bell_Hand.jpg",".","old",0,819,"random"
"655",3,1,246,"DivingBoard.jpg",".","new",1,611,"random"
"656",3,1,247,"OnionRed.jpg",".","old",0,403,"random"
"657",3,1,248,"ChessPiece_Knight.jpg",".","old",0,1075,"random"
"658",3,1,249,"Spoon_Wooden.jpg","3","old",1,1136,"random"
"659",3,1,250,"Seashell_AlternateTellin.jpg",".","old",0,467,"random"
"660",3,1,251,"Knife_Butter.jpg",".","new",1,571,"random"
"661",3,1,252,"Tickets_Blank.jpg","3","new",0,1112,"random"
"662",3,1,253,"SmokingPipe.jpg",".","old",0,579,"random"
"663",3,1,254,"Boots_KneeHigh.jpg",".","old",0,747,"random"
"664",3,1,255,"TartStrawberry.jpg","3","old",1,1377,"random"
"665",3,1,256,"Clock_Radio.jpg",".","new",1,411,"random"
"666",3,1,257,"Helmet_Construction.jpg","1","new",0,904,"random"
"667",3,1,258,"BicycleOdometer.jpg",".","new",1,380,"random"
"668",3,1,259,"Helmet_Soldier.jpg","1","old",1,1024,"random"
"669",3,1,260,"Colander.jpg","1","old",1,1064,"random"
"670",3,1,261,"Peppermill.jpg","1","old",1,1376,"random"
"671",3,1,262,"Steeple.jpg","3","old",1,1360,"random"
"672",3,1,263,"Comb.jpg",".","new",1,588,"random"
"673",3,1,265,"Bugle.jpg",".","old",0,859,"random"
"674",3,1,266,"Sink_Bathroom.jpg",".","new",1,667,"random"
"675",3,1,267,"Statue_VirginMary.jpg",".","old",0,659,"random"
"676",3,1,268,"Sign_TrafficArrow.jpg",".","old",0,1067,"random"
"677",3,1,269,"Dolphine.jpg",".","old",0,467,"random"
"678",3,1,270,"Loofa.jpg",".","new",1,971,"random"
"679",3,1,271,"Hazelnut.jpg",".","old",0,563,"random"
"680",3,1,273,"MixingGlass.jpg","1","old",1,1191,"random"
"681",3,1,274,"Brooch_Fish.jpg",".","new",1,739,"random"
"682",3,1,275,"Blanket.jpg","1","new",0,1376,"random"
"683",3,1,276,"SkiPoles.jpg",".","new",1,995,"random"
"684",3,1,277,"Spoons_MeasuringDetached.jpg","1","new",0,1337,"random"
"685",3,1,278,"Box_Floral.jpg","3","new",0,1288,"random"
"686",3,1,279,"ReindeerHeadband.jpg",".","old",0,987,"random"
"687",3,1,280,"Bottle_BubbleBlower.jpg",".","old",0,1403,"random"
"688",3,1,281,"Lock_Combination.jpg","1","new",0,1248,"random"
"689",3,1,282,"Boardgame_Checkers.jpg",".","old",0,532,"random"
"690",3,1,283,"Crutches.jpg",".","old",0,476,"random"
"691",3,1,284,"Toys_Lego.jpg","1","new",0,1456,"random"
"692",3,1,285,"Tripod.jpg","1","old",1,1200,"random"
"693",3,1,286,"Box_Jewellery.jpg","1","old",1,1688,"random"
"694",3,1,287,"Toy_RockingHorseBlack.jpg","1","old",1,1008,"random"
"695",3,1,288,"RemoteControl.jpg","3","new",0,1056,"random"
"696",3,1,289,"SundaeBanana.jpg",".","old",0,748,"random"
"697",3,1,290,"Shampoo.jpg","3","old",1,1392,"random"
"698",3,1,291,"ShoulderPads.jpg","1","new",0,1672,"random"
"699",3,1,292,"Hammer_Reflex.jpg","1","old",1,976,"random"
"700",3,1,293,"PuppetTheatre_WhiteGold.jpg","3","old",1,1865,"random"
"701",3,1,294,"TurkeyDinner.jpg",".","old",0,364,"random"
"702",3,1,295,"Guitar_Acoustic.jpg","1","old",1,969,"random"
"703",3,1,296,"fries.jpg","1","old",1,1145,"random"
"704",3,1,297,"Fuse.jpg","3","new",0,1529,"random"
"705",3,1,298,"Shield_Antique.jpg",".","old",0,516,"random"
"706",3,1,299,"Cantaloupe.jpg","1","old",1,1001,"random"
"707",3,1,300,"AmpMeter.jpg","3","new",0,1329,"random"
"708",3,1,301,"Hockey_Equipment.jpg",".","new",1,1077,"random"
"709",3,1,302,"Radio_Vintage.jpg",".","old",0,605,"random"
"710",3,1,303,"FlashlightHeadBand.jpg","1","old",1,1977,"random"
"711",3,1,304,"Paddle_Beach.jpg",".","old",0,557,"random"
"712",3,1,305,"TeethMould.jpg","3","old",1,921,"random"
"713",3,1,306,"Leaf_Clover.jpg","1","old",1,1105,"random"
"714",3,1,307,"Baster.jpg",".","old",0,1253,"random"
"715",3,1,308,"KitchenTools.jpg",".","old",0,1181,"random"
"716",3,1,309,"Exercise_Stretch.jpg","1","new",0,1066,"random"
"717",3,1,310,"Lantern_TeaBox.jpg","1","new",0,1585,"random"
"718",3,1,311,"Hammer.jpg",".","new",1,1253,"random"
"719",3,1,312,"Paratrooper.jpg","3","new",0,1354,"random"
"720",3,1,313,"CrepeMaker.jpg",".","new",1,1158,"random"
"721",3,1,314,"Toolbox_Old.jpg",".","old",0,597,"random"
"722",3,1,315,"DrinkingFountain.jpg","1","new",0,1266,"random"
"723",3,1,316,"Wheelbarrow_Green.jpg","1","new",0,1090,"random"
"724",3,1,317,"Notebook.jpg","1","new",0,1138,"random"
"725",3,1,318,"Glove_Rubber.jpg","3","old",1,1506,"random"
"726",3,1,319,"Wheel_Steering.jpg",".","new",1,638,"random"
"727",3,1,320,"NeedlesAcupuncture.jpg","3","old",1,1250,"random"
"728",3,1,321,"Golf_Bag.jpg","1","old",1,1578,"random"
"729",3,1,322,"Brace_Back.jpg",".","0",0,1500,"random"
"730",3,1,323,"WireStripper.jpg","1","new",0,1578,"random"
"731",3,1,324,"Mug_Beer.jpg","1","new",0,1018,"random"
"732",3,1,325,"ToothPaste.jpg",".","new",1,966,"random"
"733",4,1,2,"Glass_Cup.jpg",".","new",1,1004,"random"
"734",4,1,3,"Loofa.jpg",".","new",1,637,"random"
"735",4,1,4,"Mango.jpg","1","old",1,974,"random"
"736",4,1,5,"Tofu.jpg",".","new",1,1287,"random"
"737",4,1,6,"Toy_Shapesorter.jpg","1","old",1,871,"random"
"738",4,1,7,"PaintRollTray.jpg","3","old",1,945,"random"
"739",4,1,8,"Jar_JellyBeans.jpg","3","old",1,666,"random"
"740",4,1,9,"Candy_Heart.jpg","3","old",1,780,"random"
"741",4,1,10,"Fish_Rockbass.jpg","1","old",1,885,"random"
"742",4,1,11,"BoogieBoard.jpg",".","new",1,734,"random"
"743",4,1,12,"Fridge.jpg",".","new",1,1343,"random"
"744",4,1,13,"SmokeDetector.jpg","1","old",1,816,"random"
"745",4,1,14,"Icepick.jpg",".","new",1,934,"random"
"746",4,1,15,"Cross.jpg",".","new",1,814,"random"
"747",4,1,16,"SundaeBanana.jpg",".","new",1,695,"random"
"748",4,1,17,"Thermos_MetalSleek.jpg",".","new",1,1079,"random"
"749",4,1,18,"Bottle_Blue.jpg","3","old",1,593,"random"
"750",4,1,19,"BicycleChain.jpg",".","new",1,649,"random"
"751",4,1,20,"Keg.jpg","1","old",1,1275,"random"
"752",4,1,21,"Flower_Hibiscus.jpg",".","new",1,899,"random"
"753",4,1,22,"ContactLens.jpg",".","new",1,892,"random"
"754",4,1,23,"Cannister_Gas.jpg",".","new",1,741,"random"
"755",4,1,24,"Spatula_1.jpg",".","new",1,998,"random"
"756",4,1,25,"MobilityScooter.jpg",".","new",1,791,"random"
"757",4,1,26,"Car_Sedan.jpg","3","old",1,809,"random"
"758",4,1,27,"Saw.jpg","1","old",1,670,"random"
"759",4,1,28,"Carbiner_Ascender.jpg",".","old",0,1174,"random"
"760",4,1,29,"Chair_BeanBag.jpg","3","old",1,712,"random"
"761",4,1,30,"Beater_Electric.jpg","3","old",1,681,"random"
"762",4,1,31,"Boxcutter.jpg",".","new",1,762,"random"
"763",4,1,32,"Toy_SeeSaw.jpg",".","new",1,730,"random"
"764",4,1,33,"ReindeerHeadband.jpg",".","new",1,627,"random"
"765",4,1,34,"Dress_Party.jpg","1","old",1,813,"random"
"766",4,1,35,"DentistOverheadLight.jpg","1","old",1,1054,"random"
"767",4,1,36,"OnionRed.jpg",".","new",1,686,"random"
"768",4,1,37,"ButterDish.jpg","1","old",1,1072,"random"
"769",4,1,38,"Truck_Dump.jpg",".","new",1,642,"random"
"770",4,1,39,"Switch_LightWhite.jpg",".","new",1,905,"random"
"771",4,1,40,"ChessPiece_Knight.jpg",".","new",1,666,"random"
"772",4,1,41,"PaintBrushAndPallette.jpg","3","old",1,858,"random"
"773",4,1,42,"Teabag.jpg","3","old",1,716,"random"
"774",4,1,43,"Hawk.jpg",".","new",1,637,"random"
"775",4,1,44,"Gorilla.jpg",".","new",1,1269,"random"
"776",4,1,45,"Candy_Chocolate.jpg","1","old",1,1014,"random"
"777",4,1,46,"BusStop.jpg","1","old",1,823,"random"
"778",4,1,47,"TinChristmas.jpg","1","new",0,769,"random"
"779",4,1,48,"Iron_Antique.jpg",".","new",1,1009,"random"
"780",4,1,49,"Autocreeper.jpg","1","old",1,786,"random"
"781",4,1,50,"Pants_Jeans.jpg","1","old",1,835,"random"
"782",4,1,51,"GPS.jpg","3","old",1,644,"random"
"783",4,1,52,"Decoration_WallOrnament.jpg",".","new",1,750,"random"
"784",4,1,53,"Radio_Vintage.jpg",".","new",1,904,"random"
"785",4,1,54,"Flower_Orchid.jpg",".","new",1,809,"random"
"786",4,1,55,"Mitt_Oven.jpg","1","old",1,706,"random"
"787",4,1,56,"Wheel_Steering.jpg",".","new",1,747,"random"
"788",4,1,57,"Toy_Moose.jpg","3","old",1,866,"random"
"789",4,1,58,"Stove_Camping.jpg","3","new",0,715,"random"
"790",4,1,59,"GranolaBar.jpg",".","new",1,917,"random"
"791",4,1,60,"CookieCutter_Bell.jpg","1","new",0,774,"random"
"792",4,1,61,"Beaker.jpg",".","new",1,735,"random"
"793",4,1,62,"DoorBell.jpg","1","old",1,936,"random"
"794",4,1,63,"Trophy.jpg","3","old",1,625,"random"
"795",4,1,64,"SculptureMetalFish.jpg","1","old",1,659,"random"
"796",4,1,65,"KitchenTools.jpg",".","new",1,763,"random"
"797",4,1,67,"Hoverboard.jpg",".","new",1,1141,"random"
"798",4,1,68,"Almond.jpg","1","old",1,677,"random"
"799",4,1,69,"MonkeyPuppet.jpg","3","old",1,1174,"random"
"800",4,1,70,"Toy_TableSet.jpg",".","new",1,751,"random"
"801",4,1,71,"FireExtinguisher.jpg","1","old",1,767,"random"
"802",4,1,72,"Bell_Hand.jpg",".","new",1,904,"random"
"803",4,1,73,"RibbonSpool.jpg",".","old",0,601,"random"
"804",4,1,74,"SkullDeer.jpg",".","new",1,1090,"random"
"805",4,1,75,"CartonEggs.jpg",".","new",1,795,"random"
"806",4,1,76,"Sock_Ankle.jpg",".","new",1,763,"random"
"807",4,1,77,"LeatherPuncherTool.jpg","3","old",1,1053,"random"
"808",4,1,78,"Sign_Parking.jpg","3","old",1,574,"random"
"809",4,1,79,"Bowl_Chinese.jpg","3","old",1,591,"random"
"810",4,1,80,"DoorKnob.jpg","3","old",1,609,"random"
"811",4,1,81,"Pipe_Drain.jpg","1","old",1,682,"random"
"812",4,1,82,"Comb.jpg",".","new",1,811,"random"
"813",4,1,83,"Pig.jpg",".","new",1,1363,"random"
"814",4,1,84,"SmokingPipe.jpg",".","new",1,780,"random"
"815",4,1,85,"Telescope.jpg",".","new",1,652,"random"
"816",4,1,86,"Boardgame_Checkers.jpg",".","new",1,845,"random"
"817",4,1,87,"HairDryer.jpg","1","old",1,886,"random"
"818",4,1,88,"TireRims.jpg",".","new",1,702,"random"
"819",4,1,89,"Case_DVD.jpg",".","new",1,703,"random"
"820",4,1,90,"CuttingBoard.jpg",".","new",1,792,"random"
"821",4,1,91,"Chest.jpg","1","old",1,858,"random"
"822",4,1,92,"Paddle_Beach.jpg",".","new",1,667,"random"
"823",4,1,93,"BloodpPresureCuff.jpg",".","new",1,834,"random"
"824",4,1,94,"Tire_Hollow.jpg",".","new",1,843,"random"
"825",4,1,95,"Table_Poker.jpg","1","old",1,796,"random"
"826",4,1,96,"ToothPaste.jpg",".","new",1,757,"random"
"827",4,1,97,"Ball_8.jpg",".","new",1,1430,"random"
"828",4,1,98,"WindowBlinds.jpg","3","old",1,815,"random"
"829",4,1,99,"Brace_Back.jpg",".","new",1,952,"random"
"830",4,1,100,"Toy_Witch.jpg","3","old",1,1368,"random"
"831",4,1,101,"Pineapple.jpg","3","old",1,865,"random"
"832",4,1,102,"Thermostat_Digital.jpg","1","old",1,763,"random"
"833",4,1,103,"Toy_DollOffice.jpg",".","new",1,803,"random"
"834",4,1,104,"FlipFlop_PairBlue.jpg",".","new",1,861,"random"
"835",4,1,105,"BottleOpener.jpg","1","old",1,1238,"random"
"836",4,1,106,"Crib_Basket.jpg",".","new",1,799,"random"
"837",4,1,107,"Outhouse.jpg",".","new",1,791,"random"
"838",4,1,108,"PropellerFan.jpg",".","new",1,664,"random"
"839",4,1,109,"CandyDispenser.jpg","1","old",1,1497,"random"
"840",4,1,110,"Bird_Cardinal.jpg","3","old",1,618,"random"
"841",4,1,111,"Brooch_Fish.jpg",".","new",1,698,"random"
"842",4,1,112,"Phone_Wireless.jpg","3","old",1,892,"random"
"843",4,1,113,"DrillBit.jpg",".","new",1,875,"random"
"844",4,1,114,"Flamingo_Cartoon.jpg","1","old",1,900,"random"
"845",4,1,115,"Ball_Disco.jpg",".","new",1,797,"random"
"846",4,1,116,"Cassette_Audio.jpg","3","old",1,950,"random"
"847",4,1,117,"Bomb.jpg",".","new",1,743,"random"
"848",4,1,118,"Pipe.jpg",".","new",1,1168,"random"
"849",4,1,119,"DogTreat.jpg","1","old",1,1065,"random"
"850",4,1,120,"IceCrusher.jpg","3","old",1,826,"random"
"851",4,1,121,"Bottle_BubbleBlower.jpg",".","old",0,875,"random"
"852",4,1,122,"Lollipop_Grape.jpg","1","old",1,708,"random"
"853",4,1,123,"Cake_Wedding.jpg","1","old",1,742,"random"
"854",4,1,124,"MonaLisa.jpg","1","old",1,615,"random"
"855",4,1,125,"Lighter_Yellow.jpg",".","new",1,791,"random"
"856",4,1,126,"Chinchilla.jpg",".","new",1,584,"random"
"857",4,1,127,"Speaker_OnStand.jpg","3","old",1,1041,"random"
"858",4,1,128,"Generator.jpg","3","old",1,634,"random"
"859",4,1,129,"Flute_Wooden.jpg","1","old",1,735,"random"
"860",4,1,130,"Crutches.jpg",".","new",1,721,"random"
"861",4,1,131,"Hourglass.jpg","3","old",1,649,"random"
"862",4,1,133,"Cabinet_Office.jpg",".","new",1,959,"random"
"863",4,1,134,"Glass_Martini.jpg",".","new",1,591,"random"
"864",4,1,135,"Toy_PoliceCar.jpg",".","new",1,728,"random"
"865",4,1,136,"Tape_Washi.jpg",".","new",1,554,"random"
"866",4,1,137,"PotatoMasher_Zigzag.jpg","3","old",1,762,"random"
"867",4,1,138,"Clip_Paper.jpg","3","old",1,571,"random"
"868",4,1,139,"Currants.jpg",".","new",1,643,"random"
"869",4,1,140,"DivingBoard.jpg",".","new",1,941,"random"
"870",4,1,141,"Balalaika.jpg","3","new",0,806,"random"
"871",4,1,142,"Pajamas.jpg",".","new",1,903,"random"
"872",4,1,143,"Hazelnut.jpg",".","new",1,1040,"random"
"873",4,1,144,"Jar_Cotton.jpg",".","new",1,664,"random"
"874",4,1,145,"Toy_Lighthouse.jpg",".","new",1,601,"random"
"875",4,1,146,"BicycleBrake.jpg","1","old",1,818,"random"
"876",4,1,147,"Socks_Winter.jpg",".","old",0,1089,"random"
"877",4,1,148,"Bellows.jpg","3","old",1,580,"random"
"878",4,1,149,"Sushi.jpg","1","old",1,687,"random"
"879",4,1,150,"DryRack_Dishes.jpg","3","old",1,608,"random"
"880",4,1,151,"Knife_Hunting.jpg","3","old",1,641,"random"
"881",4,1,152,"BicycleHandleGrip.jpg","1","old",1,587,"random"
"882",4,1,153,"Guitarcase.jpg","3","old",1,644,"random"
"883",4,1,154,"Lilypad.jpg","3","old",1,644,"random"
"884",4,1,155,"Knife_Butter.jpg",".","new",1,805,"random"
"885",4,1,156,"BicyclePedal.jpg","3","old",1,750,"random"
"886",4,1,157,"Cage_Bird.jpg",".","new",1,831,"random"
"887",4,1,158,"Bathtub.jpg","1","old",1,737,"random"
"888",4,1,159,"CoffeeGrinder.jpg",".","new",1,724,"random"
"889",4,1,160,"Trumpet.jpg","3","old",1,877,"random"
"890",4,1,161,"Arch.jpg",".","new",1,670,"random"
"891",4,1,162,"Toy_StackingRing.jpg","3","old",1,781,"random"
"892",4,1,163,"Sink_Bathroom.jpg",".","old",0,639,"random"
"893",4,1,164,"Chipmunk.jpg",".","new",1,935,"random"
"894",4,1,165,"SafetyPin.jpg",".","new",1,953,"random"
"895",4,1,166,"Bottle_Specimen.jpg",".","new",1,745,"random"
"896",4,1,167,"Nyala.jpg","3","old",1,955,"random"
"897",4,1,168,"Bottle_Wine.jpg","1","old",1,836,"random"
"898",4,1,169,"Candle_Blue.jpg","1","new",0,901,"random"
"899",4,1,170,"Syrup_Maple.jpg",".","new",1,798,"random"
"900",4,1,171,"Box_Present.jpg",".","new",1,911,"random"
"901",4,1,172,"Pen_Ballpoint.jpg",".","new",1,770,"random"
"902",4,1,173,"WashRack.jpg","1","old",1,906,"random"
"903",4,1,174,"House_Rural.jpg",".","new",1,595,"random"
"904",4,1,175,"Hook_Fish.jpg","3","old",1,1253,"random"
"905",4,1,176,"Bugle.jpg",".","new",1,718,"random"
"906",4,1,177,"Drink_Green.jpg","3","old",1,999,"random"
"907",4,1,178,"Tweezers.jpg",".","new",1,692,"random"
"908",4,1,179,"Mat_Door.jpg","3","old",1,1024,"random"
"909",4,1,180,"Cherry.jpg","3","old",1,673,"random"
"910",4,1,182,"StringBean.jpg","3","old",1,675,"random"
"911",4,1,183,"NailPolish.jpg","3","old",1,877,"random"
"912",4,1,184,"Chest_Toys.jpg","3","old",1,646,"random"
"913",4,1,185,"NintendoWii.jpg","3","old",1,640,"random"
"914",4,1,186,"Pot_Cooking.jpg",".","new",1,1001,"random"
"915",4,1,187,"PaintRoller.jpg",".","old",0,858,"random"
"916",4,1,188,"Megaphone.jpg","3","old",1,635,"random"
"917",4,1,189,"Skates.jpg","3","old",1,600,"random"
"918",4,1,190,"Sign_TrafficArrow.jpg",".","old",0,569,"random"
"919",4,1,191,"BicycleGear.jpg",".","new",1,1241,"random"
"920",4,1,192,"Goose_Canadian.jpg","3","old",1,699,"random"
"921",4,1,193,"Kite_Rainbow.jpg",".","new",1,721,"random"
"922",4,1,194,"ElasticBand.jpg",".","new",1,737,"random"
"923",4,1,195,"Apple_RedAndGreen.jpg","1","old",1,1289,"random"
"924",4,1,196,"Pitcher.jpg","1","new",0,786,"random"
"925",4,1,197,"Hockey_Equipment.jpg",".","new",1,690,"random"
"926",4,1,199,"Microphone.jpg",".","new",1,1568,"random"
"927",4,1,200,"Cup_Styrofoam.jpg","3","old",1,753,"random"
"928",4,1,201,"Waffle.jpg",".","new",1,1145,"random"
"929",4,1,202,"PassionFruit.jpg","3","old",1,670,"random"
"930",4,1,203,"Statue_VirginMary.jpg",".","new",1,791,"random"
"931",4,1,204,"Knee.jpg","3","old",1,792,"random"
"932",4,1,205,"Shoes_DutchClogs.jpg","1","old",1,1330,"random"
"933",4,1,206,"Toy_BlocksPlastic Colourful.jpg","1","new",0,761,"random"
"934",4,1,207,"LampPost_OneBulb.jpg",".","new",1,674,"random"
"935",4,1,208,"CookieCutter_Tree.jpg",".","new",1,1227,"random"
"936",4,1,209,"Baster.jpg",".","new",1,564,"random"
"937",4,1,210,"AnsweringMachine.jpg",".","new",1,725,"random"
"938",4,1,211,"Drum_Brazilan.jpg",".","new",1,685,"random"
"939",4,1,212,"CameoPortrait.jpg","1","old",1,967,"random"
"940",4,1,213,"Mattress.jpg","3","old",1,783,"random"
"941",4,1,214,"Desk_School.jpg","3","old",1,744,"random"
"942",4,1,215,"Fruit_Cactus.jpg","1","old",1,830,"random"
"943",4,1,216,"Bullet.jpg","3","old",1,697,"random"
"944",4,1,217,"Sign_Wetfloor.jpg","3","old",1,635,"random"
"945",4,1,218,"Broom_Long.jpg",".","new",1,691,"random"
"946",4,1,219,"Mop.jpg","1","old",1,906,"random"
"947",4,1,220,"Tortilla.jpg","3","old",1,788,"random"
"948",4,1,221,"JukeboxAntique.jpg","3","old",1,757,"random"
"949",4,1,222,"Chair_MedicalToilet.jpg","1","old",1,860,"random"
"950",4,1,223,"Shield_Antique.jpg",".","old",0,582,"random"
"951",4,1,224,"Light_Siren.jpg","1","new",0,821,"random"
"952",4,1,225,"Toolbox_RedOpen.jpg",".","new",1,662,"random"
"953",4,1,226,"Fortress.jpg","1","old",1,711,"random"
"954",4,1,227,"Lamp_TableWhite.jpg",".","new",1,688,"random"
"955",4,1,228,"Toy_GasPump.jpg","3","old",1,705,"random"
"956",4,1,229,"Ashtray_Empty.jpg","3","old",1,632,"random"
"957",4,1,230,"BadgeSpecialAgent.jpg","3","old",1,578,"random"
"958",4,1,231,"CrepeMaker.jpg",".","new",1,826,"random"
"959",4,1,232,"PaperStack.jpg",".","new",1,810,"random"
"960",4,1,233,"Hippopotamus.jpg","3","old",1,667,"random"
"961",4,1,234,"Mask_Happy.jpg","1","old",1,971,"random"
"962",4,1,235,"GasBurner.jpg","1","old",1,900,"random"
"963",4,1,236,"Seashell_AlternateTellin.jpg",".","new",1,765,"random"
"964",4,1,237,"Oyster.jpg","3","old",1,709,"random"
"965",4,1,238,"Spoon_Wooden.jpg","3","old",1,735,"random"
"966",4,1,239,"SewingMachine.jpg",".","new",1,816,"random"
"967",4,1,240,"Tickets_Blank.jpg","3","old",1,833,"random"
"968",4,1,241,"PedestalGreek.jpg",".","new",1,688,"random"
"969",4,1,242,"Box_FirstAidOpen.jpg",".","new",1,817,"random"
"970",4,1,243,"PanCooking.jpg",".","new",1,903,"random"
"971",4,1,244,"TartStrawberry.jpg","3","old",1,712,"random"
"972",4,1,245,"Helmet_Construction.jpg","1","old",1,1711,"random"
"973",4,1,246,"Boots_KneeHigh.jpg",".","new",1,625,"random"
"974",4,1,247,"Helmet_Soldier.jpg","1","old",1,1498,"random"
"975",4,1,248,"Strainer_Tea.jpg",".","new",1,714,"random"
"976",4,1,249,"Colander.jpg","1","old",1,811,"random"
"977",4,1,250,"Statue_SouthAmerican.jpg",".","new",1,659,"random"
"978",4,1,251,"Peppermill.jpg","1","old",1,773,"random"
"979",4,1,252,"Tribunal_Wooden.jpg",".","new",1,605,"random"
"980",4,1,253,"Dolphine.jpg",".","new",1,734,"random"
"981",4,1,254,"Steeple.jpg","3","old",1,783,"random"
"982",4,1,255,"SaxophoneSoprano.jpg",".","new",1,609,"random"
"983",4,1,256,"Hottub.jpg",".","new",1,778,"random"
"984",4,1,257,"MixingGlass.jpg","1","new",0,635,"random"
"985",4,1,258,"Blanket.jpg","1","old",1,787,"random"
"986",4,1,259,"Spoons_MeasuringDetached.jpg","1","new",0,605,"random"
"987",4,1,260,"Toolbox_Old.jpg",".","new",1,1073,"random"
"988",4,1,261,"Screw.jpg",".","new",1,630,"random"
"989",4,1,262,"Box_Floral.jpg","3","old",1,718,"random"
"990",4,1,263,"HumanSkeleton.jpg",".","new",1,559,"random"
"991",4,1,265,"Caterpillar.jpg",".","new",1,839,"random"
"992",4,1,266,"Playground.jpg",".","new",1,681,"random"
"993",4,1,267,"BicycleOdometer.jpg",".","new",1,553,"random"
"994",4,1,268,"Lock_Combination.jpg","1","new",0,577,"random"
"995",4,1,269,"Toy_BearBlackPlastic.jpg",".","new",1,739,"random"
"996",4,1,270,"Toys_Lego.jpg","1","new",0,848,"random"
"997",4,1,271,"Tripod.jpg","1","new",0,664,"random"
"998",4,1,272,"Hat_Baseball.jpg",".","new",1,577,"random"
"999",4,1,273,"Gun_Glue.jpg",".","new",1,578,"random"
"1000",4,1,274,"Pasta_Spaghetti.jpg",".","new",1,538,"random"
"1001",4,1,275,"Box_Jewellery.jpg","1","new",0,482,"random"
"1002",4,1,276,"TurkeyDinner.jpg",".","new",1,515,"random"
"1003",4,1,277,"Thermostat.jpg",".","new",1,468,"random"
"1004",4,1,278,"Jug_Milk.jpg",".","new",1,557,"random"
"1005",4,1,279,"Toy_RockingHorseBlack.jpg","1","new",0,549,"random"
"1006",4,1,280,"RemoteControl.jpg","3","old",1,859,"random"
"1007",4,1,281,"ShoppingCart.jpg",".","new",1,691,"random"
"1008",4,1,282,"ShearsGarden.jpg",".","new",1,821,"random"
"1009",4,1,283,"Shampoo.jpg","3","old",1,749,"random"
"1010",4,1,284,"ShoulderPads.jpg","1","new",0,613,"random"
"1011",4,1,285,"Bindings_Snowboard.jpg",".","new",1,790,"random"
"1012",4,1,286,"Frame_Oval.jpg",".","new",1,710,"random"
"1013",4,1,287,"Exercise_Machine.jpg",".","new",1,740,"random"
"1014",4,1,288,"Hammer_Reflex.jpg","1","old",1,933,"random"
"1015",4,1,289,"PuppetTheatre_WhiteGold.jpg","3","old",1,982,"random"
"1016",4,1,290,"Guitar_Acoustic.jpg","1","new",0,782,"random"
"1017",4,1,291,"fries.jpg","1","old",1,918,"random"
"1018",4,1,292,"Fuse.jpg","3","old",1,623,"random"
"1019",4,1,293,"Fencing_HelmetSwords.jpg",".","old",0,879,"random"
"1020",4,1,294,"Cantaloupe.jpg","1","old",1,616,"random"
"1021",4,1,295,"Hammer.jpg",".","old",0,793,"random"
"1022",4,1,296,"KeyHook_Occupied.jpg",".","new",1,625,"random"
"1023",4,1,297,"AmpMeter.jpg","3","old",1,754,"random"
"1024",4,1,298,"FlashlightHeadBand.jpg","1","old",1,883,"random"
"1025",4,1,299,"Pickaxe.jpg",".","new",1,859,"random"
"1026",4,1,300,"TeethMould.jpg","3","old",1,693,"random"
"1027",4,1,301,"Dart.jpg",".","new",1,756,"random"
"1028",4,1,302,"Leaf_Clover.jpg","1","old",1,685,"random"
"1029",4,1,303,"Shoe_Pink.jpg",".","new",1,710,"random"
"1030",4,1,304,"Helmet_Knight.jpg",".","new",1,714,"random"
"1031",4,1,305,"Clock_Radio.jpg",".","new",1,707,"random"
"1032",4,1,306,"Bandage_Wrap.jpg",".","new",1,754,"random"
"1033",4,1,307,"Exercise_Stretch.jpg","1","old",1,932,"random"
"1034",4,1,308,"Bench_Wooden.jpg",".","new",1,763,"random"
"1035",4,1,309,"Lantern_TeaBox.jpg","1","new",0,811,"random"
"1036",4,1,310,"Paratrooper.jpg","3","old",1,723,"random"
"1037",4,1,311,"DrinkingFountain.jpg","1","new",0,724,"random"
"1038",4,1,312,"Wheelbarrow_Green.jpg","1","new",0,773,"random"
"1039",4,1,313,"Notebook.jpg","1","new",0,806,"random"
"1040",4,1,314,"Glove_Rubber.jpg","3","old",1,591,"random"
"1041",4,1,315,"Can_OilSpout.jpg",".","new",1,679,"random"
"1042",4,1,316,"Makeup_Foundation.jpg",".","old",0,784,"random"
"1043",4,1,317,"Cabinet_Display.jpg",".","new",1,849,"random"
"1044",4,1,318,"Dress_Blue.jpg",".","new",1,706,"random"
"1045",4,1,319,"NeedlesAcupuncture.jpg","3","old",1,945,"random"
"1046",4,1,320,"Golf_Bag.jpg","1","old",1,859,"random"
"1047",4,1,321,"WireStripper.jpg","1","old",1,595,"random"
"1048",4,1,322,"Chopsticks.jpg",".","new",1,804,"random"
"1049",4,1,323,"Mug_Beer.jpg","1","old",1,853,"random"
"1050",4,1,325,"MouthGuard.jpg","","old",1,719,"random"
"1051",5,1,1,"MouthGuard.jpg","3","old",1,794,"random"
"1052",5,1,2,"Mango.jpg","1","new",0,811,"random"
"1053",5,1,3,"Ball_Disco.jpg",".","new",1,902,"random"
"1054",5,1,4,"Toy_Shapesorter.jpg","1","new",0,1426,"random"
"1055",5,1,5,"Hat_Baseball.jpg",".","new",1,843,"random"
"1056",5,1,6,"PaintRollTray.jpg","3","old",1,925,"random"
"1057",5,1,7,"Jar_JellyBeans.jpg","3","old",1,720,"random"
"1058",5,1,8,"Candy_Heart.jpg","3","old",1,643,"random"
"1059",5,1,9,"Arch.jpg",".","new",1,615,"random"
"1060",5,1,10,"Glass_Martini.jpg",".","new",1,722,"random"
"1061",5,1,11,"ShoppingCart.jpg",".","new",1,572,"random"
"1062",5,1,12,"Fish_Rockbass.jpg","1","old",1,941,"random"
"1063",5,1,13,"Socks_Winter.jpg",".","new",1,783,"random"
"1064",5,1,14,"SmokeDetector.jpg","1","new",0,1130,"random"
"1065",5,1,15,"Pipe.jpg",".","new",1,899,"random"
"1066",5,1,16,"Comb.jpg",".","new",1,461,"random"
"1067",5,1,17,"Boots_KneeHigh.jpg",".","new",1,607,"random"
"1068",5,1,18,"Bottle_Blue.jpg","3","new",0,561,"random"
"1069",5,1,19,"Keg.jpg","1","new",0,747,"random"
"1070",5,1,20,"Car_Sedan.jpg","3","old",1,669,"random"
"1071",5,1,21,"Wheel_Steering.jpg",".","new",1,584,"random"
"1072",5,1,22,"Kite_Rainbow.jpg",".","new",1,1513,"random"
"1073",5,1,23,"Saw.jpg","1","old",1,835,"random"
"1074",5,1,24,"Chair_BeanBag.jpg","3","new",0,1277,"random"
"1075",5,1,25,"Beater_Electric.jpg","3","old",1,727,"random"
"1076",5,1,26,"CoffeeGrinder.jpg",".","new",1,825,"random"
"1077",5,1,27,"Sink_Bathroom.jpg",".","new",1,915,"random"
"1078",5,1,28,"Bomb.jpg",".","new",1,1069,"random"
"1079",5,1,29,"Dress_Party.jpg","1","new",0,1151,"random"
"1080",5,1,30,"ReindeerHeadband.jpg",".","new",1,1129,"random"
"1081",5,1,31,"DentistOverheadLight.jpg","1","new",0,755,"random"
"1082",5,1,32,"BicycleGear.jpg",".","new",1,621,"random"
"1083",5,1,33,"Can_OilSpout.jpg",".","new",1,927,"random"
"1084",5,1,34,"House_Rural.jpg",".","new",1,721,"random"
"1085",5,1,35,"ButterDish.jpg","1","new",0,564,"random"
"1086",5,1,36,"BicycleOdometer.jpg",".","new",1,671,"random"
"1087",5,1,37,"Hammer.jpg",".","new",1,665,"random"
"1088",5,1,38,"PaintBrushAndPallette.jpg","3","old",1,1274,"random"
"1089",5,1,39,"Teabag.jpg","3","old",1,1021,"random"
"1090",5,1,40,"Candy_Chocolate.jpg","1","new",0,799,"random"
"1091",5,1,41,"Outhouse.jpg",".","old",0,1274,"random"
"1092",5,1,42,"Waffle.jpg",".","new",1,1220,"random"
"1093",5,1,43,"BusStop.jpg","1","new",0,1143,"random"
"1094",5,1,44,"Fencing_HelmetSwords.jpg",".","new",1,992,"random"
"1095",5,1,45,"TinChristmas.jpg","1","old",1,922,"random"
"1096",5,1,46,"SaxophoneSoprano.jpg",".","new",1,829,"random"
"1097",5,1,47,"Autocreeper.jpg","1","new",0,927,"random"
"1098",5,1,48,"Statue_SouthAmerican.jpg",".","new",1,584,"random"
"1099",5,1,49,"Pants_Jeans.jpg","1","new",0,898,"random"
"1100",5,1,50,"PedestalGreek.jpg",".","new",1,981,"random"
"1101",5,1,51,"GPS.jpg","3","new",0,830,"random"
"1102",5,1,52,"Mitt_Oven.jpg","1","new",0,1200,"random"
"1103",5,1,53,"Flower_Hibiscus.jpg",".","new",1,1130,"random"
"1104",5,1,54,"Toy_Moose.jpg","3","old",1,701,"random"
"1105",5,1,55,"Stove_Camping.jpg","3","new",0,670,"random"
"1106",5,1,56,"CookieCutter_Bell.jpg","1","new",0,672,"random"
"1107",5,1,57,"Flower_Orchid.jpg",".","new",1,803,"random"
"1108",5,1,58,"Knife_Butter.jpg",".","new",1,822,"random"
"1109",5,1,59,"Toy_BearBlackPlastic.jpg",".","new",1,728,"random"
"1110",5,1,60,"DoorBell.jpg","1","old",1,842,"random"
"1111",5,1,61,"Trophy.jpg","3","new",0,644,"random"
"1112",5,1,62,"SculptureMetalFish.jpg","1","new",0,766,"random"
"1113",5,1,63,"Switch_LightWhite.jpg",".","new",1,640,"random"
"1114",5,1,64,"ContactLens.jpg",".","old",0,570,"random"
"1115",5,1,65,"Almond.jpg","1","new",0,1028,"random"
"1116",5,1,67,"SewingMachine.jpg",".","old",0,1122,"random"
"1117",5,1,68,"FlipFlop_PairBlue.jpg",".","new",1,652,"random"
"1118",5,1,69,"MonkeyPuppet.jpg","3","old",1,799,"random"
"1119",5,1,70,"FireExtinguisher.jpg","1","new",0,1144,"random"
"1120",5,1,71,"LeatherPuncherTool.jpg","3","old",1,922,"random"
"1121",5,1,72,"Bottle_BubbleBlower.jpg",".","new",1,853,"random"
"1122",5,1,73,"Icepick.jpg",".","new",1,647,"random"
"1123",5,1,74,"Sign_Parking.jpg","3","old",1,632,"random"
"1124",5,1,75,"Bowl_Chinese.jpg","3","new",0,937,"random"
"1125",5,1,76,"DoorKnob.jpg","3","old",1,1474,"random"
"1126",5,1,77,"Pipe_Drain.jpg","1","new",0,1860,"random"
"1127",5,1,78,"Broom_Long.jpg",".","new",1,1246,"random"
"1128",5,1,79,"HairDryer.jpg","1","new",0,585,"random"
"1129",5,1,80,"Chest.jpg","1","new",0,730,"random"
"1130",5,1,81,"Table_Poker.jpg","1","new",0,604,"random"
"1131",5,1,82,"WindowBlinds.jpg","3","new",0,694,"random"
"1132",5,1,83,"Pot_Cooking.jpg",".","new",1,888,"random"
"1133",5,1,84,"ChessPiece_Knight.jpg",".","new",1,698,"random"
"1134",5,1,85,"OnionRed.jpg",".","new",1,756,"random"
"1135",5,1,86,"Toy_Witch.jpg","3","old",1,846,"random"
"1136",5,1,87,"Pineapple.jpg","3","old",1,736,"random"
"1137",5,1,88,"Ball_8.jpg",".","new",1,802,"random"
"1138",5,1,89,"Thermostat_Digital.jpg","1","new",0,868,"random"
"1139",5,1,90,"BottleOpener.jpg","1","new",0,1357,"random"
"1140",5,1,91,"CandyDispenser.jpg","1","old",1,968,"random"
"1141",5,1,92,"Bird_Cardinal.jpg","3","0",0,1997,"random"
"1142",5,1,93,"Currants.jpg",".","new",1,1261,"random"
"1143",5,1,94,"Phone_Wireless.jpg","3","new",0,880,"random"
"1144",5,1,95,"Flamingo_Cartoon.jpg","1","old",1,866,"random"
"1145",5,1,96,"KeyHook_Occupied.jpg",".","new",1,1045,"random"
"1146",5,1,97,"Cassette_Audio.jpg","3","old",1,1161,"random"
"1147",5,1,98,"DogTreat.jpg","1","new",0,1260,"random"
"1148",5,1,99,"Truck_Dump.jpg",".","new",1,697,"random"
"1149",5,1,100,"IceCrusher.jpg","3","new",0,675,"random"
"1150",5,1,101,"CartonEggs.jpg",".","new",1,725,"random"
"1151",5,1,102,"Screw.jpg",".","new",1,767,"random"
"1152",5,1,103,"Lollipop_Grape.jpg","1","old",1,697,"random"
"1153",5,1,104,"CrepeMaker.jpg",".","new",1,619,"random"
"1154",5,1,105,"Toy_TableSet.jpg",".","new",1,709,"random"
"1155",5,1,106,"Cake_Wedding.jpg","1","new",0,623,"random"
"1156",5,1,107,"Seashell_AlternateTellin.jpg",".","new",1,651,"random"
"1157",5,1,108,"MonaLisa.jpg","1","old",1,813,"random"
"1158",5,1,109,"Chipmunk.jpg",".","new",1,815,"random"
"1159",5,1,110,"Speaker_OnStand.jpg","3","new",0,793,"random"
"1160",5,1,111,"Generator.jpg","3","old",1,1091,"random"
"1161",5,1,112,"Flute_Wooden.jpg","1","new",0,845,"random"
"1162",5,1,113,"TireRims.jpg",".","new",1,871,"random"
"1163",5,1,114,"Iron_Antique.jpg",".","new",1,649,"random"
"1164",5,1,115,"Cabinet_Office.jpg",".","new",1,794,"random"
"1165",5,1,116,"Hourglass.jpg","3","new",0,749,"random"
"1166",5,1,117,"PotatoMasher_Zigzag.jpg","3","new",0,1071,"random"
"1167",5,1,118,"CookieCutter_Tree.jpg",".","new",1,849,"random"
"1168",5,1,119,"Clip_Paper.jpg","3","new",0,618,"random"
"1169",5,1,120,"DivingBoard.jpg",".","new",1,565,"random"
"1170",5,1,121,"Balalaika.jpg","3","old",1,783,"random"
"1171",5,1,122,"Thermos_MetalSleek.jpg",".","new",1,672,"random"
"1172",5,1,123,"BicycleBrake.jpg","1","new",0,860,"random"
"1173",5,1,124,"Hazelnut.jpg",".","new",1,895,"random"
"1174",5,1,125,"Bellows.jpg","3","new",0,656,"random"
"1175",5,1,126,"Pen_Ballpoint.jpg",".","new",1,876,"random"
"1176",5,1,127,"Carbiner_Ascender.jpg",".","new",1,561,"random"
"1177",5,1,128,"Makeup_Foundation.jpg",".","new",1,682,"random"
"1178",5,1,129,"Sushi.jpg","1","new",0,916,"random"
"1179",5,1,130,"DryRack_Dishes.jpg","3","new",0,886,"random"
"1180",5,1,131,"SkullDeer.jpg",".","new",1,1112,"random"
"1181",5,1,133,"Case_DVD.jpg",".","new",1,806,"random"
"1182",5,1,134,"Knife_Hunting.jpg","3","old",1,985,"random"
"1183",5,1,135,"BicycleHandleGrip.jpg","1","new",0,683,"random"
"1184",5,1,136,"Guitarcase.jpg","3","new",0,556,"random"
"1185",5,1,137,"Fridge.jpg",".","new",1,502,"random"
"1186",5,1,138,"Lilypad.jpg","3","old",1,745,"random"
"1187",5,1,139,"BicyclePedal.jpg","3","new",0,619,"random"
"1188",5,1,140,"Bathtub.jpg","1","new",0,644,"random"
"1189",5,1,141,"Brace_Back.jpg",".","new",1,703,"random"
"1190",5,1,142,"Trumpet.jpg","3","new",0,825,"random"
"1191",5,1,143,"Radio_Vintage.jpg",".","new",1,666,"random"
"1192",5,1,144,"Helmet_Knight.jpg",".","new",1,792,"random"
"1193",5,1,145,"Tribunal_Wooden.jpg",".","new",1,851,"random"
"1194",5,1,146,"PropellerFan.jpg",".","new",1,652,"random"
"1195",5,1,147,"Toy_StackingRing.jpg","3","new",0,606,"random"
"1196",5,1,148,"Dolphine.jpg",".","new",1,752,"random"
"1197",5,1,149,"Nyala.jpg","3","old",1,644,"random"
"1198",5,1,150,"Toolbox_Old.jpg",".","new",1,566,"random"
"1199",5,1,151,"Bottle_Wine.jpg","1","new",0,864,"random"
"1200",5,1,152,"PanCooking.jpg",".","new",1,721,"random"
"1201",5,1,153,"Cabinet_Display.jpg",".","new",1,580,"random"
"1202",5,1,155,"WashRack.jpg","1","new",0,665,"random"
"1203",5,1,156,"Microphone.jpg",".","new",1,724,"random"
"1204",5,1,157,"Caterpillar.jpg",".","new",1,1166,"random"
"1205",5,1,158,"Crutches.jpg",".","new",1,944,"random"
"1206",5,1,159,"Hook_Fish.jpg","3","new",0,1212,"random"
"1207",5,1,160,"Drink_Green.jpg","3","new",0,678,"random"
"1208",5,1,161,"SundaeBanana.jpg",".","new",1,688,"random"
"1209",5,1,162,"Mat_Door.jpg","3","new",0,825,"random"
"1210",5,1,163,"Bell_Hand.jpg",".","new",1,932,"random"
"1211",5,1,164,"Gorilla.jpg",".","new",1,806,"random"
"1212",5,1,166,"Box_FirstAidOpen.jpg",".","new",1,897,"random"
"1213",5,1,167,"Cherry.jpg","3","old",1,676,"random"
"1214",5,1,168,"Tape_Washi.jpg",".","new",1,685,"random"
"1215",5,1,169,"Shield_Antique.jpg",".","new",1,615,"random"
"1216",5,1,171,"BicycleChain.jpg",".","new",1,1140,"random"
"1217",5,1,172,"StringBean.jpg","3","old",1,661,"random"
"1218",5,1,173,"Chinchilla.jpg",".","new",1,895,"random"
"1219",5,1,174,"Pasta_Spaghetti.jpg",".","new",1,1081,"random"
"1220",5,1,175,"NailPolish.jpg","3","new",0,515,"random"
"1221",5,1,176,"Chest_Toys.jpg","3","new",0,845,"random"
"1222",5,1,179,"Statue_VirginMary.jpg",".","new",1,819,"random"
"1223",5,1,180,"Megaphone.jpg","3","old",1,927,"random"
"1224",5,1,181,"Skates.jpg","3","new",0,860,"random"
"1225",5,1,182,"Goose_Canadian.jpg","3","old",1,773,"random"
"1226",5,1,183,"Tire_Hollow.jpg",".","new",1,689,"random"
"1227",5,1,184,"Crib_Basket.jpg",".","new",1,827,"random"
"1228",5,1,185,"Thermostat.jpg",".","new",1,621,"random"
"1229",5,1,186,"Apple_RedAndGreen.jpg","1","old",1,591,"random"
"1230",5,1,187,"Loofa.jpg",".","new",1,705,"random"
"1231",5,1,188,"Pitcher.jpg","1","new",0,666,"random"
"1232",5,1,190,"Beaker.jpg",".","new",1,695,"random"
"1233",5,1,191,"Sock_Ankle.jpg",".","new",1,650,"random"
"1234",5,1,192,"PassionFruit.jpg","3","old",1,845,"random"
"1235",5,1,193,"Box_Present.jpg",".","new",1,831,"random"
"1236",5,1,194,"ElasticBand.jpg",".","new",1,1057,"random"
"1237",5,1,195,"Knee.jpg","3","old",1,1082,"random"
"1238",5,1,196,"Cross.jpg",".","new",1,933,"random"
"1239",5,1,199,"MobilityScooter.jpg",".","new",1,817,"random"
"1240",5,1,200,"Shoes_DutchClogs.jpg","1","new",0,531,"random"
"1241",5,1,201,"Toy_BlocksPlastic Colourful.jpg","1","new",0,357,"random"
"1242",5,1,202,"Jar_Cotton.jpg",".","new",1,519,"random"
"1243",5,1,203,"KitchenTools.jpg",".","new",1,712,"random"
"1244",5,1,204,"CameoPortrait.jpg","1","new",0,499,"random"
"1245",5,1,206,"Mattress.jpg","3","new",0,576,"random"
"1246",5,1,207,"Desk_School.jpg","3","new",0,707,"random"
"1247",5,1,208,"Fruit_Cactus.jpg","1","new",0,829,"random"
"1248",5,1,210,"Decoration_WallOrnament.jpg",".","new",1,576,"random"
"1249",5,1,212,"Frame_Oval.jpg",".","new",1,559,"random"
"1250",5,1,213,"Hoverboard.jpg",".","new",1,728,"random"
"1251",5,1,215,"Glass_Cup.jpg",".","new",1,933,"random"
"1252",5,1,218,"Mop.jpg","1","new",0,394,"random"
"1253",5,1,219,"PaperStack.jpg",".","new",1,620,"random"
"1254",5,1,220,"Tortilla.jpg","3","old",1,838,"random"
"1255",5,1,221,"GranolaBar.jpg",".","new",1,688,"random"
"1256",5,1,223,"Chair_MedicalToilet.jpg","1","new",0,636,"random"
"1257",5,1,224,"Dart.jpg",".","new",1,454,"random"
"1258",5,1,225,"Toolbox_RedOpen.jpg",".","new",1,1072,"random"
"1259",5,1,226,"Playground.jpg",".","new",1,1084,"random"
"1260",5,1,227,"Light_Siren.jpg","1","new",0,654,"random"
"1261",5,1,228,"Toy_PoliceCar.jpg",".","new",1,1136,"random"
"1262",5,1,229,"Fortress.jpg","1","new",0,1153,"random"
"1263",5,1,230,"Toy_GasPump.jpg","3","old",1,844,"random"
"1264",5,1,231,"Ashtray_Empty.jpg","3","new",0,742,"random"
"1265",5,1,232,"BadgeSpecialAgent.jpg","3","new",0,639,"random"
"1266",5,1,233,"Hippopotamus.jpg","3","old",1,601,"random"
"1267",5,1,234,"Mask_Happy.jpg","1","new",0,636,"random"
"1268",5,1,235,"GasBurner.jpg","1","new",0,1062,"random"
"1269",5,1,236,"Gun_Glue.jpg",".","new",1,1367,"random"
"1270",5,1,237,"Spatula_1.jpg",".","new",1,634,"random"
"1271",5,1,238,"Toy_SeeSaw.jpg",".","new",1,590,"random"
"1272",5,1,239,"Oyster.jpg","3","old",1,735,"random"
"1273",5,1,240,"DrillBit.jpg",".","new",1,698,"random"
"1274",5,1,241,"Spoon_Wooden.jpg","3","new",0,932,"random"
"1275",5,1,242,"Strainer_Tea.jpg",".","new",1,637,"random"
"1276",5,1,243,"HumanSkeleton.jpg",".","new",1,535,"random"
"1277",5,1,244,"ShearsGarden.jpg",".","new",1,682,"random"
"1278",5,1,245,"Tickets_Blank.jpg","3","new",0,596,"random"
"1279",5,1,246,"Brooch_Fish.jpg",".","new",1,655,"random"
"1280",5,1,247,"Hawk.jpg",".","new",1,593,"random"
"1281",5,1,248,"TurkeyDinner.jpg",".","new",1,324,"random"
"1282",5,1,249,"TartStrawberry.jpg","3","new",0,327,"random"
"1283",5,1,250,"Lamp_TableWhite.jpg",".","new",1,713,"random"
"1284",5,1,254,"SafetyPin.jpg",".","new",1,471,"random"
"1285",5,1,255,"Helmet_Soldier.jpg","1","new",0,595,"random"
"1286",5,1,257,"Peppermill.jpg","1","new",0,1711,"random"
"1287",5,1,258,"Steeple.jpg","3","new",0,1858,"random"
"1288",5,1,259,"Pajamas.jpg",".","new",1,731,"random"
"1289",5,1,260,"MixingGlass.jpg","1","new",0,1485,"random"
"1290",5,1,261,"Bench_Wooden.jpg",".","new",1,1367,"random"
"1291",5,1,262,"Chopsticks.jpg",".","new",1,409,"random"
"1292",5,1,263,"Lighter_Yellow.jpg",".","new",1,379,"random"
"1293",5,1,265,"Blanket.jpg","1","old",1,1088,"random"
"1294",5,1,266,"Spoons_MeasuringDetached.jpg","1","new",0,1225,"random"
"1295",5,1,267,"Box_Floral.jpg","3","old",1,1371,"random"
"1296",5,1,268,"Syrup_Maple.jpg",".","new",1,685,"random"
"1297",5,1,269,"Pickaxe.jpg",".","new",1,711,"random"
"1298",5,1,270,"Lock_Combination.jpg","1","new",0,993,"random"
"1299",5,1,273,"Box_Jewellery.jpg","1","new",0,1575,"random"
"1300",5,1,274,"SkiPoles.jpg",".","new",1,1321,"random"
"1301",5,1,275,"CuttingBoard.jpg",".","new",1,1523,"random"
"1302",5,1,276,"BloodpPresureCuff.jpg",".","new",1,612,"random"
"1303",5,1,277,"Toy_RockingHorseBlack.jpg","1","new",0,823,"random"
"1304",5,1,278,"PaintRoller.jpg",".","new",1,723,"random"
"1305",5,1,279,"Bindings_Snowboard.jpg",".","new",1,636,"random"
"1306",5,1,284,"ShoulderPads.jpg","1","new",0,1247,"random"
"1307",5,1,285,"Hammer_Reflex.jpg","1","new",0,465,"random"
"1308",5,1,288,"PuppetTheatre_WhiteGold.jpg","3","old",1,839,"random"
"1309",5,1,289,"Guitar_Acoustic.jpg","1","new",0,792,"random"
"1310",5,1,290,"fries.jpg","1","old",1,1144,"random"
"1311",5,1,291,"Bandage_Wrap.jpg",".","new",1,619,"random"
"1312",5,1,292,"Fuse.jpg","3","new",0,527,"random"
"1313",5,1,293,"Cannister_Gas.jpg",".","new",1,448,"random"
"1314",5,1,294,"AnsweringMachine.jpg",".","new",1,330,"random"
"1315",5,1,295,"Cantaloupe.jpg","1","old",1,565,"random"
"1316",5,1,296,"AmpMeter.jpg","3","new",0,520,"random"
"1317",5,1,299,"FlashlightHeadBand.jpg","1","new",0,358,"random"
"1318",5,1,300,"ToothPaste.jpg",".","new",1,544,"random"
"1319",5,1,301,"TeethMould.jpg","3","new",0,946,"random"
"1320",5,1,302,"RibbonSpool.jpg",".","new",1,1116,"random"
"1321",5,1,303,"LampPost_OneBulb.jpg",".","new",1,856,"random"
"1322",5,1,304,"Leaf_Clover.jpg","1","new",0,548,"random"
"1323",5,1,305,"Dress_Blue.jpg",".","new",1,581,"random"
"1324",5,1,306,"Exercise_Stretch.jpg","1","new",0,880,"random"
"1325",5,1,308,"Paratrooper.jpg","3","old",1,804,"random"
"1326",5,1,309,"DrinkingFountain.jpg","1","new",0,725,"random"
"1327",5,1,310,"Exercise_Machine.jpg",".","new",1,496,"random"
"1328",5,1,311,"Wheelbarrow_Green.jpg","1","new",0,842,"random"
"1329",5,1,312,"Notebook.jpg","1","new",0,1115,"random"
"1330",5,1,313,"Baster.jpg",".","new",1,757,"random"
"1331",5,1,314,"Boardgame_Checkers.jpg",".","new",1,760,"random"
"1332",5,1,315,"Glove_Rubber.jpg","3","new",0,1257,"random"
"1333",5,1,316,"Tofu.jpg",".","new",1,1069,"random"
"1334",5,1,317,"Bugle.jpg",".","new",1,808,"random"
"1335",5,1,318,"Telescope.jpg",".","new",1,1097,"random"
"1336",5,1,319,"Clock_Radio.jpg",".","0",0,1997,"random"
"1337",5,1,320,"NeedlesAcupuncture.jpg","3","new",0,581,"random"
"1338",5,1,322,"Bell_Hand.jpg",".","new",1,851,"random"
"1339",5,1,324,"WireStripper.jpg","1","old",1,799,"random"
"1340",5,1,325,"Mug_Beer.jpg","1","old",1,633,"random"
"1341",6,1,1,"Box_FirstAidOpen.jpg",".","new",1,738,"random"
"1342",6,1,2,"Makeup_Foundation.jpg",".","new",1,957,"random"
"1343",6,1,3,"Toy_SeeSaw.jpg",".","new",1,856,"random"
"1344",6,1,4,"MouthGuard.jpg","3","old",1,684,"random"
"1345",6,1,5,"Mango.jpg","1","old",1,927,"random"
"1346",6,1,6,"Sign_TrafficArrow.jpg",".","new",1,834,"random"
"1347",6,1,7,"Toy_Shapesorter.jpg","1","old",1,758,"random"
"1348",6,1,8,"Pen_Ballpoint.jpg",".","new",1,665,"random"
"1349",6,1,9,"Caterpillar.jpg",".","new",1,788,"random"
"1350",6,1,10,"ChessPiece_Knight.jpg",".","new",1,871,"random"
"1351",6,1,11,"PaintRollTray.jpg","3","old",1,563,"random"
"1352",6,1,12,"Socks_Winter.jpg",".","new",1,702,"random"
"1353",6,1,13,"Toolbox_Old.jpg",".","new",1,969,"random"
"1354",6,1,14,"Jar_JellyBeans.jpg","3","old",1,941,"random"
"1355",6,1,15,"Candy_Heart.jpg","3","old",1,560,"random"
"1356",6,1,16,"Fish_Rockbass.jpg","1","old",1,1010,"random"
"1357",6,1,17,"SmokeDetector.jpg","1","new",0,879,"random"
"1358",6,1,18,"Bell_Hand.jpg",".","new",1,1097,"random"
"1359",6,1,19,"Bottle_Blue.jpg","3","old",1,861,"random"
"1360",6,1,20,"Jug_Milk.jpg",".","new",1,776,"random"
"1361",6,1,21,"Keg.jpg","1","new",0,1163,"random"
"1362",6,1,22,"Car_Sedan.jpg","3","old",1,550,"random"
"1363",6,1,23,"Tweezers.jpg",".","new",1,858,"random"
"1364",6,1,24,"Hat_Baseball.jpg",".","new",1,709,"random"
"1365",6,1,25,"Saw.jpg","1","old",1,704,"random"
"1366",6,1,26,"Chair_BeanBag.jpg","3","old",1,612,"random"
"1367",6,1,27,"Beater_Electric.jpg","3","old",1,631,"random"
"1368",6,1,28,"Ball_8.jpg",".","new",1,650,"random"
"1369",6,1,29,"Dress_Party.jpg","1","old",1,1478,"random"
"1370",6,1,30,"Fridge.jpg",".","new",1,657,"random"
"1371",6,1,31,"Jar_Cotton.jpg",".","new",1,924,"random"
"1372",6,1,32,"Broom_Long.jpg",".","new",1,760,"random"
"1373",6,1,33,"ShoppingCart.jpg",".","new",1,723,"random"
"1374",6,1,34,"Kite_Rainbow.jpg",".","new",1,686,"random"
"1375",6,1,35,"Telescope.jpg",".","new",1,882,"random"
"1376",6,1,36,"DentistOverheadLight.jpg","1","new",0,773,"random"
"1377",6,1,37,"Boxcutter.jpg",".","new",1,936,"random"
"1378",6,1,38,"ButterDish.jpg","1","old",1,876,"random"
"1379",6,1,39,"Pasta_Spaghetti.jpg",".","new",1,791,"random"
"1380",6,1,40,"Toy_PoliceCar.jpg",".","new",1,794,"random"
"1381",6,1,41,"Beaker.jpg",".","new",1,582,"random"
"1382",6,1,42,"PropellerFan.jpg",".","new",1,545,"random"
"1383",6,1,43,"PaintBrushAndPallette.jpg","3","old",1,660,"random"
"1384",6,1,44,"SaxophoneSoprano.jpg",".","new",1,752,"random"
"1385",6,1,45,"Flower_Orchid.jpg",".","new",1,779,"random"
"1386",6,1,46,"Teabag.jpg","3","old",1,798,"random"
"1387",6,1,47,"Candy_Chocolate.jpg","1","old",1,698,"random"
"1388",6,1,48,"CartonEggs.jpg",".","new",1,1341,"random"
"1389",6,1,49,"BusStop.jpg","1","new",0,1184,"random"
"1390",6,1,50,"TinChristmas.jpg","1","new",0,835,"random"
"1391",6,1,51,"FlipFlop_PairBlue.jpg",".","new",1,607,"random"
"1392",6,1,52,"AnsweringMachine.jpg",".","new",1,1186,"random"
"1393",6,1,53,"GranolaBar.jpg",".","new",1,1061,"random"
"1394",6,1,54,"Autocreeper.jpg","1","new",0,985,"random"
"1395",6,1,55,"Pants_Jeans.jpg","1","old",1,1108,"random"
"1396",6,1,56,"Bugle.jpg",".","new",1,783,"random"
"1397",6,1,57,"Tribunal_Wooden.jpg",".","new",1,1219,"random"
"1398",6,1,58,"GPS.jpg","3","old",1,965,"random"
"1399",6,1,59,"Radio_Vintage.jpg",".","new",1,664,"random"
"1400",6,1,60,"Mitt_Oven.jpg","1","old",1,868,"random"
"1401",6,1,61,"BicycleChain.jpg",".","new",1,647,"random"
"1402",6,1,62,"Toy_Moose.jpg","3","old",1,1378,"random"
"1403",6,1,63,"TireRims.jpg",".","new",1,582,"random"
"1404",6,1,64,"Stove_Camping.jpg","3","old",1,1209,"random"
"1405",6,1,65,"Dolphine.jpg",".","new",1,796,"random"
"1406",6,1,67,"CookieCutter_Bell.jpg","1","new",0,725,"random"
"1407",6,1,68,"ContactLens.jpg",".","new",1,616,"random"
"1408",6,1,69,"DoorBell.jpg","1","old",1,1884,"random"
"1409",6,1,70,"Pig.jpg",".","new",1,927,"random"
"1410",6,1,71,"Trophy.jpg","3","old",1,770,"random"
"1411",6,1,72,"SculptureMetalFish.jpg","1","old",1,837,"random"
"1412",6,1,73,"Switch_LightWhite.jpg",".","new",1,905,"random"
"1413",6,1,74,"House_Rural.jpg",".","new",1,660,"random"
"1414",6,1,75,"Thermos_MetalSleek.jpg",".","old",0,775,"random"
"1415",6,1,76,"Almond.jpg","1","old",1,995,"random"
"1416",6,1,77,"MonkeyPuppet.jpg","3","old",1,694,"random"
"1417",6,1,78,"FireExtinguisher.jpg","1","old",1,721,"random"
"1418",6,1,79,"LeatherPuncherTool.jpg","3","old",1,653,"random"
"1419",6,1,80,"Sign_Parking.jpg","3","old",1,584,"random"
"1420",6,1,81,"BicycleGear.jpg",".","new",1,1115,"random"
"1421",6,1,82,"Bottle_Specimen.jpg",".","new",1,631,"random"
"1422",6,1,83,"Bowl_Chinese.jpg","3","old",1,674,"random"
"1423",6,1,84,"Tofu.jpg",".","new",1,805,"random"
"1424",6,1,85,"DoorKnob.jpg","3","old",1,745,"random"
"1425",6,1,86,"Fencing_HelmetSwords.jpg",".","new",1,1564,"random"
"1426",6,1,87,"Lighter_Yellow.jpg",".","new",1,791,"random"
"1427",6,1,88,"Pipe_Drain.jpg","1","old",1,747,"random"
"1428",6,1,89,"Iron_Antique.jpg",".","new",1,670,"random"
"1429",6,1,90,"Carbiner_Ascender.jpg",".","new",1,977,"random"
"1430",6,1,91,"Thermostat.jpg",".","new",1,725,"random"
"1431",6,1,92,"HairDryer.jpg","1","new",0,775,"random"
"1432",6,1,93,"Chest.jpg","1","new",0,1082,"random"
"1433",6,1,94,"Table_Poker.jpg","1","new",0,806,"random"
"1434",6,1,95,"WindowBlinds.jpg","3","old",1,777,"random"
"1435",6,1,96,"Toy_Witch.jpg","3","old",1,796,"random"
"1436",6,1,97,"BoogieBoard.jpg",".","new",1,1112,"random"
"1437",6,1,98,"Pineapple.jpg","3","old",1,499,"random"
"1438",6,1,99,"Thermostat_Digital.jpg","1","old",1,726,"random"
"1439",6,1,100,"Gun_Glue.jpg",".","old",0,785,"random"
"1440",6,1,101,"BottleOpener.jpg","1","new",0,1445,"random"
"1441",6,1,102,"CandyDispenser.jpg","1","old",1,1272,"random"
"1442",6,1,103,"Bird_Cardinal.jpg","3","old",1,619,"random"
"1443",6,1,104,"Phone_Wireless.jpg","3","old",1,975,"random"
"1444",6,1,105,"LampPost_OneBulb.jpg",".","old",0,746,"random"
"1445",6,1,106,"KeyHook_Occupied.jpg",".","new",1,909,"random"
"1446",6,1,107,"Flamingo_Cartoon.jpg","1","old",1,577,"random"
"1447",6,1,108,"Baster.jpg",".","new",1,1020,"random"
"1448",6,1,109,"Cassette_Audio.jpg","3","old",1,696,"random"
"1449",6,1,110,"DogTreat.jpg","1","old",1,667,"random"
"1450",6,1,111,"CrepeMaker.jpg",".","new",1,1246,"random"
"1451",6,1,112,"IceCrusher.jpg","3","old",1,761,"random"
"1452",6,1,113,"Lollipop_Grape.jpg","1","old",1,661,"random"
"1453",6,1,114,"Hazelnut.jpg",".","new",1,776,"random"
"1454",6,1,115,"BloodpPresureCuff.jpg",".","new",1,915,"random"
"1455",6,1,117,"Chinchilla.jpg",".","new",1,778,"random"
"1456",6,1,118,"HumanSkeleton.jpg",".","new",1,1685,"random"
"1457",6,1,119,"Cake_Wedding.jpg","1","new",0,1249,"random"
"1458",6,1,120,"Glass_Martini.jpg",".","new",1,876,"random"
"1459",6,1,121,"Pipe.jpg",".","new",1,1031,"random"
"1460",6,1,122,"Loofa.jpg",".","new",1,835,"random"
"1461",6,1,123,"MonaLisa.jpg","1","old",1,1142,"random"
"1462",6,1,124,"Speaker_OnStand.jpg","3","new",0,1041,"random"
"1463",6,1,125,"PaintRoller.jpg",".","new",1,1141,"random"
"1464",6,1,126,"Generator.jpg","3","old",1,1160,"random"
"1465",6,1,127,"Flute_Wooden.jpg","1","new",0,851,"random"
"1466",6,1,128,"Hourglass.jpg","3","old",1,711,"random"
"1467",6,1,129,"PotatoMasher_Zigzag.jpg","3","new",0,1426,"random"
"1468",6,1,130,"Clip_Paper.jpg","3","old",1,812,"random"
"1469",6,1,131,"Balalaika.jpg","3","old",1,768,"random"
"1470",6,1,133,"Decoration_WallOrnament.jpg",".","new",1,1431,"random"
"1471",6,1,134,"BicycleBrake.jpg","1","new",0,946,"random"
"1472",6,1,135,"Bellows.jpg","3","old",1,1013,"random"
"1473",6,1,136,"PaperStack.jpg",".","new",1,721,"random"
"1474",6,1,137,"Screw.jpg",".","new",1,1020,"random"
"1475",6,1,138,"Cannister_Gas.jpg",".","new",1,815,"random"
"1476",6,1,139,"Sushi.jpg","1","old",1,947,"random"
"1477",6,1,140,"Icepick.jpg",".","new",1,1022,"random"
"1478",6,1,141,"DryRack_Dishes.jpg","3","old",1,825,"random"
"1479",6,1,142,"Cage_Bird.jpg",".","new",1,901,"random"
"1480",6,1,143,"Knife_Hunting.jpg","3","old",1,696,"random"
"1481",6,1,144,"BicycleHandleGrip.jpg","1","old",1,971,"random"
"1482",6,1,145,"Statue_VirginMary.jpg",".","new",1,831,"random"
"1483",6,1,146,"Boardgame_Checkers.jpg",".","new",1,754,"random"
"1484",6,1,147,"Lamp_TableWhite.jpg",".","old",0,1085,"random"
"1485",6,1,148,"ElasticBand.jpg",".","new",1,809,"random"
"1486",6,1,149,"Exercise_Machine.jpg",".","new",1,908,"random"
"1487",6,1,150,"Guitarcase.jpg","3","old",1,727,"random"
"1488",6,1,151,"Bindings_Snowboard.jpg",".","new",1,963,"random"
"1489",6,1,152,"Cabinet_Office.jpg",".","new",1,862,"random"
"1490",6,1,153,"Lilypad.jpg","3","old",1,593,"random"
"1491",6,1,154,"BicyclePedal.jpg","3","old",1,917,"random"
"1492",6,1,155,"Bathtub.jpg","1","new",0,1431,"random"
"1493",6,1,156,"Trumpet.jpg","3","old",1,779,"random"
"1494",6,1,157,"Bottle_BubbleBlower.jpg",".","new",1,1694,"random"
"1495",6,1,158,"Toy_StackingRing.jpg","3","old",1,682,"random"
"1496",6,1,159,"Nyala.jpg","3","old",1,828,"random"
"1497",6,1,160,"Dart.jpg",".","new",1,936,"random"
"1498",6,1,161,"Truck_Dump.jpg",".","new",1,707,"random"
"1499",6,1,162,"SewingMachine.jpg",".","new",1,814,"random"
"1500",6,1,163,"Bottle_Wine.jpg","1","new",0,1193,"random"
"1501",6,1,164,"Candle_Blue.jpg","1","old",1,797,"random"
"1502",6,1,165,"SkullDeer.jpg",".","new",1,824,"random"
"1503",6,1,166,"Shield_Antique.jpg",".","old",0,779,"random"
"1504",6,1,167,"WashRack.jpg","1","old",1,703,"random"
"1505",6,1,168,"Hawk.jpg",".","new",1,826,"random"
"1506",6,1,169,"Hook_Fish.jpg","3","old",1,1437,"random"
"1507",6,1,170,"OnionRed.jpg",".","new",1,833,"random"
"1508",6,1,171,"Crib_Basket.jpg",".","new",1,684,"random"
"1509",6,1,172,"Drink_Green.jpg","3","old",1,663,"random"
"1510",6,1,173,"SafetyPin.jpg",".","old",0,683,"random"
"1511",6,1,174,"Mat_Door.jpg","3","old",1,654,"random"
"1512",6,1,175,"Cherry.jpg","3","old",1,529,"random"
"1513",6,1,176,"IceCream_Chocolate.jpg","1","new",0,869,"random"
"1514",6,1,177,"RibbonSpool.jpg",".","new",1,736,"random"
"1515",6,1,178,"StringBean.jpg","3","old",1,587,"random"
"1516",6,1,179,"Seashell_AlternateTellin.jpg",".","new",1,743,"random"
"1517",6,1,180,"NailPolish.jpg","3","old",1,994,"random"
"1518",6,1,181,"Chest_Toys.jpg","3","old",1,773,"random"
"1519",6,1,182,"Wheel_Steering.jpg",".","new",1,697,"random"
"1520",6,1,183,"Outhouse.jpg",".","new",1,1212,"random"
"1521",6,1,184,"Toy_Lighthouse.jpg",".","new",1,1495,"random"
"1522",6,1,185,"DrillBit.jpg",".","new",1,723,"random"
"1523",6,1,186,"NintendoWii.jpg","3","old",1,942,"random"
"1524",6,1,187,"Megaphone.jpg","3","old",1,841,"random"
"1525",6,1,188,"Skates.jpg","3","new",0,717,"random"
"1526",6,1,189,"Goose_Canadian.jpg","3","old",1,688,"random"
"1527",6,1,190,"SkiPoles.jpg",".","new",1,1051,"random"
"1528",6,1,191,"Toolbox_RedOpen.jpg",".","new",1,1295,"random"
"1529",6,1,192,"Knife_Butter.jpg",".","new",1,706,"random"
"1530",6,1,193,"Apple_RedAndGreen.jpg","1","new",0,1581,"random"
"1531",6,1,194,"Pitcher.jpg","1","new",0,713,"random"
"1532",6,1,195,"Cup_Styrofoam.jpg","3","old",1,819,"random"
"1533",6,1,196,"Strainer_Tea.jpg",".","new",1,806,"random"
"1534",6,1,197,"Glass_Cup.jpg",".","new",1,666,"random"
"1535",6,1,199,"ShearsGarden.jpg",".","new",1,746,"random"
"1536",6,1,200,"Spatula_1.jpg",".","new",1,917,"random"
"1537",6,1,201,"PassionFruit.jpg","3","old",1,945,"random"
"1538",6,1,202,"Knee.jpg","3","old",1,660,"random"
"1539",6,1,203,"DivingBoard.jpg",".","new",1,839,"random"
"1540",6,1,204,"Shoes_DutchClogs.jpg","1","new",0,850,"random"
"1541",6,1,205,"Toy_BlocksPlastic Colourful.jpg","1","old",1,686,"random"
"1542",6,1,206,"Brooch_Fish.jpg",".","new",1,633,"random"
"1543",6,1,207,"CameoPortrait.jpg","1","new",0,644,"random"
"1544",6,1,208,"Mattress.jpg","3","old",1,672,"random"
"1545",6,1,209,"Desk_School.jpg","3","old",1,587,"random"
"1546",6,1,210,"Drum_Brazilan.jpg",".","new",1,782,"random"
"1547",6,1,211,"Fruit_Cactus.jpg","1","new",0,810,"random"
"1548",6,1,212,"Bullet.jpg","3","old",1,733,"random"
"1549",6,1,213,"Sign_Wetfloor.jpg","3","old",1,824,"random"
"1550",6,1,214,"Mop.jpg","1","new",0,860,"random"
"1551",6,1,215,"Tortilla.jpg","3","old",1,647,"random"
"1552",6,1,216,"Arch.jpg",".","new",1,1218,"random"
"1553",6,1,217,"JukeboxAntique.jpg","3","old",1,686,"random"
"1554",6,1,218,"Bench_Wooden.jpg",".","new",1,1145,"random"
"1555",6,1,219,"Chair_MedicalToilet.jpg","1","new",0,668,"random"
"1556",6,1,220,"Light_Siren.jpg","1","old",1,1048,"random"
"1557",6,1,221,"Bomb.jpg",".","old",0,1411,"random"
"1558",6,1,222,"Bandage_Wrap.jpg",".","new",1,1094,"random"
"1559",6,1,223,"PedestalGreek.jpg",".","old",0,1610,"random"
"1560",6,1,224,"Fortress.jpg","1","old",1,1453,"random"
"1561",6,1,225,"Toy_GasPump.jpg","3","old",1,656,"random"
"1562",6,1,226,"Cabinet_Display.jpg",".","old",0,1156,"random"
"1563",6,1,227,"Ashtray_Empty.jpg","3","old",1,703,"random"
"1564",6,1,228,"BadgeSpecialAgent.jpg","3","old",1,554,"random"
"1565",6,1,229,"Hippopotamus.jpg","3","old",1,726,"random"
"1566",6,1,230,"Boots_KneeHigh.jpg",".","new",1,841,"random"
"1567",6,1,231,"Gorilla.jpg",".","new",1,796,"random"
"1568",6,1,232,"Mask_Happy.jpg","1","old",1,663,"random"
"1569",6,1,233,"Hottub.jpg",".","new",1,915,"random"
"1570",6,1,234,"Tire_Hollow.jpg",".","new",1,694,"random"
"1571",6,1,235,"GasBurner.jpg","1","new",0,1194,"random"
"1572",6,1,236,"Hammer.jpg",".","new",1,732,"random"
"1573",6,1,237,"Oyster.jpg","3","old",1,703,"random"
"1574",6,1,238,"Helmet_Knight.jpg",".","new",1,883,"random"
"1575",6,1,239,"Case_DVD.jpg",".","new",1,758,"random"
"1576",6,1,240,"Currants.jpg",".","new",1,769,"random"
"1577",6,1,241,"Spoon_Wooden.jpg","3","new",0,1653,"random"
"1578",6,1,242,"Pajamas.jpg",".","new",1,696,"random"
"1579",6,1,243,"Flower_Hibiscus.jpg",".","new",1,691,"random"
"1580",6,1,244,"Tickets_Blank.jpg","3","old",1,670,"random"
"1581",6,1,245,"TartStrawberry.jpg","3","old",1,714,"random"
"1582",6,1,246,"Helmet_Construction.jpg","1","old",1,1189,"random"
"1583",6,1,247,"Toy_BearBlackPlastic.jpg",".","new",1,888,"random"
"1584",6,1,248,"Toy_TableSet.jpg",".","new",1,804,"random"
"1585",6,1,249,"PanCooking.jpg",".","new",1,647,"random"
"1586",6,1,250,"Syrup_Maple.jpg",".","new",1,690,"random"
"1587",6,1,251,"Helmet_Soldier.jpg","1","old",1,590,"random"
"1588",6,1,252,"Ball_Disco.jpg",".","new",1,833,"random"
"1589",6,1,253,"Colander.jpg","1","old",1,684,"random"
"1590",6,1,254,"Can_OilSpout.jpg",".","old",0,720,"random"
"1591",6,1,255,"Peppermill.jpg","1","old",1,819,"random"
"1592",6,1,256,"Brace_Back.jpg",".","new",1,910,"random"
"1593",6,1,257,"Chipmunk.jpg",".","new",1,682,"random"
"1594",6,1,258,"Steeple.jpg","3","old",1,845,"random"
"1595",6,1,259,"MixingGlass.jpg","1","old",1,800,"random"
"1596",6,1,260,"Clock_Radio.jpg",".","new",1,1140,"random"
"1597",6,1,261,"SmokingPipe.jpg",".","new",1,799,"random"
"1598",6,1,262,"Blanket.jpg","1","new",0,706,"random"
"1599",6,1,265,"Pot_Cooking.jpg",".","new",1,721,"random"
"1600",6,1,266,"Waffle.jpg",".","old",0,508,"random"
"1601",6,1,267,"Box_Floral.jpg","3","old",1,927,"random"
"1602",6,1,268,"Hoverboard.jpg",".","new",1,819,"random"
"1603",6,1,269,"Cross.jpg",".","new",1,814,"random"
"1604",6,1,270,"Lock_Combination.jpg","1","old",1,729,"random"
"1605",6,1,271,"Microphone.jpg",".","new",1,804,"random"
"1606",6,1,272,"Toys_Lego.jpg","1","old",1,976,"random"
"1607",6,1,273,"Tape_Washi.jpg",".","new",1,770,"random"
"1608",6,1,274,"Tripod.jpg","1","old",1,718,"random"
"1609",6,1,275,"Box_Jewellery.jpg","1","new",0,1025,"random"
"1610",6,1,276,"Sink_Bathroom.jpg",".","new",1,716,"random"
"1611",6,1,277,"Toy_RockingHorseBlack.jpg","1","old",1,712,"random"
"1612",6,1,278,"TurkeyDinner.jpg",".","new",1,1075,"random"
"1613",6,1,279,"ToothPaste.jpg",".","new",1,934,"random"
"1614",6,1,280,"Chopsticks.jpg",".","old",0,858,"random"
"1615",6,1,281,"Dress_Blue.jpg",".","new",1,653,"random"
"1616",6,1,282,"RemoteControl.jpg","3","old",1,928,"random"
"1617",6,1,283,"Shampoo.jpg","3","old",1,684,"random"
"1618",6,1,284,"ShoulderPads.jpg","1","new",0,983,"random"
"1619",6,1,285,"MobilityScooter.jpg",".","new",1,722,"random"
"1620",6,1,286,"Hammer_Reflex.jpg","1","new",0,1126,"random"
"1621",6,1,287,"CookieCutter_Tree.jpg",".","old",0,1233,"random"
"1622",6,1,288,"PuppetTheatre_WhiteGold.jpg","3","old",1,748,"random"
"1623",6,1,289,"Guitar_Acoustic.jpg","1","new",0,904,"random"
"1624",6,1,290,"KitchenTools.jpg",".","new",1,755,"random"
"1625",6,1,291,"fries.jpg","1","old",1,710,"random"
"1626",6,1,292,"Fuse.jpg","3","old",1,1106,"random"
"1627",6,1,293,"CuttingBoard.jpg",".","new",1,685,"random"
"1628",6,1,294,"Crutches.jpg",".","new",1,968,"random"
"1629",6,1,295,"ReindeerHeadband.jpg",".","new",1,988,"random"
"1630",6,1,296,"Cantaloupe.jpg","1","new",0,1191,"random"
"1631",6,1,297,"AmpMeter.jpg","3","old",1,650,"random"
"1632",6,1,298,"CoffeeGrinder.jpg",".","new",1,909,"random"
"1633",6,1,299,"Box_Present.jpg",".","new",1,817,"random"
"1634",6,1,300,"FlashlightHeadBand.jpg","1","old",1,996,"random"
"1635",6,1,301,"Hockey_Equipment.jpg",".","new",1,1343,"random"
"1636",6,1,302,"TeethMould.jpg","3","old",1,635,"random"
"1637",6,1,303,"Sock_Ankle.jpg",".","new",1,814,"random"
"1638",6,1,304,"Statue_SouthAmerican.jpg",".","new",1,1057,"random"
"1639",6,1,305,"Leaf_Clover.jpg","1","old",1,565,"random"
"1640",6,1,306,"Exercise_Stretch.jpg","1","old",1,768,"random"
"1641",6,1,307,"Lantern_TeaBox.jpg","1","new",0,611,"random"
"1642",6,1,308,"Paddle_Beach.jpg",".","new",1,631,"random"
"1643",6,1,309,"Pickaxe.jpg",".","new",1,810,"random"
"1644",6,1,310,"Paratrooper.jpg","3","old",1,780,"random"
"1645",6,1,311,"BicycleOdometer.jpg",".","old",0,1688,"random"
"1646",6,1,312,"DrinkingFountain.jpg","1","old",1,1131,"random"
"1647",6,1,313,"SundaeBanana.jpg",".","new",1,814,"random"
"1648",6,1,314,"Wheelbarrow_Green.jpg","1","new",0,730,"random"
"1649",6,1,315,"Notebook.jpg","1","old",1,773,"random"
"1650",6,1,316,"Frame_Oval.jpg",".","new",1,984,"random"
"1651",6,1,317,"Glove_Rubber.jpg","3","old",1,1156,"random"
"1652",6,1,318,"NeedlesAcupuncture.jpg","3","old",1,855,"random"
"1653",6,1,319,"Golf_Bag.jpg","1","old",1,970,"random"
"1654",6,1,320,"WireStripper.jpg","1","old",1,614,"random"
"1655",6,1,321,"Playground.jpg",".","new",1,1033,"random"
"1656",6,1,322,"Toy_DollOffice.jpg",".","new",1,860,"random"
"1657",6,1,323,"Comb.jpg",".","new",1,728,"random"
"1658",6,1,324,"Gorilla.jpg",".","old",0,1027,"random"
"1659",6,1,325,"Mug_Beer.jpg","1","old",1,838,"random"
"1660",7,2,1,"MobilityScooter.jpg",".","new",1,1126,"random"
"1661",7,2,2,"KeyHook_Occupied.jpg",".","new",1,908,"random"
"1662",7,2,3,"Car_Sedan.jpg","1","new",0,734,"random"
"1663",7,2,4,"Lock_Combination.jpg","3","old",1,923,"random"
"1664",7,2,5,"Cabinet_Office.jpg",".","new",1,831,"random"
"1665",7,2,6,"Bottle_Blue.jpg","1","old",1,1039,"random"
"1666",7,2,7,"Bowl_Chinese.jpg","1","old",1,870,"random"
"1667",7,2,8,"Ball_8.jpg",".","new",1,738,"random"
"1668",7,2,9,"Screw.jpg",".","new",1,866,"random"
"1669",7,2,10,"Tape_Washi.jpg",".","new",1,679,"random"
"1670",7,2,11,"Trumpet.jpg","1","old",1,783,"random"
"1671",7,2,12,"CuttingBoard.jpg",".","new",1,771,"random"
"1672",7,2,13,"Hook_Fish.jpg","1","old",1,998,"random"
"1673",7,2,14,"Shield_Antique.jpg",".","new",1,808,"random"
"1674",7,2,15,"RibbonSpool.jpg",".","new",1,763,"random"
"1675",7,2,16,"PropellerFan.jpg",".","new",1,750,"random"
"1676",7,2,17,"Toys_Lego.jpg","3","old",1,637,"random"
"1677",7,2,18,"Keg.jpg","3","old",1,784,"random"
"1678",7,2,19,"BicycleChain.jpg",".","new",1,745,"random"
"1679",7,2,20,"Flamingo_Cartoon.jpg","3","old",1,995,"random"
"1680",7,2,21,"PanCooking.jpg",".","new",1,744,"random"
"1681",7,2,22,"BadgeSpecialAgent.jpg","1","old",1,822,"random"
"1682",7,2,23,"Hourglass.jpg","1","new",0,949,"random"
"1683",7,2,24,"Jug_Milk.jpg",".","new",1,1017,"random"
"1684",7,2,25,"Bell_Hand.jpg",".","new",1,809,"random"
"1685",7,2,26,"Syrup_Maple.jpg",".","new",1,759,"random"
"1686",7,2,27,"Knee.jpg","1","old",1,898,"random"
"1687",7,2,28,"DrillBit.jpg",".","new",1,960,"random"
"1688",7,2,29,"Spoon_Wooden.jpg","1","old",1,809,"random"
"1689",7,2,30,"Bullet.jpg","1","new",0,879,"random"
"1690",7,2,31,"Sign_TrafficArrow.jpg",".","new",1,1193,"random"
"1691",7,2,32,"Toy_PoliceCar.jpg",".","new",1,810,"random"
"1692",7,2,33,"Dress_Blue.jpg",".","new",1,719,"random"
"1693",7,2,34,"Lantern_TeaBox.jpg","3","old",1,791,"random"
"1694",7,2,35,"Apple_RedAndGreen.jpg","3","old",1,768,"random"
"1695",7,2,36,"Guitarcase.jpg","1","new",0,1164,"random"
"1696",7,2,37,"Thermostat.jpg",".","new",1,895,"random"
"1697",7,2,38,"KitchenTools.jpg",".","new",1,885,"random"
"1698",7,2,39,"Outhouse.jpg",".","new",1,690,"random"
"1699",7,2,40,"Exercise_Machine.jpg",".","old",0,1075,"random"
"1700",7,2,41,"Mug_Beer.jpg","3","old",1,833,"random"
"1701",7,2,42,"Box_Jewellery.jpg","3","old",1,700,"random"
"1702",7,2,43,"Autocreeper.jpg","3","old",1,999,"random"
"1703",7,2,44,"RemoteControl.jpg","1","old",1,793,"random"
"1704",7,2,45,"Skates.jpg","1","old",1,845,"random"
"1705",7,2,46,"Toy_TableSet.jpg",".","new",1,713,"random"
"1706",7,2,47,"Dart.jpg",".","new",1,818,"random"
"1707",7,2,48,"TartStrawberry.jpg","1","old",1,781,"random"
"1708",7,2,49,"Toolbox_RedOpen.jpg",".","new",1,685,"random"
"1709",7,2,50,"Lighter_Yellow.jpg",".","new",1,740,"random"
"1710",7,2,51,"Crutches.jpg",".","new",1,856,"random"
"1711",7,2,52,"PedestalGreek.jpg",".","new",1,791,"random"
"1712",7,2,53,"SafetyPin.jpg",".","new",1,771,"random"
"1713",7,2,54,"Spoons_MeasuringDetached.jpg","3","old",1,671,"random"
"1714",7,2,55,"ContactLens.jpg",".","new",1,734,"random"
"1715",7,2,56,"JukeboxAntique.jpg","1","new",0,992,"random"
"1716",7,2,57,"Toolbox_Old.jpg",".","new",1,756,"random"
"1717",7,2,58,"Shoe_Pink.jpg",".","new",1,701,"random"
"1718",7,2,59,"BoogieBoard.jpg",".","new",1,749,"random"
"1719",7,2,60,"DryRack_Dishes.jpg","1","old",1,739,"random"
"1720",7,2,61,"Pickaxe.jpg",".","new",1,729,"random"
"1721",7,2,62,"Iron_Antique.jpg",".","new",1,703,"random"
"1722",7,2,63,"Strainer_Tea.jpg",".","new",1,839,"random"
"1723",7,2,64,"Chair_BeanBag.jpg","1","old",1,804,"random"
"1724",7,2,65,"Pajamas.jpg",".","new",1,762,"random"
"1725",7,2,67,"Tickets_Blank.jpg","1","old",1,1330,"random"
"1726",7,2,68,"Cross.jpg",".","new",1,1779,"random"
"1727",7,2,69,"Pig.jpg",".","new",1,1341,"random"
"1728",7,2,70,"Table_Poker.jpg","3","new",0,1321,"random"
"1729",7,2,71,"CrepeMaker.jpg",".","new",1,916,"random"
"1730",7,2,72,"Statue_SouthAmerican.jpg",".","new",1,992,"random"
"1731",7,2,73,"DoorKnob.jpg","1","old",1,1127,"random"
"1732",7,2,74,"PotatoMasher_Zigzag.jpg","1","old",1,1235,"random"
"1733",7,2,75,"DogTreat.jpg","3","old",1,699,"random"
"1734",7,2,76,"MonkeyPuppet.jpg","1","old",1,909,"random"
"1735",7,2,77,"Can_OilSpout.jpg",".","new",1,702,"random"
