"","participant","trialnum","stimulus","old_object_condition","response","correct","latency","batch","condition"
"1",3,1,"Pig.jpg",".","old",0,693,1,"random"
"2",3,2,"MouthGuard.jpg","3","new",0,1082,1,"random"
"3",3,3,"Mango.jpg","1","old",1,786,1,"random"
"4",3,5,"Tofu.jpg",".","new",1,517,1,"random"
"5",3,7,"Hat_Baseball.jpg",".","new",1,1102,1,"random"
"6",3,8,"Chinchilla.jpg",".","old",0,1342,1,"random"
"7",3,9,"Playground.jpg",".","old",0,966,1,"random"
"8",3,10,"PaintRollTray.jpg","3","new",0,1802,1,"random"
"9",3,11,"HumanSkeleton.jpg",".","old",0,654,1,"random"
"10",3,12,"LampPost_OneBulb.jpg",".","old",0,470,1,"random"
"11",3,13,"Jar_JellyBeans.jpg","3","old",1,1266,1,"random"
"12",3,14,"AnsweringMachine.jpg",".","new",1,726,1,"random"
"13",3,15,"Candy_Heart.jpg","3","old",1,1418,1,"random"
"14",3,16,"Fish_Rockbass.jpg","1","old",1,1090,1,"random"
"15",3,17,"SkullDeer.jpg",".","old",0,390,1,"random"
"16",3,18,"Iron_Antique.jpg",".","old",0,566,1,"random"
"17",3,19,"SmokeDetector.jpg","1","new",0,939,1,"random"
"18",3,20,"Bottle_Blue.jpg","3","new",0,1987,1,"random"
"19",3,21,"Makeup_Foundation.jpg",".","new",1,886,1,"random"
"20",3,22,"Keg.jpg","1","old",1,1443,1,"random"
"21",3,23,"Sock_Ankle.jpg",".","new",1,1158,1,"random"
"22",3,24,"Car_Sedan.jpg","3","new",0,1075,1,"random"
"23",3,25,"Saw.jpg","1","old",1,1299,1,"random"
"24",3,26,"Flower_Hibiscus.jpg",".","old",0,407,1,"random"
"25",3,27,"Chair_BeanBag.jpg","3","new",0,1251,1,"random"
"26",3,28,"Beater_Electric.jpg","3","old",1,1363,1,"random"
"27",3,29,"Truck_Dump.jpg",".","new",1,831,1,"random"
"28",3,30,"BicycleChain.jpg",".","old",0,711,1,"random"
"29",3,31,"Dress_Party.jpg","1","new",0,1443,1,"random"
"30",3,32,"DentistOverheadLight.jpg","1","old",1,1915,1,"random"
"31",3,33,"ButterDish.jpg","1","old",1,1747,1,"random"
"32",3,34,"PaintBrushAndPallette.jpg","3","old",1,1131,1,"random"
"33",3,35,"Jar_Cotton.jpg",".","new",1,1023,1,"random"
"34",3,36,"Currants.jpg",".","old",0,703,1,"random"
"35",3,37,"Statue_SouthAmerican.jpg",".","old",0,815,1,"random"
"36",3,38,"PaintRoller.jpg",".","0",0,1500,1,"random"
"37",3,39,"Toy_DollOffice.jpg",".","new",1,1239,1,"random"
"38",3,40,"Hottub.jpg",".","new",1,631,1,"random"
"39",3,41,"Teabag.jpg","3","old",1,1156,1,"random"
"40",3,42,"Candy_Chocolate.jpg","1","old",1,1180,1,"random"
"41",3,43,"Bindings_Snowboard.jpg",".","new",1,1167,1,"random"
"42",3,44,"BusStop.jpg","1","new",0,1812,1,"random"
"43",3,45,"TinChristmas.jpg","1","old",1,1844,1,"random"
"44",3,46,"GranolaBar.jpg",".","new",1,1128,1,"random"
"45",3,47,"Autocreeper.jpg","1","new",0,1316,1,"random"
"46",3,48,"Pants_Jeans.jpg","1","old",1,1276,1,"random"
"47",3,49,"GPS.jpg","3","new",0,1476,1,"random"
"48",3,50,"Mitt_Oven.jpg","1","old",1,1684,1,"random"
"49",3,51,"Drum_Brazilan.jpg",".","new",1,1232,1,"random"
"50",3,52,"Decoration_WallOrnament.jpg",".","old",0,872,1,"random"
"51",3,53,"Boxcutter.jpg",".","new",1,1344,1,"random"
"52",3,54,"Toy_Moose.jpg","3","old",1,1324,1,"random"
"53",3,55,"Cabinet_Office.jpg",".","new",1,1336,1,"random"
"54",3,56,"Stove_Camping.jpg","3","new",0,949,1,"random"
"55",3,57,"CookieCutter_Bell.jpg","1","old",1,1645,1,"random"
"56",3,58,"DoorBell.jpg","1","new",0,1765,1,"random"
"57",3,59,"Toy_Lighthouse.jpg",".","old",0,1056,1,"random"
"58",3,60,"Trophy.jpg","3","old",1,1741,1,"random"
"59",3,61,"Bench_Wooden.jpg",".","old",0,752,1,"random"
"60",3,62,"SculptureMetalFish.jpg","1","new",0,1301,1,"random"
"61",3,63,"Almond.jpg","1","old",1,1109,1,"random"
"62",3,64,"MonkeyPuppet.jpg","3","old",1,1197,1,"random"
"63",3,65,"Glass_Martini.jpg",".","old",0,1193,1,"random"
"64",3,67,"Outhouse.jpg",".","0",0,1500,1,"random"
"65",3,68,"Screw.jpg",".","old",0,809,1,"random"
"66",3,69,"FireExtinguisher.jpg","1","old",1,1022,1,"random"
"67",3,70,"LeatherPuncherTool.jpg","3","new",0,1294,1,"random"
"68",3,71,"Sign_Parking.jpg","3","new",0,942,1,"random"
"69",3,72,"Bowl_Chinese.jpg","3","old",1,1078,1,"random"
"70",3,73,"DoorKnob.jpg","3","old",1,1534,1,"random"
"71",3,74,"Pipe_Drain.jpg","1","old",1,1110,1,"random"
"72",3,75,"HairDryer.jpg","1","new",0,1038,1,"random"
"73",3,76,"Chest.jpg","1","new",0,1174,1,"random"
"74",3,77,"ElasticBand.jpg",".","old",0,1290,1,"random"
"75",3,78,"Table_Poker.jpg","1","new",0,1542,1,"random"
"76",3,79,"Pot_Cooking.jpg",".","old",0,834,1,"random"
"77",3,80,"WindowBlinds.jpg","3","old",1,1191,1,"random"
"78",3,81,"Tweezers.jpg",".","old",0,498,1,"random"
"79",3,82,"PaperStack.jpg",".","new",1,1162,1,"random"
"80",3,83,"Carbiner_Ascender.jpg",".","new",1,1026,1,"random"
"81",3,84,"Toy_Witch.jpg","3","old",1,1215,1,"random"
"82",3,85,"Pineapple.jpg","3","old",1,1111,1,"random"
"83",3,86,"Thermostat_Digital.jpg","1","new",0,1119,1,"random"
"84",3,87,"BicycleGear.jpg",".","new",1,370,1,"random"
"85",3,88,"Beaker.jpg",".","new",1,419,1,"random"
"86",3,89,"BottleOpener.jpg","1","old",1,1439,1,"random"
"87",3,90,"Pasta_Spaghetti.jpg",".","old",0,739,1,"random"
"88",3,91,"Hawk.jpg",".","old",0,923,1,"random"
"89",3,92,"CandyDispenser.jpg","1","old",1,1151,1,"random"
"90",3,93,"CuttingBoard.jpg",".","old",0,1059,1,"random"
"91",3,94,"Bird_Cardinal.jpg","3","old",1,1023,1,"random"
"92",3,95,"Phone_Wireless.jpg","3","old",1,1655,1,"random"
"93",3,96,"Flamingo_Cartoon.jpg","1","old",1,1383,1,"random"
"94",3,97,"Thermos_MetalSleek.jpg",".","old",0,1267,1,"random"
"95",3,98,"Cassette_Audio.jpg","3","old",1,1128,1,"random"
"96",3,99,"DogTreat.jpg","1","old",1,1432,1,"random"
"97",3,100,"IceCrusher.jpg","3","new",0,1089,1,"random"
"98",3,101,"Dart.jpg",".","new",1,307,1,"random"
"99",3,102,"Waffle.jpg",".","old",0,1075,1,"random"
"100",3,103,"Lollipop_Grape.jpg","1","old",1,1112,1,"random"
"101",3,104,"Cake_Wedding.jpg","1","old",1,1200,1,"random"
"102",3,105,"Thermostat.jpg",".","new",1,1083,1,"random"
"103",3,106,"MonaLisa.jpg","1","old",1,1168,1,"random"
"104",3,107,"PropellerFan.jpg",".","old",0,803,1,"random"
"105",3,108,"Speaker_OnStand.jpg","3","old",1,1464,1,"random"
"106",3,109,"Tribunal_Wooden.jpg",".","old",0,948,1,"random"
"107",3,110,"Tape_Washi.jpg",".","new",1,804,1,"random"
"108",3,111,"Generator.jpg","3","new",0,736,1,"random"
"109",3,112,"SafetyPin.jpg",".","old",0,772,1,"random"
"110",3,113,"Flute_Wooden.jpg","1","old",1,1224,1,"random"
"111",3,114,"Hourglass.jpg","3","old",1,1032,1,"random"
"112",3,115,"PotatoMasher_Zigzag.jpg","3","old",1,1440,1,"random"
"113",3,116,"Lamp_TableWhite.jpg",".","new",1,1260,1,"random"
"114",3,117,"Bottle_Specimen.jpg",".","new",1,716,1,"random"
"115",3,118,"Socks_Winter.jpg",".","old",0,924,1,"random"
"116",3,119,"Clip_Paper.jpg","3","old",1,1217,1,"random"
"117",3,120,"Flower_Orchid.jpg",".","old",0,900,1,"random"
"118",3,121,"Cross.jpg",".","old",0,948,1,"random"
"119",3,122,"Caterpillar.jpg",".","old",0,892,1,"random"
"120",3,123,"Ball_Disco.jpg",".","new",1,596,1,"random"
"121",3,124,"CartonEggs.jpg",".","old",0,556,1,"random"
"122",3,125,"Helmet_Knight.jpg",".","old",0,685,1,"random"
"123",3,126,"Bomb.jpg",".","old",0,1053,1,"random"
"124",3,127,"Balalaika.jpg","3","old",1,1121,1,"random"
"125",3,128,"Fencing_HelmetSwords.jpg",".","old",0,445,1,"random"
"126",3,129,"BicycleBrake.jpg","1","old",1,1177,1,"random"
"127",3,130,"Crib_Basket.jpg",".","old",0,533,1,"random"
"128",3,131,"Case_DVD.jpg",".","new",1,301,1,"random"
"129",3,133,"Chopsticks.jpg",".","old",0,1481,1,"random"
"130",3,134,"Bellows.jpg","3","old",1,1126,1,"random"
"131",3,135,"CookieCutter_Tree.jpg",".","old",0,521,1,"random"
"132",3,136,"Switch_LightWhite.jpg",".","old",0,761,1,"random"
"133",3,137,"ContactLens.jpg",".","old",0,329,1,"random"
"134",3,138,"Sushi.jpg","1","old",1,910,1,"random"
"135",3,139,"DryRack_Dishes.jpg","3","new",0,1094,1,"random"
"136",3,140,"Knife_Hunting.jpg","3","old",1,1398,1,"random"
"137",3,141,"BicycleHandleGrip.jpg","1","new",0,1750,1,"random"
"138",3,142,"Strainer_Tea.jpg",".","new",1,898,1,"random"
"139",3,143,"FlipFlop_PairBlue.jpg",".","new",1,506,1,"random"
"140",3,144,"Guitarcase.jpg","3","new",0,1478,1,"random"
"141",3,145,"KeyHook_Occupied.jpg",".","new",1,666,1,"random"
"142",3,146,"Lilypad.jpg","3","old",1,1150,1,"random"
"143",3,147,"BicyclePedal.jpg","3","old",1,1182,1,"random"
"144",3,148,"Cabinet_Display.jpg",".","old",0,698,1,"random"
"145",3,149,"Icepick.jpg",".","old",0,1090,1,"random"
"146",3,150,"Bathtub.jpg","1","new",0,1623,1,"random"
"147",3,151,"Trumpet.jpg","3","old",1,1295,1,"random"
"148",3,152,"Fridge.jpg",".","new",1,786,1,"random"
"149",3,153,"PedestalGreek.jpg",".","old",0,626,1,"random"
"150",3,154,"BloodpPresureCuff.jpg",".","old",0,706,1,"random"
"151",3,156,"Toy_StackingRing.jpg","3","old",1,1495,1,"random"
"152",3,157,"Nyala.jpg","3","old",1,687,1,"random"
"153",3,158,"Toy_TableSet.jpg",".","old",0,923,1,"random"
"154",3,159,"Bottle_Wine.jpg","1","old",1,1279,1,"random"
"155",3,160,"ShearsGarden.jpg",".","new",1,931,1,"random"
"156",3,161,"Tire_Hollow.jpg",".","old",0,771,1,"random"
"157",3,162,"Box_Present.jpg",".","new",1,507,1,"random"
"158",3,163,"Jug_Milk.jpg",".","old",0,747,1,"random"
"159",3,164,"Candle_Blue.jpg","1","old",1,1295,1,"random"
"160",3,165,"Pickaxe.jpg",".","old",0,787,1,"random"
"161",3,166,"CoffeeGrinder.jpg",".","old",0,739,1,"random"
"162",3,167,"WashRack.jpg","1","new",0,1376,1,"random"
"163",3,168,"Hook_Fish.jpg","3","old",1,1680,1,"random"
"164",3,169,"Arch.jpg",".","new",1,755,1,"random"
"165",3,170,"Cage_Bird.jpg",".","old",0,971,1,"random"
"166",3,171,"Drink_Green.jpg","3","old",1,824,1,"random"
"167",3,172,"Mat_Door.jpg","3","old",1,1216,1,"random"
"168",3,173,"Shoe_Pink.jpg",".","new",1,579,1,"random"
"169",3,174,"MobilityScooter.jpg",".","new",1,619,1,"random"
"170",3,175,"Gun_Glue.jpg",".","new",1,435,1,"random"
"171",3,176,"Box_FirstAidOpen.jpg",".","new",1,1044,1,"random"
"172",3,177,"RibbonSpool.jpg",".","old",0,764,1,"random"
"173",3,178,"Cherry.jpg","3","old",1,1152,1,"random"
"174",3,179,"SaxophoneSoprano.jpg",".","old",0,1092,1,"random"
"175",3,180,"TireRims.jpg",".","new",1,716,1,"random"
"176",3,181,"IceCream_Chocolate.jpg","1","old",1,1600,1,"random"
"177",3,182,"SewingMachine.jpg",".","new",1,1028,1,"random"
"178",3,183,"Kite_Rainbow.jpg",".","old",0,612,1,"random"
"179",3,184,"StringBean.jpg","3","old",1,632,1,"random"
"180",3,185,"NailPolish.jpg","3","old",1,1040,1,"random"
"181",3,186,"Dress_Blue.jpg",".","new",1,452,1,"random"
"182",3,187,"Chest_Toys.jpg","3","old",1,1409,1,"random"
"183",3,188,"Spatula_1.jpg",".","old",0,788,1,"random"
"184",3,189,"NintendoWii.jpg","3","new",0,1281,1,"random"
"185",3,190,"Megaphone.jpg","3","new",0,737,1,"random"
"186",3,191,"Cannister_Gas.jpg",".","old",0,1268,1,"random"
"187",3,192,"Toy_SeeSaw.jpg",".","old",0,532,1,"random"
"188",3,193,"Skates.jpg","3","old",1,1001,1,"random"
"189",3,194,"Goose_Canadian.jpg","3","old",1,1105,1,"random"
"190",3,195,"Apple_RedAndGreen.jpg","1","old",1,665,1,"random"
"191",3,196,"Pitcher.jpg","1","old",1,1097,1,"random"
"192",3,197,"ToothPaste.jpg",".","old",0,933,1,"random"
"193",3,199,"Cup_Styrofoam.jpg","3","old",1,1477,1,"random"
"194",3,200,"Pipe.jpg",".","new",1,848,1,"random"
"195",3,201,"PassionFruit.jpg","3","old",1,749,1,"random"
"196",3,202,"Frame_Oval.jpg",".","old",0,889,1,"random"
"197",3,203,"Knee.jpg","3","old",1,1429,1,"random"
"198",3,204,"Shoes_DutchClogs.jpg","1","old",1,1173,1,"random"
"199",3,205,"ShoppingCart.jpg",".","new",1,713,1,"random"
"200",3,206,"Telescope.jpg",".","old",0,737,1,"random"
"201",3,207,"Toy_BlocksPlastic Colourful.jpg","1","old",1,1469,1,"random"
"202",3,208,"House_Rural.jpg",".","old",0,1097,1,"random"
"203",3,209,"Hoverboard.jpg",".","new",1,1009,1,"random"
"204",3,210,"Pajamas.jpg",".","new",1,601,1,"random"
"205",3,211,"Lighter_Yellow.jpg",".","new",1,641,1,"random"
"206",3,212,"CameoPortrait.jpg","1","old",1,1254,1,"random"
"207",3,213,"Mattress.jpg","3","new",0,1382,1,"random"
"208",3,214,"Desk_School.jpg","3","old",1,982,1,"random"
"209",3,215,"Bandage_Wrap.jpg",".","new",1,857,1,"random"
"210",3,216,"Fruit_Cactus.jpg","1","old",1,862,1,"random"
"211",3,217,"Bullet.jpg","3","old",1,1230,1,"random"
"212",3,218,"Microphone.jpg",".","old",0,601,1,"random"
"213",3,219,"Sign_Wetfloor.jpg","3","new",0,1486,1,"random"
"214",3,220,"Mop.jpg","1","old",1,1134,1,"random"
"215",3,221,"DrillBit.jpg",".","old",0,770,1,"random"
"216",3,222,"Pen_Ballpoint.jpg",".","old",0,1010,1,"random"
"217",3,223,"Can_OilSpout.jpg",".","new",1,1138,1,"random"
"218",3,224,"PanCooking.jpg",".","old",0,610,1,"random"
"219",3,225,"Glass_Cup.jpg",".","old",0,586,1,"random"
"220",3,226,"Tortilla.jpg","3","old",1,1414,1,"random"
"221",3,227,"Syrup_Maple.jpg",".","new",1,1050,1,"random"
"222",3,228,"JukeboxAntique.jpg","3","old",1,1670,1,"random"
"223",3,229,"Chair_MedicalToilet.jpg","1","old",1,1646,1,"random"
"224",3,230,"BoogieBoard.jpg",".","new",1,1378,1,"random"
"225",3,231,"Light_Siren.jpg","1","new",0,1367,1,"random"
"226",3,232,"Fortress.jpg","1","old",1,895,1,"random"
"227",3,233,"Broom_Long.jpg",".","old",0,410,1,"random"
"228",3,234,"Toy_GasPump.jpg","3","old",1,1159,1,"random"
"229",3,235,"Ashtray_Empty.jpg","3","old",1,1063,1,"random"
"230",3,236,"Toolbox_RedOpen.jpg",".","old",0,730,1,"random"
"231",3,237,"Ball_8.jpg",".","old",0,882,1,"random"
"232",3,238,"Exercise_Machine.jpg",".","new",1,714,1,"random"
"233",3,239,"BadgeSpecialAgent.jpg","3","new",0,1063,1,"random"
"234",3,240,"Hippopotamus.jpg","3","old",1,799,1,"random"
"235",3,241,"Mask_Happy.jpg","1","old",1,1415,1,"random"
"236",3,242,"GasBurner.jpg","1","new",0,1415,1,"random"
"237",3,244,"Oyster.jpg","3","old",1,703,1,"random"
"238",3,245,"Bell_Hand.jpg",".","old",0,819,1,"random"
"239",3,246,"DivingBoard.jpg",".","new",1,611,1,"random"
"240",3,247,"OnionRed.jpg",".","old",0,403,1,"random"
"241",3,248,"ChessPiece_Knight.jpg",".","old",0,1075,1,"random"
"242",3,249,"Spoon_Wooden.jpg","3","old",1,1136,1,"random"
"243",3,250,"Seashell_AlternateTellin.jpg",".","old",0,467,1,"random"
"244",3,251,"Knife_Butter.jpg",".","new",1,571,1,"random"
"245",3,252,"Tickets_Blank.jpg","3","new",0,1112,1,"random"
"246",3,253,"SmokingPipe.jpg",".","old",0,579,1,"random"
"247",3,254,"Boots_KneeHigh.jpg",".","old",0,747,1,"random"
"248",3,255,"TartStrawberry.jpg","3","old",1,1377,1,"random"
"249",3,256,"Clock_Radio.jpg",".","new",1,411,1,"random"
"250",3,257,"Helmet_Construction.jpg","1","new",0,904,1,"random"
"251",3,258,"BicycleOdometer.jpg",".","new",1,380,1,"random"
"252",3,259,"Helmet_Soldier.jpg","1","old",1,1024,1,"random"
"253",3,260,"Colander.jpg","1","old",1,1064,1,"random"
"254",3,261,"Peppermill.jpg","1","old",1,1376,1,"random"
"255",3,262,"Steeple.jpg","3","old",1,1360,1,"random"
"256",3,263,"Comb.jpg",".","new",1,588,1,"random"
"257",3,265,"Bugle.jpg",".","old",0,859,1,"random"
"258",3,266,"Sink_Bathroom.jpg",".","new",1,667,1,"random"
"259",3,267,"Statue_VirginMary.jpg",".","old",0,659,1,"random"
"260",3,268,"Sign_TrafficArrow.jpg",".","old",0,1067,1,"random"
"261",3,269,"Dolphine.jpg",".","old",0,467,1,"random"
"262",3,270,"Loofa.jpg",".","new",1,971,1,"random"
"263",3,271,"Hazelnut.jpg",".","old",0,563,1,"random"
"264",3,273,"MixingGlass.jpg","1","old",1,1191,1,"random"
"265",3,274,"Brooch_Fish.jpg",".","new",1,739,1,"random"
"266",3,275,"Blanket.jpg","1","new",0,1376,1,"random"
"267",3,276,"SkiPoles.jpg",".","new",1,995,1,"random"
"268",3,277,"Spoons_MeasuringDetached.jpg","1","new",0,1337,1,"random"
"269",3,278,"Box_Floral.jpg","3","new",0,1288,1,"random"
"270",3,279,"ReindeerHeadband.jpg",".","old",0,987,1,"random"
"271",3,280,"Bottle_BubbleBlower.jpg",".","old",0,1403,1,"random"
"272",3,281,"Lock_Combination.jpg","1","new",0,1248,1,"random"
"273",3,282,"Boardgame_Checkers.jpg",".","old",0,532,1,"random"
"274",3,283,"Crutches.jpg",".","old",0,476,1,"random"
"275",3,284,"Toys_Lego.jpg","1","new",0,1456,1,"random"
"276",3,285,"Tripod.jpg","1","old",1,1200,1,"random"
"277",3,286,"Box_Jewellery.jpg","1","old",1,1688,1,"random"
"278",3,287,"Toy_RockingHorseBlack.jpg","1","old",1,1008,1,"random"
"279",3,288,"RemoteControl.jpg","3","new",0,1056,1,"random"
"280",3,289,"SundaeBanana.jpg",".","old",0,748,1,"random"
"281",3,290,"Shampoo.jpg","3","old",1,1392,1,"random"
"282",3,291,"ShoulderPads.jpg","1","new",0,1672,1,"random"
"283",3,292,"Hammer_Reflex.jpg","1","old",1,976,1,"random"
"284",3,293,"PuppetTheatre_WhiteGold.jpg","3","old",1,1865,1,"random"
"285",3,294,"TurkeyDinner.jpg",".","old",0,364,1,"random"
"286",3,295,"Guitar_Acoustic.jpg","1","old",1,969,1,"random"
"287",3,296,"fries.jpg","1","old",1,1145,1,"random"
"288",3,297,"Fuse.jpg","3","new",0,1529,1,"random"
"289",3,298,"Shield_Antique.jpg",".","old",0,516,1,"random"
"290",3,299,"Cantaloupe.jpg","1","old",1,1001,1,"random"
"291",3,300,"AmpMeter.jpg","3","new",0,1329,1,"random"
"292",3,301,"Hockey_Equipment.jpg",".","new",1,1077,1,"random"
"293",3,302,"Radio_Vintage.jpg",".","old",0,605,1,"random"
"294",3,303,"FlashlightHeadBand.jpg","1","old",1,1977,1,"random"
"295",3,304,"Paddle_Beach.jpg",".","old",0,557,1,"random"
"296",3,305,"TeethMould.jpg","3","old",1,921,1,"random"
"297",3,306,"Leaf_Clover.jpg","1","old",1,1105,1,"random"
"298",3,307,"Baster.jpg",".","old",0,1253,1,"random"
"299",3,308,"KitchenTools.jpg",".","old",0,1181,1,"random"
"300",3,309,"Exercise_Stretch.jpg","1","new",0,1066,1,"random"
"301",3,310,"Lantern_TeaBox.jpg","1","new",0,1585,1,"random"
"302",3,311,"Hammer.jpg",".","new",1,1253,1,"random"
"303",3,312,"Paratrooper.jpg","3","new",0,1354,1,"random"
"304",3,313,"CrepeMaker.jpg",".","new",1,1158,1,"random"
"305",3,314,"Toolbox_Old.jpg",".","old",0,597,1,"random"
"306",3,315,"DrinkingFountain.jpg","1","new",0,1266,1,"random"
"307",3,316,"Wheelbarrow_Green.jpg","1","new",0,1090,1,"random"
"308",3,317,"Notebook.jpg","1","new",0,1138,1,"random"
"309",3,318,"Glove_Rubber.jpg","3","old",1,1506,1,"random"
"310",3,319,"Wheel_Steering.jpg",".","new",1,638,1,"random"
"311",3,320,"NeedlesAcupuncture.jpg","3","old",1,1250,1,"random"
"312",3,321,"Golf_Bag.jpg","1","old",1,1578,1,"random"
"313",3,322,"Brace_Back.jpg",".","0",0,1500,1,"random"
"314",3,323,"WireStripper.jpg","1","new",0,1578,1,"random"
"315",3,324,"Mug_Beer.jpg","1","new",0,1018,1,"random"
"316",3,325,"ToothPaste.jpg",".","new",1,966,1,"random"
"317",4,2,"Glass_Cup.jpg",".","new",1,1004,1,"random"
"318",4,3,"Loofa.jpg",".","new",1,637,1,"random"
"319",4,4,"Mango.jpg","1","old",1,974,1,"random"
"320",4,5,"Tofu.jpg",".","new",1,1287,1,"random"
"321",4,6,"Toy_Shapesorter.jpg","1","old",1,871,1,"random"
"322",4,7,"PaintRollTray.jpg","3","old",1,945,1,"random"
"323",4,8,"Jar_JellyBeans.jpg","3","old",1,666,1,"random"
"324",4,9,"Candy_Heart.jpg","3","old",1,780,1,"random"
"325",4,10,"Fish_Rockbass.jpg","1","old",1,885,1,"random"
"326",4,11,"BoogieBoard.jpg",".","new",1,734,1,"random"
"327",4,12,"Fridge.jpg",".","new",1,1343,1,"random"
"328",4,13,"SmokeDetector.jpg","1","old",1,816,1,"random"
"329",4,14,"Icepick.jpg",".","new",1,934,1,"random"
"330",4,15,"Cross.jpg",".","new",1,814,1,"random"
"331",4,16,"SundaeBanana.jpg",".","new",1,695,1,"random"
"332",4,17,"Thermos_MetalSleek.jpg",".","new",1,1079,1,"random"
"333",4,18,"Bottle_Blue.jpg","3","old",1,593,1,"random"
"334",4,19,"BicycleChain.jpg",".","new",1,649,1,"random"
"335",4,20,"Keg.jpg","1","old",1,1275,1,"random"
"336",4,21,"Flower_Hibiscus.jpg",".","new",1,899,1,"random"
"337",4,22,"ContactLens.jpg",".","new",1,892,1,"random"
"338",4,23,"Cannister_Gas.jpg",".","new",1,741,1,"random"
"339",4,24,"Spatula_1.jpg",".","new",1,998,1,"random"
"340",4,25,"MobilityScooter.jpg",".","new",1,791,1,"random"
"341",4,26,"Car_Sedan.jpg","3","old",1,809,1,"random"
"342",4,27,"Saw.jpg","1","old",1,670,1,"random"
"343",4,28,"Carbiner_Ascender.jpg",".","old",0,1174,1,"random"
"344",4,29,"Chair_BeanBag.jpg","3","old",1,712,1,"random"
"345",4,30,"Beater_Electric.jpg","3","old",1,681,1,"random"
"346",4,31,"Boxcutter.jpg",".","new",1,762,1,"random"
"347",4,32,"Toy_SeeSaw.jpg",".","new",1,730,1,"random"
"348",4,33,"ReindeerHeadband.jpg",".","new",1,627,1,"random"
"349",4,34,"Dress_Party.jpg","1","old",1,813,1,"random"
"350",4,35,"DentistOverheadLight.jpg","1","old",1,1054,1,"random"
"351",4,36,"OnionRed.jpg",".","new",1,686,1,"random"
"352",4,37,"ButterDish.jpg","1","old",1,1072,1,"random"
"353",4,38,"Truck_Dump.jpg",".","new",1,642,1,"random"
"354",4,39,"Switch_LightWhite.jpg",".","new",1,905,1,"random"
"355",4,40,"ChessPiece_Knight.jpg",".","new",1,666,1,"random"
"356",4,41,"PaintBrushAndPallette.jpg","3","old",1,858,1,"random"
"357",4,42,"Teabag.jpg","3","old",1,716,1,"random"
"358",4,43,"Hawk.jpg",".","new",1,637,1,"random"
"359",4,44,"Gorilla.jpg",".","new",1,1269,1,"random"
"360",4,45,"Candy_Chocolate.jpg","1","old",1,1014,1,"random"
"361",4,46,"BusStop.jpg","1","old",1,823,1,"random"
"362",4,47,"TinChristmas.jpg","1","new",0,769,1,"random"
"363",4,48,"Iron_Antique.jpg",".","new",1,1009,1,"random"
"364",4,49,"Autocreeper.jpg","1","old",1,786,1,"random"
"365",4,50,"Pants_Jeans.jpg","1","old",1,835,1,"random"
"366",4,51,"GPS.jpg","3","old",1,644,1,"random"
"367",4,52,"Decoration_WallOrnament.jpg",".","new",1,750,1,"random"
"368",4,53,"Radio_Vintage.jpg",".","new",1,904,1,"random"
"369",4,54,"Flower_Orchid.jpg",".","new",1,809,1,"random"
"370",4,55,"Mitt_Oven.jpg","1","old",1,706,1,"random"
"371",4,56,"Wheel_Steering.jpg",".","new",1,747,1,"random"
"372",4,57,"Toy_Moose.jpg","3","old",1,866,1,"random"
"373",4,58,"Stove_Camping.jpg","3","new",0,715,1,"random"
"374",4,59,"GranolaBar.jpg",".","new",1,917,1,"random"
"375",4,60,"CookieCutter_Bell.jpg","1","new",0,774,1,"random"
"376",4,61,"Beaker.jpg",".","new",1,735,1,"random"
"377",4,62,"DoorBell.jpg","1","old",1,936,1,"random"
"378",4,63,"Trophy.jpg","3","old",1,625,1,"random"
"379",4,64,"SculptureMetalFish.jpg","1","old",1,659,1,"random"
"380",4,65,"KitchenTools.jpg",".","new",1,763,1,"random"
"381",4,67,"Hoverboard.jpg",".","new",1,1141,1,"random"
"382",4,68,"Almond.jpg","1","old",1,677,1,"random"
"383",4,69,"MonkeyPuppet.jpg","3","old",1,1174,1,"random"
"384",4,70,"Toy_TableSet.jpg",".","new",1,751,1,"random"
"385",4,71,"FireExtinguisher.jpg","1","old",1,767,1,"random"
"386",4,72,"Bell_Hand.jpg",".","new",1,904,1,"random"
"387",4,73,"RibbonSpool.jpg",".","old",0,601,1,"random"
"388",4,74,"SkullDeer.jpg",".","new",1,1090,1,"random"
"389",4,75,"CartonEggs.jpg",".","new",1,795,1,"random"
"390",4,76,"Sock_Ankle.jpg",".","new",1,763,1,"random"
"391",4,77,"LeatherPuncherTool.jpg","3","old",1,1053,1,"random"
"392",4,78,"Sign_Parking.jpg","3","old",1,574,1,"random"
"393",4,79,"Bowl_Chinese.jpg","3","old",1,591,1,"random"
"394",4,80,"DoorKnob.jpg","3","old",1,609,1,"random"
"395",4,81,"Pipe_Drain.jpg","1","old",1,682,1,"random"
"396",4,82,"Comb.jpg",".","new",1,811,1,"random"
"397",4,83,"Pig.jpg",".","new",1,1363,1,"random"
"398",4,84,"SmokingPipe.jpg",".","new",1,780,1,"random"
"399",4,85,"Telescope.jpg",".","new",1,652,1,"random"
"400",4,86,"Boardgame_Checkers.jpg",".","new",1,845,1,"random"
"401",4,87,"HairDryer.jpg","1","old",1,886,1,"random"
"402",4,88,"TireRims.jpg",".","new",1,702,1,"random"
"403",4,89,"Case_DVD.jpg",".","new",1,703,1,"random"
"404",4,90,"CuttingBoard.jpg",".","new",1,792,1,"random"
"405",4,91,"Chest.jpg","1","old",1,858,1,"random"
"406",4,92,"Paddle_Beach.jpg",".","new",1,667,1,"random"
"407",4,93,"BloodpPresureCuff.jpg",".","new",1,834,1,"random"
"408",4,94,"Tire_Hollow.jpg",".","new",1,843,1,"random"
"409",4,95,"Table_Poker.jpg","1","old",1,796,1,"random"
"410",4,96,"ToothPaste.jpg",".","new",1,757,1,"random"
"411",4,97,"Ball_8.jpg",".","new",1,1430,1,"random"
"412",4,98,"WindowBlinds.jpg","3","old",1,815,1,"random"
"413",4,99,"Brace_Back.jpg",".","new",1,952,1,"random"
"414",4,100,"Toy_Witch.jpg","3","old",1,1368,1,"random"
"415",4,101,"Pineapple.jpg","3","old",1,865,1,"random"
"416",4,102,"Thermostat_Digital.jpg","1","old",1,763,1,"random"
"417",4,103,"Toy_DollOffice.jpg",".","new",1,803,1,"random"
"418",4,104,"FlipFlop_PairBlue.jpg",".","new",1,861,1,"random"
"419",4,105,"BottleOpener.jpg","1","old",1,1238,1,"random"
"420",4,106,"Crib_Basket.jpg",".","new",1,799,1,"random"
"421",4,107,"Outhouse.jpg",".","new",1,791,1,"random"
"422",4,108,"PropellerFan.jpg",".","new",1,664,1,"random"
"423",4,109,"CandyDispenser.jpg","1","old",1,1497,1,"random"
"424",4,110,"Bird_Cardinal.jpg","3","old",1,618,1,"random"
"425",4,111,"Brooch_Fish.jpg",".","new",1,698,1,"random"
"426",4,112,"Phone_Wireless.jpg","3","old",1,892,1,"random"
"427",4,113,"DrillBit.jpg",".","new",1,875,1,"random"
"428",4,114,"Flamingo_Cartoon.jpg","1","old",1,900,1,"random"
"429",4,115,"Ball_Disco.jpg",".","new",1,797,1,"random"
"430",4,116,"Cassette_Audio.jpg","3","old",1,950,1,"random"
"431",4,117,"Bomb.jpg",".","new",1,743,1,"random"
"432",4,118,"Pipe.jpg",".","new",1,1168,1,"random"
"433",4,119,"DogTreat.jpg","1","old",1,1065,1,"random"
"434",4,120,"IceCrusher.jpg","3","old",1,826,1,"random"
"435",4,121,"Bottle_BubbleBlower.jpg",".","old",0,875,1,"random"
"436",4,122,"Lollipop_Grape.jpg","1","old",1,708,1,"random"
"437",4,123,"Cake_Wedding.jpg","1","old",1,742,1,"random"
"438",4,124,"MonaLisa.jpg","1","old",1,615,1,"random"
"439",4,125,"Lighter_Yellow.jpg",".","new",1,791,1,"random"
"440",4,126,"Chinchilla.jpg",".","new",1,584,1,"random"
"441",4,127,"Speaker_OnStand.jpg","3","old",1,1041,1,"random"
"442",4,128,"Generator.jpg","3","old",1,634,1,"random"
"443",4,129,"Flute_Wooden.jpg","1","old",1,735,1,"random"
"444",4,130,"Crutches.jpg",".","new",1,721,1,"random"
"445",4,131,"Hourglass.jpg","3","old",1,649,1,"random"
"446",4,133,"Cabinet_Office.jpg",".","new",1,959,1,"random"
"447",4,134,"Glass_Martini.jpg",".","new",1,591,1,"random"
"448",4,135,"Toy_PoliceCar.jpg",".","new",1,728,1,"random"
"449",4,136,"Tape_Washi.jpg",".","new",1,554,1,"random"
"450",4,137,"PotatoMasher_Zigzag.jpg","3","old",1,762,1,"random"
"451",4,138,"Clip_Paper.jpg","3","old",1,571,1,"random"
"452",4,139,"Currants.jpg",".","new",1,643,1,"random"
"453",4,140,"DivingBoard.jpg",".","new",1,941,1,"random"
"454",4,141,"Balalaika.jpg","3","new",0,806,1,"random"
"455",4,142,"Pajamas.jpg",".","new",1,903,1,"random"
"456",4,143,"Hazelnut.jpg",".","new",1,1040,1,"random"
"457",4,144,"Jar_Cotton.jpg",".","new",1,664,1,"random"
"458",4,145,"Toy_Lighthouse.jpg",".","new",1,601,1,"random"
"459",4,146,"BicycleBrake.jpg","1","old",1,818,1,"random"
"460",4,147,"Socks_Winter.jpg",".","old",0,1089,1,"random"
"461",4,148,"Bellows.jpg","3","old",1,580,1,"random"
"462",4,149,"Sushi.jpg","1","old",1,687,1,"random"
"463",4,150,"DryRack_Dishes.jpg","3","old",1,608,1,"random"
"464",4,151,"Knife_Hunting.jpg","3","old",1,641,1,"random"
"465",4,152,"BicycleHandleGrip.jpg","1","old",1,587,1,"random"
"466",4,153,"Guitarcase.jpg","3","old",1,644,1,"random"
"467",4,154,"Lilypad.jpg","3","old",1,644,1,"random"
"468",4,155,"Knife_Butter.jpg",".","new",1,805,1,"random"
"469",4,156,"BicyclePedal.jpg","3","old",1,750,1,"random"
"470",4,157,"Cage_Bird.jpg",".","new",1,831,1,"random"
"471",4,158,"Bathtub.jpg","1","old",1,737,1,"random"
"472",4,159,"CoffeeGrinder.jpg",".","new",1,724,1,"random"
"473",4,160,"Trumpet.jpg","3","old",1,877,1,"random"
"474",4,161,"Arch.jpg",".","new",1,670,1,"random"
"475",4,162,"Toy_StackingRing.jpg","3","old",1,781,1,"random"
"476",4,163,"Sink_Bathroom.jpg",".","old",0,639,1,"random"
"477",4,164,"Chipmunk.jpg",".","new",1,935,1,"random"
"478",4,165,"SafetyPin.jpg",".","new",1,953,1,"random"
"479",4,166,"Bottle_Specimen.jpg",".","new",1,745,1,"random"
"480",4,167,"Nyala.jpg","3","old",1,955,1,"random"
"481",4,168,"Bottle_Wine.jpg","1","old",1,836,1,"random"
"482",4,169,"Candle_Blue.jpg","1","new",0,901,1,"random"
"483",4,170,"Syrup_Maple.jpg",".","new",1,798,1,"random"
"484",4,171,"Box_Present.jpg",".","new",1,911,1,"random"
"485",4,172,"Pen_Ballpoint.jpg",".","new",1,770,1,"random"
"486",4,173,"WashRack.jpg","1","old",1,906,1,"random"
"487",4,174,"House_Rural.jpg",".","new",1,595,1,"random"
"488",4,175,"Hook_Fish.jpg","3","old",1,1253,1,"random"
"489",4,176,"Bugle.jpg",".","new",1,718,1,"random"
"490",4,177,"Drink_Green.jpg","3","old",1,999,1,"random"
"491",4,178,"Tweezers.jpg",".","new",1,692,1,"random"
"492",4,179,"Mat_Door.jpg","3","old",1,1024,1,"random"
"493",4,180,"Cherry.jpg","3","old",1,673,1,"random"
"494",4,182,"StringBean.jpg","3","old",1,675,1,"random"
"495",4,183,"NailPolish.jpg","3","old",1,877,1,"random"
"496",4,184,"Chest_Toys.jpg","3","old",1,646,1,"random"
"497",4,185,"NintendoWii.jpg","3","old",1,640,1,"random"
"498",4,186,"Pot_Cooking.jpg",".","new",1,1001,1,"random"
"499",4,187,"PaintRoller.jpg",".","old",0,858,1,"random"
"500",4,188,"Megaphone.jpg","3","old",1,635,1,"random"
"501",4,189,"Skates.jpg","3","old",1,600,1,"random"
"502",4,190,"Sign_TrafficArrow.jpg",".","old",0,569,1,"random"
"503",4,191,"BicycleGear.jpg",".","new",1,1241,1,"random"
"504",4,192,"Goose_Canadian.jpg","3","old",1,699,1,"random"
"505",4,193,"Kite_Rainbow.jpg",".","new",1,721,1,"random"
"506",4,194,"ElasticBand.jpg",".","new",1,737,1,"random"
"507",4,195,"Apple_RedAndGreen.jpg","1","old",1,1289,1,"random"
"508",4,196,"Pitcher.jpg","1","new",0,786,1,"random"
"509",4,197,"Hockey_Equipment.jpg",".","new",1,690,1,"random"
"510",4,199,"Microphone.jpg",".","new",1,1568,1,"random"
"511",4,200,"Cup_Styrofoam.jpg","3","old",1,753,1,"random"
"512",4,201,"Waffle.jpg",".","new",1,1145,1,"random"
"513",4,202,"PassionFruit.jpg","3","old",1,670,1,"random"
"514",4,203,"Statue_VirginMary.jpg",".","new",1,791,1,"random"
"515",4,204,"Knee.jpg","3","old",1,792,1,"random"
"516",4,205,"Shoes_DutchClogs.jpg","1","old",1,1330,1,"random"
"517",4,206,"Toy_BlocksPlastic Colourful.jpg","1","new",0,761,1,"random"
"518",4,207,"LampPost_OneBulb.jpg",".","new",1,674,1,"random"
"519",4,208,"CookieCutter_Tree.jpg",".","new",1,1227,1,"random"
"520",4,209,"Baster.jpg",".","new",1,564,1,"random"
"521",4,210,"AnsweringMachine.jpg",".","new",1,725,1,"random"
"522",4,211,"Drum_Brazilan.jpg",".","new",1,685,1,"random"
"523",4,212,"CameoPortrait.jpg","1","old",1,967,1,"random"
"524",4,213,"Mattress.jpg","3","old",1,783,1,"random"
"525",4,214,"Desk_School.jpg","3","old",1,744,1,"random"
"526",4,215,"Fruit_Cactus.jpg","1","old",1,830,1,"random"
"527",4,216,"Bullet.jpg","3","old",1,697,1,"random"
"528",4,217,"Sign_Wetfloor.jpg","3","old",1,635,1,"random"
"529",4,218,"Broom_Long.jpg",".","new",1,691,1,"random"
"530",4,219,"Mop.jpg","1","old",1,906,1,"random"
"531",4,220,"Tortilla.jpg","3","old",1,788,1,"random"
"532",4,221,"JukeboxAntique.jpg","3","old",1,757,1,"random"
"533",4,222,"Chair_MedicalToilet.jpg","1","old",1,860,1,"random"
"534",4,223,"Shield_Antique.jpg",".","old",0,582,1,"random"
"535",4,224,"Light_Siren.jpg","1","new",0,821,1,"random"
"536",4,225,"Toolbox_RedOpen.jpg",".","new",1,662,1,"random"
"537",4,226,"Fortress.jpg","1","old",1,711,1,"random"
"538",4,227,"Lamp_TableWhite.jpg",".","new",1,688,1,"random"
"539",4,228,"Toy_GasPump.jpg","3","old",1,705,1,"random"
"540",4,229,"Ashtray_Empty.jpg","3","old",1,632,1,"random"
"541",4,230,"BadgeSpecialAgent.jpg","3","old",1,578,1,"random"
"542",4,231,"CrepeMaker.jpg",".","new",1,826,1,"random"
"543",4,232,"PaperStack.jpg",".","new",1,810,1,"random"
"544",4,233,"Hippopotamus.jpg","3","old",1,667,1,"random"
"545",4,234,"Mask_Happy.jpg","1","old",1,971,1,"random"
"546",4,235,"GasBurner.jpg","1","old",1,900,1,"random"
"547",4,236,"Seashell_AlternateTellin.jpg",".","new",1,765,1,"random"
"548",4,237,"Oyster.jpg","3","old",1,709,1,"random"
"549",4,238,"Spoon_Wooden.jpg","3","old",1,735,1,"random"
"550",4,239,"SewingMachine.jpg",".","new",1,816,1,"random"
"551",4,240,"Tickets_Blank.jpg","3","old",1,833,1,"random"
"552",4,241,"PedestalGreek.jpg",".","new",1,688,1,"random"
"553",4,242,"Box_FirstAidOpen.jpg",".","new",1,817,1,"random"
"554",4,243,"PanCooking.jpg",".","new",1,903,1,"random"
"555",4,244,"TartStrawberry.jpg","3","old",1,712,1,"random"
"556",4,245,"Helmet_Construction.jpg","1","old",1,1711,1,"random"
"557",4,246,"Boots_KneeHigh.jpg",".","new",1,625,1,"random"
"558",4,247,"Helmet_Soldier.jpg","1","old",1,1498,1,"random"
"559",4,248,"Strainer_Tea.jpg",".","new",1,714,1,"random"
"560",4,249,"Colander.jpg","1","old",1,811,1,"random"
"561",4,250,"Statue_SouthAmerican.jpg",".","new",1,659,1,"random"
"562",4,251,"Peppermill.jpg","1","old",1,773,1,"random"
"563",4,252,"Tribunal_Wooden.jpg",".","new",1,605,1,"random"
"564",4,253,"Dolphine.jpg",".","new",1,734,1,"random"
"565",4,254,"Steeple.jpg","3","old",1,783,1,"random"
"566",4,255,"SaxophoneSoprano.jpg",".","new",1,609,1,"random"
"567",4,256,"Hottub.jpg",".","new",1,778,1,"random"
"568",4,257,"MixingGlass.jpg","1","new",0,635,1,"random"
"569",4,258,"Blanket.jpg","1","old",1,787,1,"random"
"570",4,259,"Spoons_MeasuringDetached.jpg","1","new",0,605,1,"random"
"571",4,260,"Toolbox_Old.jpg",".","new",1,1073,1,"random"
"572",4,261,"Screw.jpg",".","new",1,630,1,"random"
"573",4,262,"Box_Floral.jpg","3","old",1,718,1,"random"
"574",4,263,"HumanSkeleton.jpg",".","new",1,559,1,"random"
"575",4,265,"Caterpillar.jpg",".","new",1,839,1,"random"
"576",4,266,"Playground.jpg",".","new",1,681,1,"random"
"577",4,267,"BicycleOdometer.jpg",".","new",1,553,1,"random"
"578",4,268,"Lock_Combination.jpg","1","new",0,577,1,"random"
"579",4,269,"Toy_BearBlackPlastic.jpg",".","new",1,739,1,"random"
"580",4,270,"Toys_Lego.jpg","1","new",0,848,1,"random"
"581",4,271,"Tripod.jpg","1","new",0,664,1,"random"
"582",4,272,"Hat_Baseball.jpg",".","new",1,577,1,"random"
"583",4,273,"Gun_Glue.jpg",".","new",1,578,1,"random"
"584",4,274,"Pasta_Spaghetti.jpg",".","new",1,538,1,"random"
"585",4,275,"Box_Jewellery.jpg","1","new",0,482,1,"random"
"586",4,276,"TurkeyDinner.jpg",".","new",1,515,1,"random"
"587",4,277,"Thermostat.jpg",".","new",1,468,1,"random"
"588",4,278,"Jug_Milk.jpg",".","new",1,557,1,"random"
"589",4,279,"Toy_RockingHorseBlack.jpg","1","new",0,549,1,"random"
"590",4,280,"RemoteControl.jpg","3","old",1,859,1,"random"
"591",4,281,"ShoppingCart.jpg",".","new",1,691,1,"random"
"592",4,282,"ShearsGarden.jpg",".","new",1,821,1,"random"
"593",4,283,"Shampoo.jpg","3","old",1,749,1,"random"
"594",4,284,"ShoulderPads.jpg","1","new",0,613,1,"random"
"595",4,285,"Bindings_Snowboard.jpg",".","new",1,790,1,"random"
"596",4,286,"Frame_Oval.jpg",".","new",1,710,1,"random"
"597",4,287,"Exercise_Machine.jpg",".","new",1,740,1,"random"
"598",4,288,"Hammer_Reflex.jpg","1","old",1,933,1,"random"
"599",4,289,"PuppetTheatre_WhiteGold.jpg","3","old",1,982,1,"random"
"600",4,290,"Guitar_Acoustic.jpg","1","new",0,782,1,"random"
"601",4,291,"fries.jpg","1","old",1,918,1,"random"
"602",4,292,"Fuse.jpg","3","old",1,623,1,"random"
"603",4,293,"Fencing_HelmetSwords.jpg",".","old",0,879,1,"random"
"604",4,294,"Cantaloupe.jpg","1","old",1,616,1,"random"
"605",4,295,"Hammer.jpg",".","old",0,793,1,"random"
"606",4,296,"KeyHook_Occupied.jpg",".","new",1,625,1,"random"
"607",4,297,"AmpMeter.jpg","3","old",1,754,1,"random"
"608",4,298,"FlashlightHeadBand.jpg","1","old",1,883,1,"random"
"609",4,299,"Pickaxe.jpg",".","new",1,859,1,"random"
"610",4,300,"TeethMould.jpg","3","old",1,693,1,"random"
"611",4,301,"Dart.jpg",".","new",1,756,1,"random"
"612",4,302,"Leaf_Clover.jpg","1","old",1,685,1,"random"
"613",4,303,"Shoe_Pink.jpg",".","new",1,710,1,"random"
"614",4,304,"Helmet_Knight.jpg",".","new",1,714,1,"random"
"615",4,305,"Clock_Radio.jpg",".","new",1,707,1,"random"
"616",4,306,"Bandage_Wrap.jpg",".","new",1,754,1,"random"
"617",4,307,"Exercise_Stretch.jpg","1","old",1,932,1,"random"
"618",4,308,"Bench_Wooden.jpg",".","new",1,763,1,"random"
"619",4,309,"Lantern_TeaBox.jpg","1","new",0,811,1,"random"
"620",4,310,"Paratrooper.jpg","3","old",1,723,1,"random"
"621",4,311,"DrinkingFountain.jpg","1","new",0,724,1,"random"
"622",4,312,"Wheelbarrow_Green.jpg","1","new",0,773,1,"random"
"623",4,313,"Notebook.jpg","1","new",0,806,1,"random"
"624",4,314,"Glove_Rubber.jpg","3","old",1,591,1,"random"
"625",4,315,"Can_OilSpout.jpg",".","new",1,679,1,"random"
"626",4,316,"Makeup_Foundation.jpg",".","old",0,784,1,"random"
"627",4,317,"Cabinet_Display.jpg",".","new",1,849,1,"random"
"628",4,318,"Dress_Blue.jpg",".","new",1,706,1,"random"
"629",4,319,"NeedlesAcupuncture.jpg","3","old",1,945,1,"random"
"630",4,320,"Golf_Bag.jpg","1","old",1,859,1,"random"
"631",4,321,"WireStripper.jpg","1","old",1,595,1,"random"
"632",4,322,"Chopsticks.jpg",".","new",1,804,1,"random"
"633",4,323,"Mug_Beer.jpg","1","old",1,853,1,"random"
"634",4,325,"MouthGuard.jpg","","old",1,719,1,"random"
"635",5,1,"MouthGuard.jpg","3","old",1,794,1,"random"
"636",5,2,"Mango.jpg","1","new",0,811,1,"random"
"637",5,3,"Ball_Disco.jpg",".","new",1,902,1,"random"
"638",5,4,"Toy_Shapesorter.jpg","1","new",0,1426,1,"random"
"639",5,5,"Hat_Baseball.jpg",".","new",1,843,1,"random"
"640",5,6,"PaintRollTray.jpg","3","old",1,925,1,"random"
"641",5,7,"Jar_JellyBeans.jpg","3","old",1,720,1,"random"
"642",5,8,"Candy_Heart.jpg","3","old",1,643,1,"random"
"643",5,9,"Arch.jpg",".","new",1,615,1,"random"
"644",5,10,"Glass_Martini.jpg",".","new",1,722,1,"random"
"645",5,11,"ShoppingCart.jpg",".","new",1,572,1,"random"
"646",5,12,"Fish_Rockbass.jpg","1","old",1,941,1,"random"
"647",5,13,"Socks_Winter.jpg",".","new",1,783,1,"random"
"648",5,14,"SmokeDetector.jpg","1","new",0,1130,1,"random"
"649",5,15,"Pipe.jpg",".","new",1,899,1,"random"
"650",5,16,"Comb.jpg",".","new",1,461,1,"random"
"651",5,17,"Boots_KneeHigh.jpg",".","new",1,607,1,"random"
"652",5,18,"Bottle_Blue.jpg","3","new",0,561,1,"random"
"653",5,19,"Keg.jpg","1","new",0,747,1,"random"
"654",5,20,"Car_Sedan.jpg","3","old",1,669,1,"random"
"655",5,21,"Wheel_Steering.jpg",".","new",1,584,1,"random"
"656",5,22,"Kite_Rainbow.jpg",".","new",1,1513,1,"random"
"657",5,23,"Saw.jpg","1","old",1,835,1,"random"
"658",5,24,"Chair_BeanBag.jpg","3","new",0,1277,1,"random"
"659",5,25,"Beater_Electric.jpg","3","old",1,727,1,"random"
"660",5,26,"CoffeeGrinder.jpg",".","new",1,825,1,"random"
"661",5,27,"Sink_Bathroom.jpg",".","new",1,915,1,"random"
"662",5,28,"Bomb.jpg",".","new",1,1069,1,"random"
"663",5,29,"Dress_Party.jpg","1","new",0,1151,1,"random"
"664",5,30,"ReindeerHeadband.jpg",".","new",1,1129,1,"random"
"665",5,31,"DentistOverheadLight.jpg","1","new",0,755,1,"random"
"666",5,32,"BicycleGear.jpg",".","new",1,621,1,"random"
"667",5,33,"Can_OilSpout.jpg",".","new",1,927,1,"random"
"668",5,34,"House_Rural.jpg",".","new",1,721,1,"random"
"669",5,35,"ButterDish.jpg","1","new",0,564,1,"random"
"670",5,36,"BicycleOdometer.jpg",".","new",1,671,1,"random"
"671",5,37,"Hammer.jpg",".","new",1,665,1,"random"
"672",5,38,"PaintBrushAndPallette.jpg","3","old",1,1274,1,"random"
"673",5,39,"Teabag.jpg","3","old",1,1021,1,"random"
"674",5,40,"Candy_Chocolate.jpg","1","new",0,799,1,"random"
"675",5,41,"Outhouse.jpg",".","old",0,1274,1,"random"
"676",5,42,"Waffle.jpg",".","new",1,1220,1,"random"
"677",5,43,"BusStop.jpg","1","new",0,1143,1,"random"
"678",5,44,"Fencing_HelmetSwords.jpg",".","new",1,992,1,"random"
"679",5,45,"TinChristmas.jpg","1","old",1,922,1,"random"
"680",5,46,"SaxophoneSoprano.jpg",".","new",1,829,1,"random"
"681",5,47,"Autocreeper.jpg","1","new",0,927,1,"random"
"682",5,48,"Statue_SouthAmerican.jpg",".","new",1,584,1,"random"
"683",5,49,"Pants_Jeans.jpg","1","new",0,898,1,"random"
"684",5,50,"PedestalGreek.jpg",".","new",1,981,1,"random"
"685",5,51,"GPS.jpg","3","new",0,830,1,"random"
"686",5,52,"Mitt_Oven.jpg","1","new",0,1200,1,"random"
"687",5,53,"Flower_Hibiscus.jpg",".","new",1,1130,1,"random"
"688",5,54,"Toy_Moose.jpg","3","old",1,701,1,"random"
"689",5,55,"Stove_Camping.jpg","3","new",0,670,1,"random"
"690",5,56,"CookieCutter_Bell.jpg","1","new",0,672,1,"random"
"691",5,57,"Flower_Orchid.jpg",".","new",1,803,1,"random"
"692",5,58,"Knife_Butter.jpg",".","new",1,822,1,"random"
"693",5,59,"Toy_BearBlackPlastic.jpg",".","new",1,728,1,"random"
"694",5,60,"DoorBell.jpg","1","old",1,842,1,"random"
"695",5,61,"Trophy.jpg","3","new",0,644,1,"random"
"696",5,62,"SculptureMetalFish.jpg","1","new",0,766,1,"random"
"697",5,63,"Switch_LightWhite.jpg",".","new",1,640,1,"random"
"698",5,64,"ContactLens.jpg",".","old",0,570,1,"random"
"699",5,65,"Almond.jpg","1","new",0,1028,1,"random"
"700",5,67,"SewingMachine.jpg",".","old",0,1122,1,"random"
"701",5,68,"FlipFlop_PairBlue.jpg",".","new",1,652,1,"random"
"702",5,69,"MonkeyPuppet.jpg","3","old",1,799,1,"random"
"703",5,70,"FireExtinguisher.jpg","1","new",0,1144,1,"random"
"704",5,71,"LeatherPuncherTool.jpg","3","old",1,922,1,"random"
"705",5,72,"Bottle_BubbleBlower.jpg",".","new",1,853,1,"random"
"706",5,73,"Icepick.jpg",".","new",1,647,1,"random"
"707",5,74,"Sign_Parking.jpg","3","old",1,632,1,"random"
"708",5,75,"Bowl_Chinese.jpg","3","new",0,937,1,"random"
"709",5,76,"DoorKnob.jpg","3","old",1,1474,1,"random"
"710",5,77,"Pipe_Drain.jpg","1","new",0,1860,1,"random"
"711",5,78,"Broom_Long.jpg",".","new",1,1246,1,"random"
"712",5,79,"HairDryer.jpg","1","new",0,585,1,"random"
"713",5,80,"Chest.jpg","1","new",0,730,1,"random"
"714",5,81,"Table_Poker.jpg","1","new",0,604,1,"random"
"715",5,82,"WindowBlinds.jpg","3","new",0,694,1,"random"
"716",5,83,"Pot_Cooking.jpg",".","new",1,888,1,"random"
"717",5,84,"ChessPiece_Knight.jpg",".","new",1,698,1,"random"
"718",5,85,"OnionRed.jpg",".","new",1,756,1,"random"
"719",5,86,"Toy_Witch.jpg","3","old",1,846,1,"random"
"720",5,87,"Pineapple.jpg","3","old",1,736,1,"random"
"721",5,88,"Ball_8.jpg",".","new",1,802,1,"random"
"722",5,89,"Thermostat_Digital.jpg","1","new",0,868,1,"random"
"723",5,90,"BottleOpener.jpg","1","new",0,1357,1,"random"
"724",5,91,"CandyDispenser.jpg","1","old",1,968,1,"random"
"725",5,92,"Bird_Cardinal.jpg","3","0",0,1997,1,"random"
"726",5,93,"Currants.jpg",".","new",1,1261,1,"random"
"727",5,94,"Phone_Wireless.jpg","3","new",0,880,1,"random"
"728",5,95,"Flamingo_Cartoon.jpg","1","old",1,866,1,"random"
"729",5,96,"KeyHook_Occupied.jpg",".","new",1,1045,1,"random"
"730",5,97,"Cassette_Audio.jpg","3","old",1,1161,1,"random"
"731",5,98,"DogTreat.jpg","1","new",0,1260,1,"random"
"732",5,99,"Truck_Dump.jpg",".","new",1,697,1,"random"
"733",5,100,"IceCrusher.jpg","3","new",0,675,1,"random"
"734",5,101,"CartonEggs.jpg",".","new",1,725,1,"random"
"735",5,102,"Screw.jpg",".","new",1,767,1,"random"
"736",5,103,"Lollipop_Grape.jpg","1","old",1,697,1,"random"
"737",5,104,"CrepeMaker.jpg",".","new",1,619,1,"random"
"738",5,105,"Toy_TableSet.jpg",".","new",1,709,1,"random"
"739",5,106,"Cake_Wedding.jpg","1","new",0,623,1,"random"
"740",5,107,"Seashell_AlternateTellin.jpg",".","new",1,651,1,"random"
"741",5,108,"MonaLisa.jpg","1","old",1,813,1,"random"
"742",5,109,"Chipmunk.jpg",".","new",1,815,1,"random"
"743",5,110,"Speaker_OnStand.jpg","3","new",0,793,1,"random"
"744",5,111,"Generator.jpg","3","old",1,1091,1,"random"
"745",5,112,"Flute_Wooden.jpg","1","new",0,845,1,"random"
"746",5,113,"TireRims.jpg",".","new",1,871,1,"random"
"747",5,114,"Iron_Antique.jpg",".","new",1,649,1,"random"
"748",5,115,"Cabinet_Office.jpg",".","new",1,794,1,"random"
"749",5,116,"Hourglass.jpg","3","new",0,749,1,"random"
"750",5,117,"PotatoMasher_Zigzag.jpg","3","new",0,1071,1,"random"
"751",5,118,"CookieCutter_Tree.jpg",".","new",1,849,1,"random"
"752",5,119,"Clip_Paper.jpg","3","new",0,618,1,"random"
"753",5,120,"DivingBoard.jpg",".","new",1,565,1,"random"
"754",5,121,"Balalaika.jpg","3","old",1,783,1,"random"
"755",5,122,"Thermos_MetalSleek.jpg",".","new",1,672,1,"random"
"756",5,123,"BicycleBrake.jpg","1","new",0,860,1,"random"
"757",5,124,"Hazelnut.jpg",".","new",1,895,1,"random"
"758",5,125,"Bellows.jpg","3","new",0,656,1,"random"
"759",5,126,"Pen_Ballpoint.jpg",".","new",1,876,1,"random"
"760",5,127,"Carbiner_Ascender.jpg",".","new",1,561,1,"random"
"761",5,128,"Makeup_Foundation.jpg",".","new",1,682,1,"random"
"762",5,129,"Sushi.jpg","1","new",0,916,1,"random"
"763",5,130,"DryRack_Dishes.jpg","3","new",0,886,1,"random"
"764",5,131,"SkullDeer.jpg",".","new",1,1112,1,"random"
"765",5,133,"Case_DVD.jpg",".","new",1,806,1,"random"
"766",5,134,"Knife_Hunting.jpg","3","old",1,985,1,"random"
"767",5,135,"BicycleHandleGrip.jpg","1","new",0,683,1,"random"
"768",5,136,"Guitarcase.jpg","3","new",0,556,1,"random"
"769",5,137,"Fridge.jpg",".","new",1,502,1,"random"
"770",5,138,"Lilypad.jpg","3","old",1,745,1,"random"
"771",5,139,"BicyclePedal.jpg","3","new",0,619,1,"random"
"772",5,140,"Bathtub.jpg","1","new",0,644,1,"random"
"773",5,141,"Brace_Back.jpg",".","new",1,703,1,"random"
"774",5,142,"Trumpet.jpg","3","new",0,825,1,"random"
"775",5,143,"Radio_Vintage.jpg",".","new",1,666,1,"random"
"776",5,144,"Helmet_Knight.jpg",".","new",1,792,1,"random"
"777",5,145,"Tribunal_Wooden.jpg",".","new",1,851,1,"random"
"778",5,146,"PropellerFan.jpg",".","new",1,652,1,"random"
"779",5,147,"Toy_StackingRing.jpg","3","new",0,606,1,"random"
"780",5,148,"Dolphine.jpg",".","new",1,752,1,"random"
"781",5,149,"Nyala.jpg","3","old",1,644,1,"random"
"782",5,150,"Toolbox_Old.jpg",".","new",1,566,1,"random"
"783",5,151,"Bottle_Wine.jpg","1","new",0,864,1,"random"
"784",5,152,"PanCooking.jpg",".","new",1,721,1,"random"
"785",5,153,"Cabinet_Display.jpg",".","new",1,580,1,"random"
"786",5,155,"WashRack.jpg","1","new",0,665,1,"random"
"787",5,156,"Microphone.jpg",".","new",1,724,1,"random"
"788",5,157,"Caterpillar.jpg",".","new",1,1166,1,"random"
"789",5,158,"Crutches.jpg",".","new",1,944,1,"random"
"790",5,159,"Hook_Fish.jpg","3","new",0,1212,1,"random"
"791",5,160,"Drink_Green.jpg","3","new",0,678,1,"random"
"792",5,161,"SundaeBanana.jpg",".","new",1,688,1,"random"
"793",5,162,"Mat_Door.jpg","3","new",0,825,1,"random"
"794",5,163,"Bell_Hand.jpg",".","new",1,932,1,"random"
"795",5,164,"Gorilla.jpg",".","new",1,806,1,"random"
"796",5,166,"Box_FirstAidOpen.jpg",".","new",1,897,1,"random"
"797",5,167,"Cherry.jpg","3","old",1,676,1,"random"
"798",5,168,"Tape_Washi.jpg",".","new",1,685,1,"random"
"799",5,169,"Shield_Antique.jpg",".","new",1,615,1,"random"
"800",5,171,"BicycleChain.jpg",".","new",1,1140,1,"random"
"801",5,172,"StringBean.jpg","3","old",1,661,1,"random"
"802",5,173,"Chinchilla.jpg",".","new",1,895,1,"random"
"803",5,174,"Pasta_Spaghetti.jpg",".","new",1,1081,1,"random"
"804",5,175,"NailPolish.jpg","3","new",0,515,1,"random"
"805",5,176,"Chest_Toys.jpg","3","new",0,845,1,"random"
"806",5,179,"Statue_VirginMary.jpg",".","new",1,819,1,"random"
"807",5,180,"Megaphone.jpg","3","old",1,927,1,"random"
"808",5,181,"Skates.jpg","3","new",0,860,1,"random"
"809",5,182,"Goose_Canadian.jpg","3","old",1,773,1,"random"
"810",5,183,"Tire_Hollow.jpg",".","new",1,689,1,"random"
"811",5,184,"Crib_Basket.jpg",".","new",1,827,1,"random"
"812",5,185,"Thermostat.jpg",".","new",1,621,1,"random"
"813",5,186,"Apple_RedAndGreen.jpg","1","old",1,591,1,"random"
"814",5,187,"Loofa.jpg",".","new",1,705,1,"random"
"815",5,188,"Pitcher.jpg","1","new",0,666,1,"random"
"816",5,190,"Beaker.jpg",".","new",1,695,1,"random"
"817",5,191,"Sock_Ankle.jpg",".","new",1,650,1,"random"
"818",5,192,"PassionFruit.jpg","3","old",1,845,1,"random"
"819",5,193,"Box_Present.jpg",".","new",1,831,1,"random"
"820",5,194,"ElasticBand.jpg",".","new",1,1057,1,"random"
"821",5,195,"Knee.jpg","3","old",1,1082,1,"random"
"822",5,196,"Cross.jpg",".","new",1,933,1,"random"
"823",5,199,"MobilityScooter.jpg",".","new",1,817,1,"random"
"824",5,200,"Shoes_DutchClogs.jpg","1","new",0,531,1,"random"
"825",5,201,"Toy_BlocksPlastic Colourful.jpg","1","new",0,357,1,"random"
"826",5,202,"Jar_Cotton.jpg",".","new",1,519,1,"random"
"827",5,203,"KitchenTools.jpg",".","new",1,712,1,"random"
"828",5,204,"CameoPortrait.jpg","1","new",0,499,1,"random"
"829",5,206,"Mattress.jpg","3","new",0,576,1,"random"
"830",5,207,"Desk_School.jpg","3","new",0,707,1,"random"
"831",5,208,"Fruit_Cactus.jpg","1","new",0,829,1,"random"
"832",5,210,"Decoration_WallOrnament.jpg",".","new",1,576,1,"random"
"833",5,212,"Frame_Oval.jpg",".","new",1,559,1,"random"
"834",5,213,"Hoverboard.jpg",".","new",1,728,1,"random"
"835",5,215,"Glass_Cup.jpg",".","new",1,933,1,"random"
"836",5,218,"Mop.jpg","1","new",0,394,1,"random"
"837",5,219,"PaperStack.jpg",".","new",1,620,1,"random"
"838",5,220,"Tortilla.jpg","3","old",1,838,1,"random"
"839",5,221,"GranolaBar.jpg",".","new",1,688,1,"random"
"840",5,223,"Chair_MedicalToilet.jpg","1","new",0,636,1,"random"
"841",5,224,"Dart.jpg",".","new",1,454,1,"random"
"842",5,225,"Toolbox_RedOpen.jpg",".","new",1,1072,1,"random"
"843",5,226,"Playground.jpg",".","new",1,1084,1,"random"
"844",5,227,"Light_Siren.jpg","1","new",0,654,1,"random"
"845",5,228,"Toy_PoliceCar.jpg",".","new",1,1136,1,"random"
"846",5,229,"Fortress.jpg","1","new",0,1153,1,"random"
"847",5,230,"Toy_GasPump.jpg","3","old",1,844,1,"random"
"848",5,231,"Ashtray_Empty.jpg","3","new",0,742,1,"random"
"849",5,232,"BadgeSpecialAgent.jpg","3","new",0,639,1,"random"
"850",5,233,"Hippopotamus.jpg","3","old",1,601,1,"random"
"851",5,234,"Mask_Happy.jpg","1","new",0,636,1,"random"
"852",5,235,"GasBurner.jpg","1","new",0,1062,1,"random"
"853",5,236,"Gun_Glue.jpg",".","new",1,1367,1,"random"
"854",5,237,"Spatula_1.jpg",".","new",1,634,1,"random"
"855",5,238,"Toy_SeeSaw.jpg",".","new",1,590,1,"random"
"856",5,239,"Oyster.jpg","3","old",1,735,1,"random"
"857",5,240,"DrillBit.jpg",".","new",1,698,1,"random"
"858",5,241,"Spoon_Wooden.jpg","3","new",0,932,1,"random"
"859",5,242,"Strainer_Tea.jpg",".","new",1,637,1,"random"
"860",5,243,"HumanSkeleton.jpg",".","new",1,535,1,"random"
"861",5,244,"ShearsGarden.jpg",".","new",1,682,1,"random"
"862",5,245,"Tickets_Blank.jpg","3","new",0,596,1,"random"
"863",5,246,"Brooch_Fish.jpg",".","new",1,655,1,"random"
"864",5,247,"Hawk.jpg",".","new",1,593,1,"random"
"865",5,248,"TurkeyDinner.jpg",".","new",1,324,1,"random"
"866",5,249,"TartStrawberry.jpg","3","new",0,327,1,"random"
"867",5,250,"Lamp_TableWhite.jpg",".","new",1,713,1,"random"
"868",5,254,"SafetyPin.jpg",".","new",1,471,1,"random"
"869",5,255,"Helmet_Soldier.jpg","1","new",0,595,1,"random"
"870",5,257,"Peppermill.jpg","1","new",0,1711,1,"random"
"871",5,258,"Steeple.jpg","3","new",0,1858,1,"random"
"872",5,259,"Pajamas.jpg",".","new",1,731,1,"random"
"873",5,260,"MixingGlass.jpg","1","new",0,1485,1,"random"
"874",5,261,"Bench_Wooden.jpg",".","new",1,1367,1,"random"
"875",5,262,"Chopsticks.jpg",".","new",1,409,1,"random"
"876",5,263,"Lighter_Yellow.jpg",".","new",1,379,1,"random"
"877",5,265,"Blanket.jpg","1","old",1,1088,1,"random"
"878",5,266,"Spoons_MeasuringDetached.jpg","1","new",0,1225,1,"random"
"879",5,267,"Box_Floral.jpg","3","old",1,1371,1,"random"
"880",5,268,"Syrup_Maple.jpg",".","new",1,685,1,"random"
"881",5,269,"Pickaxe.jpg",".","new",1,711,1,"random"
"882",5,270,"Lock_Combination.jpg","1","new",0,993,1,"random"
"883",5,273,"Box_Jewellery.jpg","1","new",0,1575,1,"random"
"884",5,274,"SkiPoles.jpg",".","new",1,1321,1,"random"
"885",5,275,"CuttingBoard.jpg",".","new",1,1523,1,"random"
"886",5,276,"BloodpPresureCuff.jpg",".","new",1,612,1,"random"
"887",5,277,"Toy_RockingHorseBlack.jpg","1","new",0,823,1,"random"
"888",5,278,"PaintRoller.jpg",".","new",1,723,1,"random"
"889",5,279,"Bindings_Snowboard.jpg",".","new",1,636,1,"random"
"890",5,284,"ShoulderPads.jpg","1","new",0,1247,1,"random"
"891",5,285,"Hammer_Reflex.jpg","1","new",0,465,1,"random"
"892",5,288,"PuppetTheatre_WhiteGold.jpg","3","old",1,839,1,"random"
"893",5,289,"Guitar_Acoustic.jpg","1","new",0,792,1,"random"
"894",5,290,"fries.jpg","1","old",1,1144,1,"random"
"895",5,291,"Bandage_Wrap.jpg",".","new",1,619,1,"random"
"896",5,292,"Fuse.jpg","3","new",0,527,1,"random"
"897",5,293,"Cannister_Gas.jpg",".","new",1,448,1,"random"
"898",5,294,"AnsweringMachine.jpg",".","new",1,330,1,"random"
"899",5,295,"Cantaloupe.jpg","1","old",1,565,1,"random"
"900",5,296,"AmpMeter.jpg","3","new",0,520,1,"random"
"901",5,299,"FlashlightHeadBand.jpg","1","new",0,358,1,"random"
"902",5,300,"ToothPaste.jpg",".","new",1,544,1,"random"
"903",5,301,"TeethMould.jpg","3","new",0,946,1,"random"
"904",5,302,"RibbonSpool.jpg",".","new",1,1116,1,"random"
"905",5,303,"LampPost_OneBulb.jpg",".","new",1,856,1,"random"
"906",5,304,"Leaf_Clover.jpg","1","new",0,548,1,"random"
"907",5,305,"Dress_Blue.jpg",".","new",1,581,1,"random"
"908",5,306,"Exercise_Stretch.jpg","1","new",0,880,1,"random"
"909",5,308,"Paratrooper.jpg","3","old",1,804,1,"random"
"910",5,309,"DrinkingFountain.jpg","1","new",0,725,1,"random"
"911",5,310,"Exercise_Machine.jpg",".","new",1,496,1,"random"
"912",5,311,"Wheelbarrow_Green.jpg","1","new",0,842,1,"random"
"913",5,312,"Notebook.jpg","1","new",0,1115,1,"random"
"914",5,313,"Baster.jpg",".","new",1,757,1,"random"
"915",5,314,"Boardgame_Checkers.jpg",".","new",1,760,1,"random"
"916",5,315,"Glove_Rubber.jpg","3","new",0,1257,1,"random"
"917",5,316,"Tofu.jpg",".","new",1,1069,1,"random"
"918",5,317,"Bugle.jpg",".","new",1,808,1,"random"
"919",5,318,"Telescope.jpg",".","new",1,1097,1,"random"
"920",5,319,"Clock_Radio.jpg",".","0",0,1997,1,"random"
"921",5,320,"NeedlesAcupuncture.jpg","3","new",0,581,1,"random"
"922",5,322,"Bell_Hand.jpg",".","new",1,851,1,"random"
"923",5,324,"WireStripper.jpg","1","old",1,799,1,"random"
"924",5,325,"Mug_Beer.jpg","1","old",1,633,1,"random"
"925",6,1,"Box_FirstAidOpen.jpg",".","new",1,738,1,"random"
"926",6,2,"Makeup_Foundation.jpg",".","new",1,957,1,"random"
"927",6,3,"Toy_SeeSaw.jpg",".","new",1,856,1,"random"
"928",6,4,"MouthGuard.jpg","3","old",1,684,1,"random"
"929",6,5,"Mango.jpg","1","old",1,927,1,"random"
"930",6,6,"Sign_TrafficArrow.jpg",".","new",1,834,1,"random"
"931",6,7,"Toy_Shapesorter.jpg","1","old",1,758,1,"random"
"932",6,8,"Pen_Ballpoint.jpg",".","new",1,665,1,"random"
"933",6,9,"Caterpillar.jpg",".","new",1,788,1,"random"
"934",6,10,"ChessPiece_Knight.jpg",".","new",1,871,1,"random"
"935",6,11,"PaintRollTray.jpg","3","old",1,563,1,"random"
"936",6,12,"Socks_Winter.jpg",".","new",1,702,1,"random"
"937",6,13,"Toolbox_Old.jpg",".","new",1,969,1,"random"
"938",6,14,"Jar_JellyBeans.jpg","3","old",1,941,1,"random"
"939",6,15,"Candy_Heart.jpg","3","old",1,560,1,"random"
"940",6,16,"Fish_Rockbass.jpg","1","old",1,1010,1,"random"
"941",6,17,"SmokeDetector.jpg","1","new",0,879,1,"random"
"942",6,18,"Bell_Hand.jpg",".","new",1,1097,1,"random"
"943",6,19,"Bottle_Blue.jpg","3","old",1,861,1,"random"
"944",6,20,"Jug_Milk.jpg",".","new",1,776,1,"random"
"945",6,21,"Keg.jpg","1","new",0,1163,1,"random"
"946",6,22,"Car_Sedan.jpg","3","old",1,550,1,"random"
"947",6,23,"Tweezers.jpg",".","new",1,858,1,"random"
"948",6,24,"Hat_Baseball.jpg",".","new",1,709,1,"random"
"949",6,25,"Saw.jpg","1","old",1,704,1,"random"
"950",6,26,"Chair_BeanBag.jpg","3","old",1,612,1,"random"
"951",6,27,"Beater_Electric.jpg","3","old",1,631,1,"random"
"952",6,28,"Ball_8.jpg",".","new",1,650,1,"random"
"953",6,29,"Dress_Party.jpg","1","old",1,1478,1,"random"
"954",6,30,"Fridge.jpg",".","new",1,657,1,"random"
"955",6,31,"Jar_Cotton.jpg",".","new",1,924,1,"random"
"956",6,32,"Broom_Long.jpg",".","new",1,760,1,"random"
"957",6,33,"ShoppingCart.jpg",".","new",1,723,1,"random"
"958",6,34,"Kite_Rainbow.jpg",".","new",1,686,1,"random"
"959",6,35,"Telescope.jpg",".","new",1,882,1,"random"
"960",6,36,"DentistOverheadLight.jpg","1","new",0,773,1,"random"
"961",6,37,"Boxcutter.jpg",".","new",1,936,1,"random"
"962",6,38,"ButterDish.jpg","1","old",1,876,1,"random"
"963",6,39,"Pasta_Spaghetti.jpg",".","new",1,791,1,"random"
"964",6,40,"Toy_PoliceCar.jpg",".","new",1,794,1,"random"
"965",6,41,"Beaker.jpg",".","new",1,582,1,"random"
"966",6,42,"PropellerFan.jpg",".","new",1,545,1,"random"
"967",6,43,"PaintBrushAndPallette.jpg","3","old",1,660,1,"random"
"968",6,44,"SaxophoneSoprano.jpg",".","new",1,752,1,"random"
"969",6,45,"Flower_Orchid.jpg",".","new",1,779,1,"random"
"970",6,46,"Teabag.jpg","3","old",1,798,1,"random"
"971",6,47,"Candy_Chocolate.jpg","1","old",1,698,1,"random"
"972",6,48,"CartonEggs.jpg",".","new",1,1341,1,"random"
"973",6,49,"BusStop.jpg","1","new",0,1184,1,"random"
"974",6,50,"TinChristmas.jpg","1","new",0,835,1,"random"
"975",6,51,"FlipFlop_PairBlue.jpg",".","new",1,607,1,"random"
"976",6,52,"AnsweringMachine.jpg",".","new",1,1186,1,"random"
"977",6,53,"GranolaBar.jpg",".","new",1,1061,1,"random"
"978",6,54,"Autocreeper.jpg","1","new",0,985,1,"random"
"979",6,55,"Pants_Jeans.jpg","1","old",1,1108,1,"random"
"980",6,56,"Bugle.jpg",".","new",1,783,1,"random"
"981",6,57,"Tribunal_Wooden.jpg",".","new",1,1219,1,"random"
"982",6,58,"GPS.jpg","3","old",1,965,1,"random"
"983",6,59,"Radio_Vintage.jpg",".","new",1,664,1,"random"
"984",6,60,"Mitt_Oven.jpg","1","old",1,868,1,"random"
"985",6,61,"BicycleChain.jpg",".","new",1,647,1,"random"
"986",6,62,"Toy_Moose.jpg","3","old",1,1378,1,"random"
"987",6,63,"TireRims.jpg",".","new",1,582,1,"random"
"988",6,64,"Stove_Camping.jpg","3","old",1,1209,1,"random"
"989",6,65,"Dolphine.jpg",".","new",1,796,1,"random"
"990",6,67,"CookieCutter_Bell.jpg","1","new",0,725,1,"random"
"991",6,68,"ContactLens.jpg",".","new",1,616,1,"random"
"992",6,69,"DoorBell.jpg","1","old",1,1884,1,"random"
"993",6,70,"Pig.jpg",".","new",1,927,1,"random"
"994",6,71,"Trophy.jpg","3","old",1,770,1,"random"
"995",6,72,"SculptureMetalFish.jpg","1","old",1,837,1,"random"
"996",6,73,"Switch_LightWhite.jpg",".","new",1,905,1,"random"
"997",6,74,"House_Rural.jpg",".","new",1,660,1,"random"
"998",6,75,"Thermos_MetalSleek.jpg",".","old",0,775,1,"random"
"999",6,76,"Almond.jpg","1","old",1,995,1,"random"
"1000",6,77,"MonkeyPuppet.jpg","3","old",1,694,1,"random"
"1001",6,78,"FireExtinguisher.jpg","1","old",1,721,1,"random"
"1002",6,79,"LeatherPuncherTool.jpg","3","old",1,653,1,"random"
"1003",6,80,"Sign_Parking.jpg","3","old",1,584,1,"random"
"1004",6,81,"BicycleGear.jpg",".","new",1,1115,1,"random"
"1005",6,82,"Bottle_Specimen.jpg",".","new",1,631,1,"random"
"1006",6,83,"Bowl_Chinese.jpg","3","old",1,674,1,"random"
"1007",6,84,"Tofu.jpg",".","new",1,805,1,"random"
"1008",6,85,"DoorKnob.jpg","3","old",1,745,1,"random"
"1009",6,86,"Fencing_HelmetSwords.jpg",".","new",1,1564,1,"random"
"1010",6,87,"Lighter_Yellow.jpg",".","new",1,791,1,"random"
"1011",6,88,"Pipe_Drain.jpg","1","old",1,747,1,"random"
"1012",6,89,"Iron_Antique.jpg",".","new",1,670,1,"random"
"1013",6,90,"Carbiner_Ascender.jpg",".","new",1,977,1,"random"
"1014",6,91,"Thermostat.jpg",".","new",1,725,1,"random"
"1015",6,92,"HairDryer.jpg","1","new",0,775,1,"random"
"1016",6,93,"Chest.jpg","1","new",0,1082,1,"random"
"1017",6,94,"Table_Poker.jpg","1","new",0,806,1,"random"
"1018",6,95,"WindowBlinds.jpg","3","old",1,777,1,"random"
"1019",6,96,"Toy_Witch.jpg","3","old",1,796,1,"random"
"1020",6,97,"BoogieBoard.jpg",".","new",1,1112,1,"random"
"1021",6,98,"Pineapple.jpg","3","old",1,499,1,"random"
"1022",6,99,"Thermostat_Digital.jpg","1","old",1,726,1,"random"
"1023",6,100,"Gun_Glue.jpg",".","old",0,785,1,"random"
"1024",6,101,"BottleOpener.jpg","1","new",0,1445,1,"random"
"1025",6,102,"CandyDispenser.jpg","1","old",1,1272,1,"random"
"1026",6,103,"Bird_Cardinal.jpg","3","old",1,619,1,"random"
"1027",6,104,"Phone_Wireless.jpg","3","old",1,975,1,"random"
"1028",6,105,"LampPost_OneBulb.jpg",".","old",0,746,1,"random"
"1029",6,106,"KeyHook_Occupied.jpg",".","new",1,909,1,"random"
"1030",6,107,"Flamingo_Cartoon.jpg","1","old",1,577,1,"random"
"1031",6,108,"Baster.jpg",".","new",1,1020,1,"random"
"1032",6,109,"Cassette_Audio.jpg","3","old",1,696,1,"random"
"1033",6,110,"DogTreat.jpg","1","old",1,667,1,"random"
"1034",6,111,"CrepeMaker.jpg",".","new",1,1246,1,"random"
"1035",6,112,"IceCrusher.jpg","3","old",1,761,1,"random"
"1036",6,113,"Lollipop_Grape.jpg","1","old",1,661,1,"random"
"1037",6,114,"Hazelnut.jpg",".","new",1,776,1,"random"
"1038",6,115,"BloodpPresureCuff.jpg",".","new",1,915,1,"random"
"1039",6,117,"Chinchilla.jpg",".","new",1,778,1,"random"
"1040",6,118,"HumanSkeleton.jpg",".","new",1,1685,1,"random"
"1041",6,119,"Cake_Wedding.jpg","1","new",0,1249,1,"random"
"1042",6,120,"Glass_Martini.jpg",".","new",1,876,1,"random"
"1043",6,121,"Pipe.jpg",".","new",1,1031,1,"random"
"1044",6,122,"Loofa.jpg",".","new",1,835,1,"random"
"1045",6,123,"MonaLisa.jpg","1","old",1,1142,1,"random"
"1046",6,124,"Speaker_OnStand.jpg","3","new",0,1041,1,"random"
"1047",6,125,"PaintRoller.jpg",".","new",1,1141,1,"random"
"1048",6,126,"Generator.jpg","3","old",1,1160,1,"random"
"1049",6,127,"Flute_Wooden.jpg","1","new",0,851,1,"random"
"1050",6,128,"Hourglass.jpg","3","old",1,711,1,"random"
"1051",6,129,"PotatoMasher_Zigzag.jpg","3","new",0,1426,1,"random"
"1052",6,130,"Clip_Paper.jpg","3","old",1,812,1,"random"
"1053",6,131,"Balalaika.jpg","3","old",1,768,1,"random"
"1054",6,133,"Decoration_WallOrnament.jpg",".","new",1,1431,1,"random"
"1055",6,134,"BicycleBrake.jpg","1","new",0,946,1,"random"
"1056",6,135,"Bellows.jpg","3","old",1,1013,1,"random"
"1057",6,136,"PaperStack.jpg",".","new",1,721,1,"random"
"1058",6,137,"Screw.jpg",".","new",1,1020,1,"random"
"1059",6,138,"Cannister_Gas.jpg",".","new",1,815,1,"random"
"1060",6,139,"Sushi.jpg","1","old",1,947,1,"random"
"1061",6,140,"Icepick.jpg",".","new",1,1022,1,"random"
"1062",6,141,"DryRack_Dishes.jpg","3","old",1,825,1,"random"
"1063",6,142,"Cage_Bird.jpg",".","new",1,901,1,"random"
"1064",6,143,"Knife_Hunting.jpg","3","old",1,696,1,"random"
"1065",6,144,"BicycleHandleGrip.jpg","1","old",1,971,1,"random"
"1066",6,145,"Statue_VirginMary.jpg",".","new",1,831,1,"random"
"1067",6,146,"Boardgame_Checkers.jpg",".","new",1,754,1,"random"
"1068",6,147,"Lamp_TableWhite.jpg",".","old",0,1085,1,"random"
"1069",6,148,"ElasticBand.jpg",".","new",1,809,1,"random"
"1070",6,149,"Exercise_Machine.jpg",".","new",1,908,1,"random"
"1071",6,150,"Guitarcase.jpg","3","old",1,727,1,"random"
"1072",6,151,"Bindings_Snowboard.jpg",".","new",1,963,1,"random"
"1073",6,152,"Cabinet_Office.jpg",".","new",1,862,1,"random"
"1074",6,153,"Lilypad.jpg","3","old",1,593,1,"random"
"1075",6,154,"BicyclePedal.jpg","3","old",1,917,1,"random"
"1076",6,155,"Bathtub.jpg","1","new",0,1431,1,"random"
"1077",6,156,"Trumpet.jpg","3","old",1,779,1,"random"
"1078",6,157,"Bottle_BubbleBlower.jpg",".","new",1,1694,1,"random"
"1079",6,158,"Toy_StackingRing.jpg","3","old",1,682,1,"random"
"1080",6,159,"Nyala.jpg","3","old",1,828,1,"random"
"1081",6,160,"Dart.jpg",".","new",1,936,1,"random"
"1082",6,161,"Truck_Dump.jpg",".","new",1,707,1,"random"
"1083",6,162,"SewingMachine.jpg",".","new",1,814,1,"random"
"1084",6,163,"Bottle_Wine.jpg","1","new",0,1193,1,"random"
"1085",6,164,"Candle_Blue.jpg","1","old",1,797,1,"random"
"1086",6,165,"SkullDeer.jpg",".","new",1,824,1,"random"
"1087",6,166,"Shield_Antique.jpg",".","old",0,779,1,"random"
"1088",6,167,"WashRack.jpg","1","old",1,703,1,"random"
"1089",6,168,"Hawk.jpg",".","new",1,826,1,"random"
"1090",6,169,"Hook_Fish.jpg","3","old",1,1437,1,"random"
"1091",6,170,"OnionRed.jpg",".","new",1,833,1,"random"
"1092",6,171,"Crib_Basket.jpg",".","new",1,684,1,"random"
"1093",6,172,"Drink_Green.jpg","3","old",1,663,1,"random"
"1094",6,173,"SafetyPin.jpg",".","old",0,683,1,"random"
"1095",6,174,"Mat_Door.jpg","3","old",1,654,1,"random"
"1096",6,175,"Cherry.jpg","3","old",1,529,1,"random"
"1097",6,176,"IceCream_Chocolate.jpg","1","new",0,869,1,"random"
"1098",6,177,"RibbonSpool.jpg",".","new",1,736,1,"random"
"1099",6,178,"StringBean.jpg","3","old",1,587,1,"random"
"1100",6,179,"Seashell_AlternateTellin.jpg",".","new",1,743,1,"random"
"1101",6,180,"NailPolish.jpg","3","old",1,994,1,"random"
"1102",6,181,"Chest_Toys.jpg","3","old",1,773,1,"random"
"1103",6,182,"Wheel_Steering.jpg",".","new",1,697,1,"random"
"1104",6,183,"Outhouse.jpg",".","new",1,1212,1,"random"
"1105",6,184,"Toy_Lighthouse.jpg",".","new",1,1495,1,"random"
"1106",6,185,"DrillBit.jpg",".","new",1,723,1,"random"
"1107",6,186,"NintendoWii.jpg","3","old",1,942,1,"random"
"1108",6,187,"Megaphone.jpg","3","old",1,841,1,"random"
"1109",6,188,"Skates.jpg","3","new",0,717,1,"random"
"1110",6,189,"Goose_Canadian.jpg","3","old",1,688,1,"random"
"1111",6,190,"SkiPoles.jpg",".","new",1,1051,1,"random"
"1112",6,191,"Toolbox_RedOpen.jpg",".","new",1,1295,1,"random"
"1113",6,192,"Knife_Butter.jpg",".","new",1,706,1,"random"
"1114",6,193,"Apple_RedAndGreen.jpg","1","new",0,1581,1,"random"
"1115",6,194,"Pitcher.jpg","1","new",0,713,1,"random"
"1116",6,195,"Cup_Styrofoam.jpg","3","old",1,819,1,"random"
"1117",6,196,"Strainer_Tea.jpg",".","new",1,806,1,"random"
"1118",6,197,"Glass_Cup.jpg",".","new",1,666,1,"random"
"1119",6,199,"ShearsGarden.jpg",".","new",1,746,1,"random"
"1120",6,200,"Spatula_1.jpg",".","new",1,917,1,"random"
"1121",6,201,"PassionFruit.jpg","3","old",1,945,1,"random"
"1122",6,202,"Knee.jpg","3","old",1,660,1,"random"
"1123",6,203,"DivingBoard.jpg",".","new",1,839,1,"random"
"1124",6,204,"Shoes_DutchClogs.jpg","1","new",0,850,1,"random"
"1125",6,205,"Toy_BlocksPlastic Colourful.jpg","1","old",1,686,1,"random"
"1126",6,206,"Brooch_Fish.jpg",".","new",1,633,1,"random"
"1127",6,207,"CameoPortrait.jpg","1","new",0,644,1,"random"
"1128",6,208,"Mattress.jpg","3","old",1,672,1,"random"
"1129",6,209,"Desk_School.jpg","3","old",1,587,1,"random"
"1130",6,210,"Drum_Brazilan.jpg",".","new",1,782,1,"random"
"1131",6,211,"Fruit_Cactus.jpg","1","new",0,810,1,"random"
"1132",6,212,"Bullet.jpg","3","old",1,733,1,"random"
"1133",6,213,"Sign_Wetfloor.jpg","3","old",1,824,1,"random"
"1134",6,214,"Mop.jpg","1","new",0,860,1,"random"
"1135",6,215,"Tortilla.jpg","3","old",1,647,1,"random"
"1136",6,216,"Arch.jpg",".","new",1,1218,1,"random"
"1137",6,217,"JukeboxAntique.jpg","3","old",1,686,1,"random"
"1138",6,218,"Bench_Wooden.jpg",".","new",1,1145,1,"random"
"1139",6,219,"Chair_MedicalToilet.jpg","1","new",0,668,1,"random"
"1140",6,220,"Light_Siren.jpg","1","old",1,1048,1,"random"
"1141",6,221,"Bomb.jpg",".","old",0,1411,1,"random"
"1142",6,222,"Bandage_Wrap.jpg",".","new",1,1094,1,"random"
"1143",6,223,"PedestalGreek.jpg",".","old",0,1610,1,"random"
"1144",6,224,"Fortress.jpg","1","old",1,1453,1,"random"
"1145",6,225,"Toy_GasPump.jpg","3","old",1,656,1,"random"
"1146",6,226,"Cabinet_Display.jpg",".","old",0,1156,1,"random"
"1147",6,227,"Ashtray_Empty.jpg","3","old",1,703,1,"random"
"1148",6,228,"BadgeSpecialAgent.jpg","3","old",1,554,1,"random"
"1149",6,229,"Hippopotamus.jpg","3","old",1,726,1,"random"
"1150",6,230,"Boots_KneeHigh.jpg",".","new",1,841,1,"random"
"1151",6,231,"Gorilla.jpg",".","new",1,796,1,"random"
"1152",6,232,"Mask_Happy.jpg","1","old",1,663,1,"random"
"1153",6,233,"Hottub.jpg",".","new",1,915,1,"random"
"1154",6,234,"Tire_Hollow.jpg",".","new",1,694,1,"random"
"1155",6,235,"GasBurner.jpg","1","new",0,1194,1,"random"
"1156",6,236,"Hammer.jpg",".","new",1,732,1,"random"
"1157",6,237,"Oyster.jpg","3","old",1,703,1,"random"
"1158",6,238,"Helmet_Knight.jpg",".","new",1,883,1,"random"
"1159",6,239,"Case_DVD.jpg",".","new",1,758,1,"random"
"1160",6,240,"Currants.jpg",".","new",1,769,1,"random"
"1161",6,241,"Spoon_Wooden.jpg","3","new",0,1653,1,"random"
"1162",6,242,"Pajamas.jpg",".","new",1,696,1,"random"
"1163",6,243,"Flower_Hibiscus.jpg",".","new",1,691,1,"random"
"1164",6,244,"Tickets_Blank.jpg","3","old",1,670,1,"random"
"1165",6,245,"TartStrawberry.jpg","3","old",1,714,1,"random"
"1166",6,246,"Helmet_Construction.jpg","1","old",1,1189,1,"random"
"1167",6,247,"Toy_BearBlackPlastic.jpg",".","new",1,888,1,"random"
"1168",6,248,"Toy_TableSet.jpg",".","new",1,804,1,"random"
"1169",6,249,"PanCooking.jpg",".","new",1,647,1,"random"
"1170",6,250,"Syrup_Maple.jpg",".","new",1,690,1,"random"
"1171",6,251,"Helmet_Soldier.jpg","1","old",1,590,1,"random"
"1172",6,252,"Ball_Disco.jpg",".","new",1,833,1,"random"
"1173",6,253,"Colander.jpg","1","old",1,684,1,"random"
"1174",6,254,"Can_OilSpout.jpg",".","old",0,720,1,"random"
"1175",6,255,"Peppermill.jpg","1","old",1,819,1,"random"
"1176",6,256,"Brace_Back.jpg",".","new",1,910,1,"random"
"1177",6,257,"Chipmunk.jpg",".","new",1,682,1,"random"
"1178",6,258,"Steeple.jpg","3","old",1,845,1,"random"
"1179",6,259,"MixingGlass.jpg","1","old",1,800,1,"random"
"1180",6,260,"Clock_Radio.jpg",".","new",1,1140,1,"random"
"1181",6,261,"SmokingPipe.jpg",".","new",1,799,1,"random"
"1182",6,262,"Blanket.jpg","1","new",0,706,1,"random"
"1183",6,265,"Pot_Cooking.jpg",".","new",1,721,1,"random"
"1184",6,266,"Waffle.jpg",".","old",0,508,1,"random"
"1185",6,267,"Box_Floral.jpg","3","old",1,927,1,"random"
"1186",6,268,"Hoverboard.jpg",".","new",1,819,1,"random"
"1187",6,269,"Cross.jpg",".","new",1,814,1,"random"
"1188",6,270,"Lock_Combination.jpg","1","old",1,729,1,"random"
"1189",6,271,"Microphone.jpg",".","new",1,804,1,"random"
"1190",6,272,"Toys_Lego.jpg","1","old",1,976,1,"random"
"1191",6,273,"Tape_Washi.jpg",".","new",1,770,1,"random"
"1192",6,274,"Tripod.jpg","1","old",1,718,1,"random"
"1193",6,275,"Box_Jewellery.jpg","1","new",0,1025,1,"random"
"1194",6,276,"Sink_Bathroom.jpg",".","new",1,716,1,"random"
"1195",6,277,"Toy_RockingHorseBlack.jpg","1","old",1,712,1,"random"
"1196",6,278,"TurkeyDinner.jpg",".","new",1,1075,1,"random"
"1197",6,279,"ToothPaste.jpg",".","new",1,934,1,"random"
"1198",6,280,"Chopsticks.jpg",".","old",0,858,1,"random"
"1199",6,281,"Dress_Blue.jpg",".","new",1,653,1,"random"
"1200",6,282,"RemoteControl.jpg","3","old",1,928,1,"random"
"1201",6,283,"Shampoo.jpg","3","old",1,684,1,"random"
"1202",6,284,"ShoulderPads.jpg","1","new",0,983,1,"random"
"1203",6,285,"MobilityScooter.jpg",".","new",1,722,1,"random"
"1204",6,286,"Hammer_Reflex.jpg","1","new",0,1126,1,"random"
"1205",6,287,"CookieCutter_Tree.jpg",".","old",0,1233,1,"random"
"1206",6,288,"PuppetTheatre_WhiteGold.jpg","3","old",1,748,1,"random"
"1207",6,289,"Guitar_Acoustic.jpg","1","new",0,904,1,"random"
"1208",6,290,"KitchenTools.jpg",".","new",1,755,1,"random"
"1209",6,291,"fries.jpg","1","old",1,710,1,"random"
"1210",6,292,"Fuse.jpg","3","old",1,1106,1,"random"
"1211",6,293,"CuttingBoard.jpg",".","new",1,685,1,"random"
"1212",6,294,"Crutches.jpg",".","new",1,968,1,"random"
"1213",6,295,"ReindeerHeadband.jpg",".","new",1,988,1,"random"
"1214",6,296,"Cantaloupe.jpg","1","new",0,1191,1,"random"
"1215",6,297,"AmpMeter.jpg","3","old",1,650,1,"random"
"1216",6,298,"CoffeeGrinder.jpg",".","new",1,909,1,"random"
"1217",6,299,"Box_Present.jpg",".","new",1,817,1,"random"
"1218",6,300,"FlashlightHeadBand.jpg","1","old",1,996,1,"random"
"1219",6,301,"Hockey_Equipment.jpg",".","new",1,1343,1,"random"
"1220",6,302,"TeethMould.jpg","3","old",1,635,1,"random"
"1221",6,303,"Sock_Ankle.jpg",".","new",1,814,1,"random"
"1222",6,304,"Statue_SouthAmerican.jpg",".","new",1,1057,1,"random"
"1223",6,305,"Leaf_Clover.jpg","1","old",1,565,1,"random"
"1224",6,306,"Exercise_Stretch.jpg","1","old",1,768,1,"random"
"1225",6,307,"Lantern_TeaBox.jpg","1","new",0,611,1,"random"
"1226",6,308,"Paddle_Beach.jpg",".","new",1,631,1,"random"
"1227",6,309,"Pickaxe.jpg",".","new",1,810,1,"random"
"1228",6,310,"Paratrooper.jpg","3","old",1,780,1,"random"
"1229",6,311,"BicycleOdometer.jpg",".","old",0,1688,1,"random"
"1230",6,312,"DrinkingFountain.jpg","1","old",1,1131,1,"random"
"1231",6,313,"SundaeBanana.jpg",".","new",1,814,1,"random"
"1232",6,314,"Wheelbarrow_Green.jpg","1","new",0,730,1,"random"
"1233",6,315,"Notebook.jpg","1","old",1,773,1,"random"
"1234",6,316,"Frame_Oval.jpg",".","new",1,984,1,"random"
"1235",6,317,"Glove_Rubber.jpg","3","old",1,1156,1,"random"
"1236",6,318,"NeedlesAcupuncture.jpg","3","old",1,855,1,"random"
"1237",6,319,"Golf_Bag.jpg","1","old",1,970,1,"random"
"1238",6,320,"WireStripper.jpg","1","old",1,614,1,"random"
"1239",6,321,"Playground.jpg",".","new",1,1033,1,"random"
"1240",6,322,"Toy_DollOffice.jpg",".","new",1,860,1,"random"
"1241",6,323,"Comb.jpg",".","new",1,728,1,"random"
"1242",6,324,"Gorilla.jpg",".","old",0,1027,1,"random"
"1243",6,325,"Mug_Beer.jpg","1","old",1,838,1,"random"
"1244",7,1,"MobilityScooter.jpg",".","new",1,1126,2,"random"
"1245",7,2,"KeyHook_Occupied.jpg",".","new",1,908,2,"random"
"1246",7,3,"Car_Sedan.jpg","1","new",0,734,2,"random"
"1247",7,4,"Lock_Combination.jpg","3","old",1,923,2,"random"
"1248",7,5,"Cabinet_Office.jpg",".","new",1,831,2,"random"
"1249",7,6,"Bottle_Blue.jpg","1","old",1,1039,2,"random"
"1250",7,7,"Bowl_Chinese.jpg","1","old",1,870,2,"random"
"1251",7,8,"Ball_8.jpg",".","new",1,738,2,"random"
"1252",7,9,"Screw.jpg",".","new",1,866,2,"random"
"1253",7,10,"Tape_Washi.jpg",".","new",1,679,2,"random"
"1254",7,11,"Trumpet.jpg","1","old",1,783,2,"random"
"1255",7,12,"CuttingBoard.jpg",".","new",1,771,2,"random"
"1256",7,13,"Hook_Fish.jpg","1","old",1,998,2,"random"
"1257",7,14,"Shield_Antique.jpg",".","new",1,808,2,"random"
"1258",7,15,"RibbonSpool.jpg",".","new",1,763,2,"random"
"1259",7,16,"PropellerFan.jpg",".","new",1,750,2,"random"
"1260",7,17,"Toys_Lego.jpg","3","old",1,637,2,"random"
"1261",7,18,"Keg.jpg","3","old",1,784,2,"random"
"1262",7,19,"BicycleChain.jpg",".","new",1,745,2,"random"
"1263",7,20,"Flamingo_Cartoon.jpg","3","old",1,995,2,"random"
"1264",7,21,"PanCooking.jpg",".","new",1,744,2,"random"
"1265",7,22,"BadgeSpecialAgent.jpg","1","old",1,822,2,"random"
"1266",7,23,"Hourglass.jpg","1","new",0,949,2,"random"
"1267",7,24,"Jug_Milk.jpg",".","new",1,1017,2,"random"
"1268",7,25,"Bell_Hand.jpg",".","new",1,809,2,"random"
"1269",7,26,"Syrup_Maple.jpg",".","new",1,759,2,"random"
"1270",7,27,"Knee.jpg","1","old",1,898,2,"random"
"1271",7,28,"DrillBit.jpg",".","new",1,960,2,"random"
"1272",7,29,"Spoon_Wooden.jpg","1","old",1,809,2,"random"
"1273",7,30,"Bullet.jpg","1","new",0,879,2,"random"
"1274",7,31,"Sign_TrafficArrow.jpg",".","new",1,1193,2,"random"
"1275",7,32,"Toy_PoliceCar.jpg",".","new",1,810,2,"random"
"1276",7,33,"Dress_Blue.jpg",".","new",1,719,2,"random"
"1277",7,34,"Lantern_TeaBox.jpg","3","old",1,791,2,"random"
"1278",7,35,"Apple_RedAndGreen.jpg","3","old",1,768,2,"random"
"1279",7,36,"Guitarcase.jpg","1","new",0,1164,2,"random"
"1280",7,37,"Thermostat.jpg",".","new",1,895,2,"random"
"1281",7,38,"KitchenTools.jpg",".","new",1,885,2,"random"
"1282",7,39,"Outhouse.jpg",".","new",1,690,2,"random"
"1283",7,40,"Exercise_Machine.jpg",".","old",0,1075,2,"random"
"1284",7,41,"Mug_Beer.jpg","3","old",1,833,2,"random"
"1285",7,42,"Box_Jewellery.jpg","3","old",1,700,2,"random"
"1286",7,43,"Autocreeper.jpg","3","old",1,999,2,"random"
"1287",7,44,"RemoteControl.jpg","1","old",1,793,2,"random"
"1288",7,45,"Skates.jpg","1","old",1,845,2,"random"
"1289",7,46,"Toy_TableSet.jpg",".","new",1,713,2,"random"
"1290",7,47,"Dart.jpg",".","new",1,818,2,"random"
"1291",7,48,"TartStrawberry.jpg","1","old",1,781,2,"random"
"1292",7,49,"Toolbox_RedOpen.jpg",".","new",1,685,2,"random"
"1293",7,50,"Lighter_Yellow.jpg",".","new",1,740,2,"random"
"1294",7,51,"Crutches.jpg",".","new",1,856,2,"random"
"1295",7,52,"PedestalGreek.jpg",".","new",1,791,2,"random"
"1296",7,53,"SafetyPin.jpg",".","new",1,771,2,"random"
"1297",7,54,"Spoons_MeasuringDetached.jpg","3","old",1,671,2,"random"
"1298",7,55,"ContactLens.jpg",".","new",1,734,2,"random"
"1299",7,56,"JukeboxAntique.jpg","1","new",0,992,2,"random"
"1300",7,57,"Toolbox_Old.jpg",".","new",1,756,2,"random"
"1301",7,58,"Shoe_Pink.jpg",".","new",1,701,2,"random"
"1302",7,59,"BoogieBoard.jpg",".","new",1,749,2,"random"
"1303",7,60,"DryRack_Dishes.jpg","1","old",1,739,2,"random"
"1304",7,61,"Pickaxe.jpg",".","new",1,729,2,"random"
"1305",7,62,"Iron_Antique.jpg",".","new",1,703,2,"random"
"1306",7,63,"Strainer_Tea.jpg",".","new",1,839,2,"random"
"1307",7,64,"Chair_BeanBag.jpg","1","old",1,804,2,"random"
"1308",7,65,"Pajamas.jpg",".","new",1,762,2,"random"
"1309",7,67,"Tickets_Blank.jpg","1","old",1,1330,2,"random"
"1310",7,68,"Cross.jpg",".","new",1,1779,2,"random"
"1311",7,69,"Pig.jpg",".","new",1,1341,2,"random"
"1312",7,70,"Table_Poker.jpg","3","new",0,1321,2,"random"
"1313",7,71,"CrepeMaker.jpg",".","new",1,916,2,"random"
"1314",7,72,"Statue_SouthAmerican.jpg",".","new",1,992,2,"random"
"1315",7,73,"DoorKnob.jpg","1","old",1,1127,2,"random"
"1316",7,74,"PotatoMasher_Zigzag.jpg","1","old",1,1235,2,"random"
"1317",7,75,"DogTreat.jpg","3","old",1,699,2,"random"
"1318",7,76,"MonkeyPuppet.jpg","1","old",1,909,2,"random"
"1319",7,77,"Can_OilSpout.jpg",".","new",1,702,2,"random"
"1320",7,78,"HairDryer.jpg","3","old",1,843,2,"random"
"1321",7,79,"TeethMould.jpg","1","old",1,718,2,"random"
"1322",7,80,"Helmet_Construction.jpg","3","old",1,1142,2,"random"
"1323",7,81,"Ashtray_Empty.jpg","1","old",1,653,2,"random"
"1324",7,82,"Clock_Radio.jpg",".","new",1,933,2,"random"
"1325",7,83,"Shoes_DutchClogs.jpg","3","old",1,741,2,"random"
"1326",7,84,"Jar_Cotton.jpg",".","new",1,857,2,"random"
"1327",7,85,"Bugle.jpg",".","new",1,893,2,"random"
"1328",7,86,"Hawk.jpg",".","new",1,944,2,"random"
"1329",7,87,"Chipmunk.jpg",".","new",1,716,2,"random"
"1330",7,88,"Leaf_Clover.jpg","3","old",1,619,2,"random"
"1331",7,89,"Toy_Lighthouse.jpg",".","new",1,699,2,"random"
"1332",7,90,"Microphone.jpg",".","new",1,892,2,"random"
"1333",7,91,"Flute_Wooden.jpg","3","old",1,846,2,"random"
"1334",7,92,"CartonEggs.jpg",".","new",1,927,2,"random"
"1335",7,93,"IceCream_Chocolate.jpg","3","old",1,804,2,"random"
"1336",7,94,"Hottub.jpg",".","new",1,722,2,"random"
"1337",7,95,"ToothPaste.jpg",".","new",1,708,2,"random"
"1338",7,96,"Tortilla.jpg","1","old",1,824,2,"random"
"1339",7,97,"Bomb.jpg",".","new",1,786,2,"random"
"1340",7,98,"Hammer.jpg",".","new",1,1062,2,"random"
"1341",7,99,"DoorBell.jpg","3","old",1,830,2,"random"
"1342",7,100,"Pasta_Spaghetti.jpg",".","new",1,731,2,"random"
"1343",7,101,"Golf_Bag.jpg","3","new",0,1105,2,"random"
"1344",7,102,"CameoPortrait.jpg","3","old",1,756,2,"random"
"1345",7,103,"Glove_Rubber.jpg","1","old",1,643,2,"random"
"1346",7,104,"Beater_Electric.jpg","1","old",1,709,2,"random"
"1347",7,105,"Sign_Wetfloor.jpg","1","new",0,842,2,"random"
"1348",7,106,"ShoppingCart.jpg",".","new",1,776,2,"random"
"1349",7,107,"Pitcher.jpg","3","old",1,770,2,"random"
"1350",7,108,"Cassette_Audio.jpg","1","old",1,810,2,"random"
"1351",7,109,"MouthGuard.jpg","1","old",1,879,2,"random"
"1352",7,110,"Candy_Chocolate.jpg","3","old",1,650,2,"random"
"1353",7,111,"Crib_Basket.jpg",".","new",1,715,2,"random"
"1354",7,112,"WireStripper.jpg","3","old",1,795,2,"random"
"1355",7,113,"Radio_Vintage.jpg",".","new",1,720,2,"random"
"1356",7,114,"SkiPoles.jpg",".","new",1,991,2,"random"
"1357",7,115,"Pot_Cooking.jpg",".","new",1,735,2,"random"
"1358",7,116,"Box_Floral.jpg","1","old",1,970,2,"random"
"1359",7,117,"Bathtub.jpg","3","old",1,750,2,"random"
"1360",7,118,"Thermostat_Digital.jpg","3","old",1,614,2,"random"
"1361",7,119,"FlipFlop_PairBlue.jpg",".","new",1,799,2,"random"
"1362",7,120,"Boardgame_Checkers.jpg",".","new",1,635,2,"random"
"1363",7,121,"Cup_Styrofoam.jpg","1","old",1,810,2,"random"
"1364",7,122,"Mop.jpg","3","old",1,676,2,"random"
"1365",7,123,"Mattress.jpg","1","old",1,755,2,"random"
"1366",7,124,"Pipe.jpg",".","new",1,778,2,"random"
"1367",7,125,"Seashell_AlternateTellin.jpg",".","new",1,962,2,"random"
"1368",7,126,"Toy_BearBlackPlastic.jpg",".","new",1,848,2,"random"
"1369",7,127,"Makeup_Foundation.jpg",".","old",0,1008,2,"random"
"1370",7,128,"Paratrooper.jpg","1","new",0,1156,2,"random"
"1371",7,129,"Hat_Baseball.jpg",".","new",1,1199,2,"random"
"1372",7,130,"Fortress.jpg","3","old",1,726,2,"random"
"1373",7,131,"Comb.jpg",".","new",1,832,2,"random"
"1374",7,133,"Carbiner_Ascender.jpg",".","new",1,1227,2,"random"
"1375",7,134,"Shampoo.jpg","1","new",0,841,2,"random"
"1376",7,135,"HumanSkeleton.jpg",".","new",1,752,2,"random"
"1377",7,136,"ChessPiece_Knight.jpg",".","new",1,748,2,"random"
"1378",7,137,"Mango.jpg","3","old",1,1086,2,"random"
"1379",7,138,"Peppermill.jpg","3","old",1,840,2,"random"
"1380",7,139,"Caterpillar.jpg",".","new",1,760,2,"random"
"1381",7,140,"Bottle_Specimen.jpg",".","new",1,604,2,"random"
"1382",7,141,"Candle_Blue.jpg","3","old",1,1012,2,"random"
"1383",7,142,"Telescope.jpg",".","new",1,701,2,"random"
"1384",7,143,"Tire_Hollow.jpg",".","new",1,786,2,"random"
"1385",7,144,"Icepick.jpg",".","new",1,640,2,"random"
"1386",7,145,"Socks_Winter.jpg",".","new",1,692,2,"random"
"1387",7,146,"Goose_Canadian.jpg","1","old",1,1349,2,"random"
"1388",7,147,"Gun_Glue.jpg",".","new",1,1355,2,"random"
"1389",7,148,"Statue_VirginMary.jpg",".","new",1,748,2,"random"
"1390",7,149,"Toy_StackingRing.jpg","1","new",0,769,2,"random"
"1391",7,150,"fries.jpg","3","old",1,779,2,"random"
"1392",7,151,"Ball_Disco.jpg",".","new",1,675,2,"random"
"1393",7,152,"Sign_Parking.jpg","1","old",1,888,2,"random"
"1394",7,153,"Toy_BlocksPlastic Colourful.jpg","3","old",1,608,2,"random"
"1395",7,154,"GasBurner.jpg","3","old",1,759,2,"random"
"1396",7,155,"PaperStack.jpg",".","new",1,674,2,"random"
"1397",7,156,"Flower_Orchid.jpg",".","new",1,874,2,"random"
"1398",7,157,"PaintBrushAndPallette.jpg","1","old",1,909,2,"random"
"1399",7,158,"Tweezers.jpg",".","new",1,852,2,"random"
"1400",7,159,"Bird_Cardinal.jpg","1","old",1,1017,2,"random"
"1401",7,160,"SaxophoneSoprano.jpg",".","new",1,803,2,"random"
"1402",7,161,"Frame_Oval.jpg",".","new",1,926,2,"random"
"1403",7,162,"SkullDeer.jpg",".","new",1,702,2,"random"
"1404",7,163,"Colander.jpg","3","old",1,734,2,"random"
"1405",7,164,"NintendoWii.jpg","1","new",0,668,2,"random"
"1406",7,165,"Sushi.jpg","3","old",1,894,2,"random"
"1407",7,166,"FlashlightHeadBand.jpg","3","old",1,807,2,"random"
"1408",7,167,"ButterDish.jpg","3","old",1,623,2,"random"
"1409",7,168,"Brooch_Fish.jpg",".","new",1,629,2,"random"
"1410",7,169,"AnsweringMachine.jpg",".","new",1,1087,2,"random"
"1411",7,170,"ShearsGarden.jpg",".","old",0,928,2,"random"
"1412",7,171,"Hippopotamus.jpg","1","old",1,787,2,"random"
"1413",7,172,"GPS.jpg","1","new",0,746,2,"random"
"1414",7,173,"Spatula_1.jpg",".","new",1,743,2,"random"
"1415",7,174,"Desk_School.jpg","1","new",0,633,2,"random"
"1416",7,175,"Fuse.jpg","1","new",0,940,2,"random"
"1417",7,176,"Jar_JellyBeans.jpg","1","old",1,1012,2,"random"
"1418",7,177,"SmokingPipe.jpg",".","new",1,793,2,"random"
"1419",7,178,"PaintRollTray.jpg","1","old",1,1098,2,"random"
"1420",7,179,"Glass_Martini.jpg",".","new",1,983,2,"random"
"1421",7,180,"Saw.jpg","3","old",1,919,2,"random"
"1422",7,181,"BicycleOdometer.jpg",".","new",1,794,2,"random"
"1423",7,182,"PaintRoller.jpg",".","new",1,1036,2,"random"
"1424",7,183,"Bellows.jpg","1","old",1,895,2,"random"
"1425",7,184,"Pants_Jeans.jpg","3","old",1,652,2,"random"
"1426",7,185,"Hockey_Equipment.jpg",".","new",1,1015,2,"random"
"1427",7,186,"Pen_Ballpoint.jpg",".","new",1,752,2,"random"
"1428",7,187,"Broom_Long.jpg",".","new",1,944,2,"random"
"1429",7,188,"Blanket.jpg","3","old",1,794,2,"random"
"1430",7,189,"Boots_KneeHigh.jpg",".","new",1,750,2,"random"
"1431",7,190,"Wheelbarrow_Green.jpg","3","new",0,683,2,"random"
"1432",7,191,"Toy_RockingHorseBlack.jpg","3","old",1,796,2,"random"
"1433",7,192,"OnionRed.jpg",".","new",1,890,2,"random"
"1434",7,193,"SmokeDetector.jpg","3","old",1,908,2,"random"
"1435",7,194,"Toy_Shapesorter.jpg","3","old",1,673,2,"random"
"1436",7,195,"Mask_Happy.jpg","3","old",1,695,2,"random"
"1437",7,196,"BicycleHandleGrip.jpg","3","old",1,955,2,"random"
"1438",7,197,"Teabag.jpg","1","old",1,875,2,"random"
"1439",7,199,"TurkeyDinner.jpg",".","new",1,1004,2,"random"
"1440",7,200,"BloodpPresureCuff.jpg",".","new",1,1102,2,"random"
"1441",7,201,"TireRims.jpg",".","new",1,782,2,"random"
"1442",7,202,"Bottle_Wine.jpg","3","old",1,865,2,"random"
"1443",7,203,"SewingMachine.jpg",".","new",1,733,2,"random"
"1444",7,204,"Speaker_OnStand.jpg","1","new",0,975,2,"random"
"1445",7,205,"Knife_Butter.jpg",".","new",1,974,2,"random"
"1446",7,206,"Dolphine.jpg",".","new",1,910,2,"random"
"1447",7,207,"Bandage_Wrap.jpg",".","new",1,907,2,"random"
"1448",7,208,"Paddle_Beach.jpg",".","new",1,715,2,"random"
"1449",7,209,"Baster.jpg",".","new",1,1055,2,"random"
"1450",7,210,"Cage_Bird.jpg",".","new",1,803,2,"random"
"1451",7,211,"PassionFruit.jpg","1","old",1,1115,2,"random"
"1452",7,212,"Cantaloupe.jpg","3","old",1,641,2,"random"
"1453",7,213,"DrinkingFountain.jpg","3","new",0,868,2,"random"
"1454",7,214,"Chest.jpg","3","old",1,769,2,"random"
"1455",7,215,"Chest_Toys.jpg","1","old",1,1018,2,"random"
"1456",7,216,"Case_DVD.jpg",".","new",1,832,2,"random"
"1457",7,217,"Toy_SeeSaw.jpg",".","new",1,720,2,"random"
"1458",7,218,"Candy_Heart.jpg","1","old",1,1124,2,"random"
"1459",7,219,"Glass_Cup.jpg",".","new",1,866,2,"random"
"1460",7,220,"Box_FirstAidOpen.jpg",".","new",1,672,2,"random"
"1461",7,221,"Loofa.jpg",".","new",1,878,2,"random"
"1462",7,222,"MonaLisa.jpg","3","old",1,805,2,"random"
"1463",7,223,"Pineapple.jpg","1","old",1,573,2,"random"
"1464",7,224,"Helmet_Soldier.jpg","3","old",1,663,2,"random"
"1465",7,225,"SundaeBanana.jpg",".","new",1,711,2,"random"
"1466",7,226,"Nyala.jpg","1","old",1,850,2,"random"
"1467",7,227,"FireExtinguisher.jpg","3","old",1,854,2,"random"
"1468",7,228,"Knife_Hunting.jpg","1","old",1,1070,2,"random"
"1469",7,229,"BicyclePedal.jpg","1","new",0,1680,2,"random"
"1470",7,230,"Oyster.jpg","1","old",1,723,2,"random"
"1471",7,231,"Drink_Green.jpg","1","old",1,755,2,"random"
"1472",7,232,"Brace_Back.jpg",".","new",1,888,2,"random"
"1473",7,233,"Light_Siren.jpg","3","old",1,792,2,"random"
"1474",7,234,"Bench_Wooden.jpg",".","new",1,1014,2,"random"
"1475",7,235,"Pipe_Drain.jpg","3","old",1,845,2,"random"
"1476",7,236,"Helmet_Knight.jpg",".","new",1,885,2,"random"
"1477",7,237,"CookieCutter_Tree.jpg",".","new",1,1305,2,"random"
"1478",7,238,"Phone_Wireless.jpg","1","new",0,1581,2,"random"
"1479",7,239,"Sink_Bathroom.jpg",".","new",1,977,2,"random"
"1480",7,240,"NailPolish.jpg","1","old",1,670,2,"random"
"1481",7,241,"NeedlesAcupuncture.jpg","1","old",1,874,2,"random"
"1482",7,242,"Thermos_MetalSleek.jpg",".","new",1,851,2,"random"
"1483",7,243,"Cherry.jpg","1","old",1,593,2,"random"
"1484",7,244,"Waffle.jpg",".","new",1,1023,2,"random"
"1485",7,245,"StringBean.jpg","1","old",1,647,2,"random"
"1486",7,246,"Beaker.jpg",".","new",1,696,2,"random"
"1487",7,247,"Arch.jpg",".","new",1,665,2,"random"
"1488",7,248,"SculptureMetalFish.jpg","3","old",1,902,2,"random"
"1489",7,249,"Chair_MedicalToilet.jpg","3","old",1,720,2,"random"
"1490",7,250,"Tribunal_Wooden.jpg",".","new",1,747,2,"random"
"1491",7,251,"CandyDispenser.jpg","3","old",1,739,2,"random"
"1492",7,252,"Almond.jpg","3","old",1,682,2,"random"
"1493",7,253,"DentistOverheadLight.jpg","3","new",0,760,2,"random"
"1494",7,254,"CookieCutter_Bell.jpg","3","old",1,689,2,"random"
"1495",7,255,"Fencing_HelmetSwords.jpg",".","new",1,787,2,"random"
"1496",7,256,"AmpMeter.jpg","1","old",1,840,2,"random"
"1497",7,257,"Exercise_Stretch.jpg","3","old",1,640,2,"random"
"1498",7,258,"Toy_GasPump.jpg","1","new",0,993,2,"random"
"1499",7,259,"Box_Present.jpg",".","new",1,774,2,"random"
"1500",7,260,"Hammer_Reflex.jpg","3","old",1,727,2,"random"
"1501",7,261,"Lilypad.jpg","1","old",1,715,2,"random"
"1502",7,262,"PuppetTheatre_WhiteGold.jpg","1","new",0,899,2,"random"
"1503",7,263,"House_Rural.jpg",".","new",1,805,2,"random"
"1504",7,265,"Drum_Brazilan.jpg",".","new",1,869,2,"random"
"1505",7,266,"Generator.jpg","1","new",0,577,2,"random"
"1506",7,267,"ShoulderPads.jpg","3","old",1,954,2,"random"
"1507",7,268,"Trophy.jpg","1","old",1,806,2,"random"
"1508",7,269,"Lamp_TableWhite.jpg",".","new",1,840,2,"random"
"1509",7,270,"Sock_Ankle.jpg",".","new",1,692,2,"random"
"1510",7,271,"Boxcutter.jpg",".","new",1,777,2,"random"
"1511",7,272,"Cannister_Gas.jpg",".","new",1,868,2,"random"
"1512",7,273,"WashRack.jpg","3","old",1,643,2,"random"
"1513",7,274,"Steeple.jpg","1","new",0,965,2,"random"
"1514",7,275,"Chinchilla.jpg",".","new",1,864,2,"random"
"1515",7,276,"Hoverboard.jpg",".","new",1,1141,2,"random"
"1516",7,277,"Tofu.jpg",".","new",1,841,2,"random"
"1517",7,278,"TinChristmas.jpg","3","new",0,532,2,"random"
"1518",7,279,"Bottle_BubbleBlower.jpg",".","new",1,1215,2,"random"
"1519",7,280,"CoffeeGrinder.jpg",".","new",1,1153,2,"random"
"1520",7,281,"LeatherPuncherTool.jpg","1","new",0,1031,2,"random"
"1521",7,282,"Fish_Rockbass.jpg","3","old",1,713,2,"random"
"1522",7,283,"Flower_Hibiscus.jpg",".","new",1,780,2,"random"
"1523",7,284,"Stove_Camping.jpg","1","new",0,995,2,"random"
"1524",7,285,"Lollipop_Grape.jpg","3","old",1,1014,2,"random"
"1525",7,286,"MixingGlass.jpg","3","old",1,690,2,"random"
"1526",7,287,"WindowBlinds.jpg","1","new",0,752,2,"random"
"1527",7,288,"Kite_Rainbow.jpg",".","new",1,787,2,"random"
"1528",7,289,"LampPost_OneBulb.jpg",".","new",1,787,2,"random"
"1529",7,290,"Gorilla.jpg",".","new",1,846,2,"random"
"1530",7,291,"DivingBoard.jpg",".","new",1,739,2,"random"
"1531",7,292,"ElasticBand.jpg",".","new",1,883,2,"random"
"1532",7,293,"Playground.jpg",".","new",1,653,2,"random"
"1533",7,294,"Switch_LightWhite.jpg",".","new",1,1141,2,"random"
"1534",7,295,"BusStop.jpg","3","old",1,972,2,"random"
"1535",7,296,"Tripod.jpg","3","old",1,741,2,"random"
"1536",7,297,"Clip_Paper.jpg","1","old",1,1493,2,"random"
"1537",7,298,"BicycleBrake.jpg","3","new",0,1058,2,"random"
"1538",7,299,"Dress_Party.jpg","3","old",1,766,2,"random"
"1539",7,300,"Fridge.jpg",".","new",1,810,2,"random"
"1540",7,301,"Cabinet_Display.jpg",".","new",1,591,2,"random"
"1541",7,302,"Wheel_Steering.jpg",".","new",1,713,2,"random"
"1542",7,303,"Fruit_Cactus.jpg","3","old",1,610,2,"random"
"1543",7,304,"Balalaika.jpg","1","new",0,643,2,"random"
"1544",7,305,"GranolaBar.jpg",".","new",1,776,2,"random"
"1545",7,306,"Cake_Wedding.jpg","3","old",1,825,2,"random"
"1546",7,307,"Toy_Witch.jpg","1","old",1,725,2,"random"
"1547",7,308,"Decoration_WallOrnament.jpg",".","new",1,752,2,"random"
"1548",7,309,"Mat_Door.jpg","1","old",1,1335,2,"random"
"1549",7,310,"Notebook.jpg","3","old",1,793,2,"random"
"1550",7,311,"Megaphone.jpg","1","new",0,1225,2,"random"
"1551",7,312,"Guitar_Acoustic.jpg","3","old",1,715,2,"random"
"1552",7,313,"Truck_Dump.jpg",".","new",1,919,2,"random"
"1553",7,314,"Mitt_Oven.jpg","3","old",1,678,2,"random"
"1554",7,315,"Chopsticks.jpg",".","old",0,1017,2,"random"
"1555",7,316,"Bindings_Snowboard.jpg",".","new",1,1038,2,"random"
"1556",7,317,"IceCrusher.jpg","1","new",0,657,2,"random"
"1557",7,318,"Toy_Moose.jpg","1","new",0,895,2,"random"
"1558",7,319,"BottleOpener.jpg","3","old",1,879,2,"random"
"1559",7,320,"ReindeerHeadband.jpg",".","new",1,735,2,"random"
"1560",7,321,"Toy_DollOffice.jpg",".","new",1,724,2,"random"
"1561",7,322,"BicycleGear.jpg",".","new",1,770,2,"random"
"1562",7,323,"Hazelnut.jpg",".","new",1,1170,2,"random"
"1563",7,324,"Car_Sedan.jpg","","old",1,1218,2,"random"
"1564",7,325,"Currants.jpg",".","new",1,895,2,"random"
"1565",8,1,"Car_Sedan.jpg","1","old",1,1190,2,"random"
"1566",8,2,"Lock_Combination.jpg","3","old",1,960,2,"random"
"1567",8,3,"Bottle_Blue.jpg","1","old",1,1299,2,"random"
"1568",8,4,"AnsweringMachine.jpg",".","new",1,742,2,"random"
"1569",8,5,"Bowl_Chinese.jpg","1","old",1,1009,2,"random"
"1570",8,6,"Trumpet.jpg","1","old",1,812,2,"random"
"1571",8,7,"Can_OilSpout.jpg",".","new",1,695,2,"random"
"1572",8,8,"Hook_Fish.jpg","1","old",1,761,2,"random"
"1573",8,9,"Gun_Glue.jpg",".","new",1,876,2,"random"
"1574",8,10,"Radio_Vintage.jpg",".","old",0,1128,2,"random"
"1575",8,11,"Toys_Lego.jpg","3","old",1,1010,2,"random"
"1576",8,12,"Keg.jpg","3","old",1,605,2,"random"
"1577",8,13,"Flamingo_Cartoon.jpg","3","old",1,544,2,"random"
"1578",8,14,"Loofa.jpg",".","new",1,626,2,"random"
"1579",8,15,"OnionRed.jpg",".","old",0,669,2,"random"
"1580",8,16,"Bottle_BubbleBlower.jpg",".","new",1,968,2,"random"
"1581",8,17,"Chinchilla.jpg",".","new",1,683,2,"random"
"1582",8,18,"Hottub.jpg",".","new",1,654,2,"random"
"1583",8,19,"BadgeSpecialAgent.jpg","1","old",1,689,2,"random"
"1584",8,20,"Chipmunk.jpg",".","new",1,883,2,"random"
"1585",8,21,"Hat_Baseball.jpg",".","new",1,654,2,"random"
"1586",8,22,"GranolaBar.jpg",".","new",1,577,2,"random"
"1587",8,23,"Hourglass.jpg","1","old",1,755,2,"random"
"1588",8,24,"Knee.jpg","1","old",1,815,2,"random"
"1589",8,25,"Spoon_Wooden.jpg","1","old",1,778,2,"random"
"1590",8,26,"Hoverboard.jpg",".","new",1,652,2,"random"
"1591",8,27,"HumanSkeleton.jpg",".","new",1,671,2,"random"
"1592",8,28,"Bullet.jpg","1","old",1,1010,2,"random"
"1593",8,29,"Lantern_TeaBox.jpg","3","old",1,668,2,"random"
"1594",8,30,"Carbiner_Ascender.jpg",".","new",1,639,2,"random"
"1595",8,31,"Apple_RedAndGreen.jpg","3","old",1,787,2,"random"
"1596",8,32,"SkiPoles.jpg",".","new",1,877,2,"random"
"1597",8,33,"Guitarcase.jpg","1","old",1,760,2,"random"
"1598",8,34,"Toolbox_RedOpen.jpg",".","new",1,627,2,"random"
"1599",8,35,"Mug_Beer.jpg","3","old",1,925,2,"random"
"1600",8,36,"Arch.jpg",".","new",1,641,2,"random"
"1601",8,37,"Box_Jewellery.jpg","3","old",1,859,2,"random"
"1602",8,38,"Autocreeper.jpg","3","old",1,671,2,"random"
"1603",8,39,"RemoteControl.jpg","1","old",1,729,2,"random"
"1604",8,40,"Hawk.jpg",".","new",1,660,2,"random"
"1605",8,41,"Skates.jpg","1","old",1,686,2,"random"
"1606",8,42,"Helmet_Knight.jpg",".","new",1,721,2,"random"
"1607",8,43,"Pipe.jpg",".","new",1,748,2,"random"
"1608",8,44,"SafetyPin.jpg",".","new",1,814,2,"random"
"1609",8,45,"Frame_Oval.jpg",".","new",1,649,2,"random"
"1610",8,46,"Brace_Back.jpg",".","new",1,565,2,"random"
"1611",8,47,"Pajamas.jpg",".","new",1,672,2,"random"
"1612",8,48,"TartStrawberry.jpg","1","old",1,898,2,"random"
"1613",8,49,"Thermostat.jpg",".","new",1,581,2,"random"
"1614",8,50,"Spoons_MeasuringDetached.jpg","3","old",1,777,2,"random"
"1615",8,51,"JukeboxAntique.jpg","1","old",1,811,2,"random"
"1616",8,52,"Sign_TrafficArrow.jpg",".","new",1,670,2,"random"
"1617",8,53,"Bomb.jpg",".","new",1,729,2,"random"
"1618",8,54,"Boxcutter.jpg",".","new",1,788,2,"random"
"1619",8,55,"Makeup_Foundation.jpg",".","old",0,782,2,"random"
"1620",8,56,"DryRack_Dishes.jpg","1","old",1,802,2,"random"
"1621",8,57,"Glass_Cup.jpg",".","new",1,716,2,"random"
"1622",8,58,"Chair_BeanBag.jpg","1","old",1,766,2,"random"
"1623",8,59,"Tickets_Blank.jpg","1","new",0,714,2,"random"
"1624",8,60,"Table_Poker.jpg","3","old",1,1044,2,"random"
"1625",8,61,"DoorKnob.jpg","1","old",1,703,2,"random"
"1626",8,62,"PotatoMasher_Zigzag.jpg","1","old",1,802,2,"random"
"1627",8,63,"DogTreat.jpg","3","old",1,597,2,"random"
"1628",8,64,"Spatula_1.jpg",".","new",1,848,2,"random"
"1629",8,65,"Hazelnut.jpg",".","new",1,779,2,"random"
"1630",8,67,"MonkeyPuppet.jpg","1","old",1,1345,2,"random"
"1631",8,68,"Toy_PoliceCar.jpg",".","new",1,851,2,"random"
"1632",8,69,"HairDryer.jpg","3","old",1,1654,2,"random"
"1633",8,70,"TeethMould.jpg","1","old",1,698,2,"random"
"1634",8,71,"Tire_Hollow.jpg",".","new",1,708,2,"random"
"1635",8,72,"Helmet_Construction.jpg","3","old",1,1015,2,"random"
"1636",8,73,"Lighter_Yellow.jpg",".","new",1,1130,2,"random"
"1637",8,74,"Ashtray_Empty.jpg","1","old",1,934,2,"random"
"1638",8,75,"Sock_Ankle.jpg",".","new",1,591,2,"random"
"1639",8,76,"SewingMachine.jpg",".","new",1,866,2,"random"
"1640",8,77,"Wheel_Steering.jpg",".","new",1,749,2,"random"
"1641",8,78,"SmokingPipe.jpg",".","new",1,832,2,"random"
"1642",8,79,"Shoes_DutchClogs.jpg","3","old",1,731,2,"random"
"1643",8,80,"Thermos_MetalSleek.jpg",".","new",1,1021,2,"random"
"1644",8,81,"CrepeMaker.jpg",".","new",1,929,2,"random"
"1645",8,82,"PedestalGreek.jpg",".","new",1,724,2,"random"
"1646",8,83,"Toy_SeeSaw.jpg",".","new",1,1014,2,"random"
"1647",8,84,"Pig.jpg",".","new",1,849,2,"random"
"1648",8,85,"CuttingBoard.jpg",".","new",1,604,2,"random"
"1649",8,86,"Clock_Radio.jpg",".","new",1,614,2,"random"
"1650",8,87,"Leaf_Clover.jpg","3","old",1,569,2,"random"
"1651",8,88,"BicycleOdometer.jpg",".","new",1,716,2,"random"
"1652",8,89,"RibbonSpool.jpg",".","new",1,607,2,"random"
"1653",8,90,"Knife_Butter.jpg",".","new",1,618,2,"random"
"1654",8,91,"Box_Present.jpg",".","new",1,901,2,"random"
"1655",8,92,"Broom_Long.jpg",".","new",1,887,2,"random"
"1656",8,93,"Flute_Wooden.jpg","3","old",1,722,2,"random"
"1657",8,94,"PaperStack.jpg",".","old",0,853,2,"random"
"1658",8,95,"Comb.jpg",".","new",1,1135,2,"random"
"1659",8,96,"IceCream_Chocolate.jpg","3","old",1,786,2,"random"
"1660",8,97,"Tortilla.jpg","1","old",1,909,2,"random"
"1661",8,98,"DoorBell.jpg","3","old",1,1225,2,"random"
"1662",8,99,"Pot_Cooking.jpg",".","new",1,771,2,"random"
"1663",8,100,"Golf_Bag.jpg","3","old",1,862,2,"random"
"1664",8,101,"Shoe_Pink.jpg",".","old",0,1026,2,"random"
"1665",8,102,"CameoPortrait.jpg","3","old",1,844,2,"random"
"1666",8,103,"Seashell_AlternateTellin.jpg",".","old",0,1287,2,"random"
"1667",8,104,"Case_DVD.jpg",".","new",1,738,2,"random"
"1668",8,105,"Ball_8.jpg",".","new",1,1132,2,"random"
"1669",8,106,"Glove_Rubber.jpg","1","old",1,1263,2,"random"
"1670",8,108,"Beater_Electric.jpg","1","old",1,909,2,"random"
"1671",8,109,"CartonEggs.jpg",".","new",1,752,2,"random"
"1672",8,110,"MobilityScooter.jpg",".","new",1,1115,2,"random"
"1673",8,111,"Statue_VirginMary.jpg",".","new",1,909,2,"random"
"1674",8,112,"Socks_Winter.jpg",".","new",1,1440,2,"random"
"1675",8,113,"Cage_Bird.jpg",".","new",1,771,2,"random"
"1676",8,114,"Sign_Wetfloor.jpg","1","old",1,678,2,"random"
"1677",8,115,"Pitcher.jpg","3","new",0,1129,2,"random"
"1678",8,116,"Cassette_Audio.jpg","1","new",0,1156,2,"random"
"1679",8,117,"MouthGuard.jpg","1","old",1,734,2,"random"
"1680",8,118,"Candy_Chocolate.jpg","3","old",1,1057,2,"random"
"1681",8,119,"WireStripper.jpg","3","old",1,1692,2,"random"
"1682",8,120,"SaxophoneSoprano.jpg",".","new",1,854,2,"random"
"1683",8,121,"Box_Floral.jpg","1","old",1,857,2,"random"
"1684",8,122,"Bathtub.jpg","3","old",1,652,2,"random"
"1685",8,123,"SundaeBanana.jpg",".","new",1,647,2,"random"
"1686",8,124,"Sink_Bathroom.jpg",".","old",0,842,2,"random"
"1687",8,125,"Thermostat_Digital.jpg","3","old",1,773,2,"random"
"1688",8,126,"Crib_Basket.jpg",".","new",1,655,2,"random"
"1689",8,127,"Cup_Styrofoam.jpg","1","new",0,690,2,"random"
"1690",8,128,"Jar_Cotton.jpg",".","new",1,886,2,"random"
"1691",8,129,"Mop.jpg","3","old",1,928,2,"random"
"1692",8,130,"BicycleChain.jpg",".","new",1,667,2,"random"
"1693",8,131,"Mattress.jpg","1","old",1,782,2,"random"
"1694",8,133,"Truck_Dump.jpg",".","old",0,1000,2,"random"
"1695",8,134,"Paratrooper.jpg","1","old",1,1787,2,"random"
"1696",8,135,"Fortress.jpg","3","old",1,1518,2,"random"
"1697",8,136,"Shampoo.jpg","1","old",1,1472,2,"random"
"1698",8,137,"Mango.jpg","3","old",1,731,2,"random"
"1699",8,138,"Bell_Hand.jpg",".","new",1,958,2,"random"
"1700",8,139,"SkullDeer.jpg",".","new",1,913,2,"random"
"1701",8,140,"Peppermill.jpg","3","old",1,860,2,"random"
"1702",8,141,"Candle_Blue.jpg","3","old",1,551,2,"random"
"1703",8,142,"Currants.jpg",".","new",1,601,2,"random"
"1704",8,143,"Goose_Canadian.jpg","1","old",1,637,2,"random"
"1705",8,144,"Bench_Wooden.jpg",".","old",0,1151,2,"random"
"1706",8,145,"Toy_StackingRing.jpg","1","new",0,969,2,"random"
"1707",8,146,"Hockey_Equipment.jpg",".","new",1,685,2,"random"
"1708",8,147,"CoffeeGrinder.jpg",".","new",1,1056,2,"random"
"1709",8,148,"fries.jpg","3","old",1,930,2,"random"
"1710",8,149,"Toolbox_Old.jpg",".","new",1,909,2,"random"
"1711",8,150,"Sign_Parking.jpg","1","old",1,719,2,"random"
"1712",8,152,"Kite_Rainbow.jpg",".","new",1,1310,2,"random"
"1713",8,153,"Pickaxe.jpg",".","new",1,745,2,"random"
"1714",8,154,"Toy_BlocksPlastic Colourful.jpg","3","old",1,651,2,"random"
"1715",8,155,"GasBurner.jpg","3","old",1,1614,2,"random"
"1716",8,157,"Jug_Milk.jpg",".","new",1,835,2,"random"
"1717",8,158,"Boots_KneeHigh.jpg",".","new",1,918,2,"random"
"1718",8,159,"Bird_Cardinal.jpg","1","old",1,1602,2,"random"
"1719",8,161,"Bandage_Wrap.jpg",".","new",1,1199,2,"random"
"1720",8,162,"TireRims.jpg",".","new",1,1699,2,"random"
"1721",8,163,"ElasticBand.jpg",".","new",1,636,2,"random"
"1722",8,164,"NintendoWii.jpg","1","old",1,1200,2,"random"
"1723",8,165,"Sushi.jpg","3","old",1,1147,2,"random"
"1724",8,166,"LampPost_OneBulb.jpg",".","new",1,732,2,"random"
"1725",8,168,"Dart.jpg",".","new",1,771,2,"random"
"1726",8,170,"Paddle_Beach.jpg",".","new",1,800,2,"random"
"1727",8,171,"FlashlightHeadBand.jpg","3","new",0,556,2,"random"
"1728",8,172,"Dress_Blue.jpg",".","new",1,678,2,"random"
"1729",8,173,"Playground.jpg",".","new",1,537,2,"random"
"1730",8,174,"ButterDish.jpg","3","old",1,804,2,"random"
"1731",8,175,"Hippopotamus.jpg","1","old",1,742,2,"random"
"1732",8,176,"Pen_Ballpoint.jpg",".","new",1,978,2,"random"
"1733",8,177,"BoogieBoard.jpg",".","new",1,781,2,"random"
